trial trialType response stillTime stimOnset stimOffset respTime correctionTrial correct
001 2 0 7.82235e+06 8.14422e+06 9.16324e+06 8.03625e+08 0
000 002 2 0 8.85632e+08 8.859e+08 8.86919e+08 8.86952e+08 1
000 003 2 0 9.06373e+08 9.06653e+08 9.07672e+08 9.07738e+08 1
000 004 2 0 9.15013e+08 9.15261e+08 9.1628e+08 9.16595e+08 1
000 005 1 1 9.24126e+08 9.24381e+08 9.254e+08 9.2563e+08 0
000 006 1 0 9.81032e+08 9.8129e+08 9.82309e+08 9.82511e+08 0
001 007 1 0 1.00059e+09 1.00085e+09 1.00187e+09 1.00263e+09 0
001 008 1 0 1.0219e+09 1.02216e+09 1.02318e+09 1.02345e+09 0
001 009 2 1 1.03522e+09 1.03547e+09 1.03649e+09 1.03662e+09 0
001 010 2 1 1.055e+09 1.05526e+09 1.05628e+09 1.0563e+09 0
001 011 1 0 1.06929e+09 1.06954e+09 1.07056e+09 1.07076e+09 0
001 012 1 1 1.08332e+09 1.08356e+09 1.08458e+09 1.08537e+09 0
000 013 1 0 1.0929e+09 1.09316e+09 1.09418e+09 1.09469e+09 1
001 014 2 0 1.09759e+09 1.09785e+09 1.09887e+09 1.1057e+09 0
000 015 2 1 1.11851e+09 1.11877e+09 1.11979e+09 1.12327e+09 1
001 016 1 0 1.13198e+09 1.13223e+09 1.13325e+09 1.13348e+09 0
001 017 2 1 1.15119e+09 1.15145e+09 1.15247e+09 1.15302e+09 0
001 018 2 1 1.15676e+09 1.15702e+09 1.15804e+09 1.16188e+09 0
001 019 1 1 1.16538e+09 1.16564e+09 1.16666e+09 1.17434e+09 0
000 020 1 1 1.1871e+09 1.18736e+09 1.18838e+09 1.1948e+09 1
000 021 1 0 1.21081e+09 1.21107e+09 1.21209e+09 1.2123e+09 1
001 022 2 0 1.23446e+09 1.23471e+09 1.23573e+09 1.23592e+09 0
000 023 2 1 1.24317e+09 1.24342e+09 1.24444e+09 1.24588e+09 1
001 024 1 0 1.26992e+09 1.27017e+09 1.27119e+09 1.27136e+09 0
001 025 2 1 1.27482e+09 1.27508e+09 1.2761e+09 1.27611e+09 0
001 026 1 0 1.29362e+09 1.29387e+09 1.29489e+09 1.29511e+09 0
001 027 1 0 1.32025e+09 1.32049e+09 1.32151e+09 1.32188e+09 0
001 028 2 1 1.3299e+09 1.33016e+09 1.33118e+09 1.33771e+09 0
001 029 2 0 1.3734e+09 1.37366e+09 1.37467e+09 1.38284e+09 0
000 030 2 0 1.39631e+09 1.39656e+09 1.39758e+09 1.39882e+09 1
000 031 2 0 1.40947e+09 1.40972e+09 1.41074e+09 1.41221e+09 1
000 032 2 1 1.42326e+09 1.42351e+09 1.42453e+09 1.42597e+09 1
001 033 2 1 1.43187e+09 1.43214e+09 1.43315e+09 1.43318e+09 0
001 034 2 1 1.4447e+09 1.44496e+09 1.44598e+09 1.44832e+09 0
001 035 2 0 1.45293e+09 1.45319e+09 1.45421e+09 1.45829e+09 0
000 036 2 0 1.46561e+09 1.46587e+09 1.46689e+09 1.46777e+09 1
000 037 2 0 1.48879e+09 1.48905e+09 1.49007e+09 1.49157e+09 1
000 038 2 1 1.50012e+09 1.50037e+09 1.50139e+09 1.50147e+09 1
001 039 2 1 1.51617e+09 1.51642e+09 1.51744e+09 1.51749e+09 0
001 040 2 1 1.52091e+09 1.52117e+09 1.52219e+09 1.52486e+09 0
001 041 2 0 1.54808e+09 1.54833e+09 1.54935e+09 1.55116e+09 0
000 042 2 0 1.55925e+09 1.55951e+09 1.56053e+09 1.56055e+09 1
000 043 2 0 1.5729e+09 1.57316e+09 1.57418e+09 1.57502e+09 1
000 044 2 0 1.583e+09 1.58325e+09 1.58427e+09 1.58691e+09 1
000 045 1 0 1.59689e+09 1.59714e+09 1.59816e+09 1.59859e+09 0
001 046 1 0 1.60249e+09 1.60275e+09 1.60377e+09 1.6046e+09 0
001 047 2 0 1.62806e+09 1.62832e+09 1.62934e+09 1.63058e+09 0
000 048 2 0 1.64022e+09 1.64047e+09 1.64149e+09 1.64198e+09 1
000 049 2 0 1.65467e+09 1.65493e+09 1.65595e+09 1.65725e+09 1
000 050 2 0 1.66673e+09 1.66698e+09 1.668e+09 1.66881e+09 1
000 051 1 1 1.67809e+09 1.67834e+09 1.67936e+09 1.67989e+09 0
000 052 2 0 1.68714e+09 1.68738e+09 1.6884e+09 1.68936e+09 0
000 053 2 0 1.70495e+09 1.70519e+09 1.70621e+09 1.70758e+09 0
000 054 2 0 1.71846e+09 1.71872e+09 1.71974e+09 1.72069e+09 0
000 055 2 0 1.73239e+09 1.73264e+09 1.73366e+09 1.73461e+09 0
000 056 2 0 1.76924e+09 1.76949e+09 1.77051e+09 1.77101e+09 0
000 057 1 0 1.77981e+09 1.78007e+09 1.78109e+09 1.78122e+09 0
001 058 1 0 1.79789e+09 1.79815e+09 1.79917e+09 1.7993e+09 0
001 059 1 0 1.80606e+09 1.80632e+09 1.80734e+09 1.81068e+09 0
001 060 1 0 1.82247e+09 1.82272e+09 1.82374e+09 1.8278e+09 0
001 061 1 0 1.85011e+09 1.85037e+09 1.85139e+09 1.85259e+09 0
001 062 2 1 1.85909e+09 1.85934e+09 1.86036e+09 1.86112e+09 0
001 063 2 1 1.87129e+09 1.87154e+09 1.87256e+09 1.87394e+09 0
001 064 1 0 1.88763e+09 1.88788e+09 1.8889e+09 1.8979e+09 0
001 065 1 1 1.91674e+09 1.917e+09 1.91802e+09 1.91888e+09 0
000 066 1 1 1.93291e+09 1.93316e+09 1.93418e+09 1.93654e+09 1
000 067 1 0 1.94418e+09 1.94443e+09 1.94545e+09 1.94634e+09 1
001 068 2 1 1.95504e+09 1.95529e+09 1.95631e+09 1.95635e+09 0
001 069 2 0 1.97592e+09 1.97617e+09 1.97719e+09 1.97738e+09 0
000 070 2 0 1.99377e+09 1.99402e+09 1.99504e+09 1.99558e+09 1
000 071 2 1 2.00826e+09 2.00853e+09 2.00955e+09 2.00956e+09 1
001 072 2 1 2.02056e+09 2.02081e+09 2.02182e+09 2.02185e+09 0
001 073 1 1 2.03415e+09 2.03441e+09 2.03543e+09 2.03616e+09 0
000 074 1 1 2.04321e+09 2.04347e+09 2.04449e+09 2.0446e+09 1
000 075 1 1 2.05331e+09 2.05357e+09 2.05459e+09 2.05542e+09 1
000 076 1 0 2.06767e+09 2.06792e+09 2.06894e+09 2.06916e+09 1
001 077 2 0 2.07696e+09 2.07721e+09 2.07823e+09 2.079e+09 0
000 078 2 0 2.09541e+09 2.09566e+09 2.09667e+09 2.09772e+09 1
000 079 2 1 2.11359e+09 2.11384e+09 2.11486e+09 2.11609e+09 1
001 080 2 0 2.14152e+09 2.14177e+09 2.14279e+09 2.14426e+09 0
000 081 2 0 2.15141e+09 2.15167e+09 2.15269e+09 2.15378e+09 1
000 082 2 0 2.1633e+09 2.16355e+09 2.16457e+09 2.1655e+09 1
000 083 2 0 2.18364e+09 2.1839e+09 2.18492e+09 2.18492e+09 1
000 084 2 0 2.19518e+09 2.19544e+09 2.19645e+09 2.19687e+09 0
000 085 2 0 2.20541e+09 2.20566e+09 2.20668e+09 2.20762e+09 0
000 086 2 0 2.21491e+09 2.21517e+09 2.21618e+09 2.21753e+09 0
000 087 2 0 2.22529e+09 2.22555e+09 2.22657e+09 2.22913e+09 0
000 088 2 0 2.23663e+09 2.23689e+09 2.23791e+09 2.23791e+09 0
000 089 1 0 2.24566e+09 2.24592e+09 2.24694e+09 2.24707e+09 0
001 090 1 0 2.26964e+09 2.2699e+09 2.27092e+09 2.27127e+09 0
001 091 2 0 2.28557e+09 2.28582e+09 2.28684e+09 2.28706e+09 0
000 092 2 0 2.29586e+09 2.29611e+09 2.29713e+09 2.29828e+09 1
000 093 2 0 2.30532e+09 2.30559e+09 2.30661e+09 2.30696e+09 1
000 094 2 1 2.34051e+09 2.34076e+09 2.34178e+09 2.34229e+09 1
001 095 1 0 2.34982e+09 2.35007e+09 2.35109e+09 2.35523e+09 0
001 096 1 1 2.3609e+09 2.36117e+09 2.36219e+09 2.36327e+09 0
000 097 1 0 2.37553e+09 2.3758e+09 2.37682e+09 2.37696e+09 1
001 098 1 0 2.40204e+09 2.4023e+09 2.40332e+09 2.40335e+09 0
001 099 2 0 2.41473e+09 2.415e+09 2.41601e+09 2.41662e+09 0
000 100 2 1 2.42601e+09 2.42626e+09 2.42728e+09 2.42795e+09 1
001 101 1 1 2.43643e+09 2.43668e+09 2.4377e+09 2.43795e+09 0
000 102 1 0 2.44639e+09 2.44664e+09 2.44766e+09 2.44803e+09 1
001 103 2 0 2.45599e+09 2.45625e+09 2.45727e+09 2.47162e+09 0
000 104 2 0 2.47927e+09 2.47953e+09 2.48055e+09 2.48056e+09 1
000 105 2 0 2.49247e+09 2.49272e+09 2.49374e+09 2.49475e+09 1
000 106 2 0 2.51726e+09 2.51752e+09 2.51854e+09 2.52365e+09 1
000 107 1 0 2.54002e+09 2.54027e+09 2.54129e+09 2.5413e+09 0
001 108 1 1 2.56351e+09 2.56376e+09 2.56478e+09 2.56715e+09 0
000 109 1 0 2.57688e+09 2.57713e+09 2.57815e+09 2.57848e+09 1
001 110 1 0 2.58256e+09 2.58282e+09 2.58384e+09 2.58877e+09 0
001 111 2 0 2.5941e+09 2.59437e+09 2.59539e+09 2.59811e+09 0
000 112 2 0 2.60537e+09 2.60562e+09 2.60664e+09 2.61057e+09 1
000 113 2 1 2.62592e+09 2.62618e+09 2.6272e+09 2.62784e+09 1
001 114 2 0 2.6409e+09 2.64114e+09 2.64216e+09 2.64831e+09 0
000 115 2 0 2.65746e+09 2.65772e+09 2.65874e+09 2.65965e+09 1
000 116 2 0 2.66832e+09 2.66858e+09 2.6696e+09 2.67072e+09 1
000 117 2 0 2.67788e+09 2.67814e+09 2.67916e+09 2.68319e+09 1
000 118 1 1 2.69118e+09 2.69145e+09 2.69246e+09 2.69276e+09 0
000 119 2 0 2.70108e+09 2.70133e+09 2.70235e+09 2.70303e+09 0
000 120 1 0 2.71166e+09 2.71191e+09 2.71293e+09 2.71303e+09 0
001 121 1 1 2.72398e+09 2.72423e+09 2.72525e+09 2.72723e+09 0
000 122 1 0 2.73533e+09 2.73558e+09 2.7366e+09 2.73667e+09 1
001 123 2 0 2.74375e+09 2.744e+09 2.74502e+09 2.74707e+09 0
000 124 2 0 2.75427e+09 2.75452e+09 2.75554e+09 2.75631e+09 1
000 125 2 0 2.76373e+09 2.76399e+09 2.76501e+09 2.78048e+09 1
000 126 2 1 2.79656e+09 2.7968e+09 2.79782e+09 2.79782e+09 1
001 127 1 0 2.81024e+09 2.81048e+09 2.8115e+09 2.81172e+09 0
001 128 1 0 2.81982e+09 2.82008e+09 2.8211e+09 2.82728e+09 0
001 129 1 0 2.82985e+09 2.83011e+09 2.83113e+09 2.83426e+09 0
001 130 2 0 2.8456e+09 2.84587e+09 2.84688e+09 2.8469e+09 0
000 131 2 1 2.85758e+09 2.85787e+09 2.85889e+09 2.86449e+09 1
001 132 1 1 2.87407e+09 2.87433e+09 2.87535e+09 2.87561e+09 0
000 133 1 0 2.88272e+09 2.88297e+09 2.88399e+09 2.88829e+09 1
001 134 1 0 2.89774e+09 2.89799e+09 2.89901e+09 2.90047e+09 0
001 135 2 0 2.9197e+09 2.91995e+09 2.92097e+09 2.92169e+09 0
000 136 2 0 2.93496e+09 2.93521e+09 2.93623e+09 2.93774e+09 1
000 137 2 1 2.94687e+09 2.94712e+09 2.94814e+09 2.94943e+09 1
001 138 2 0 2.9593e+09 2.95955e+09 2.96057e+09 2.96522e+09 0
000 139 2 1 2.97359e+09 2.97385e+09 2.97487e+09 2.97602e+09 1
001 140 1 1 2.98649e+09 2.98675e+09 2.98777e+09 2.99079e+09 0
000 141 1 0 3.00022e+09 3.00046e+09 3.00148e+09 3.00474e+09 1
001 142 2 0 3.01412e+09 3.01438e+09 3.0154e+09 3.01636e+09 0
000 143 2 0 3.02635e+09 3.02661e+09 3.02763e+09 3.02771e+09 1
000 144 2 0 3.03539e+09 3.03565e+09 3.03667e+09 3.03738e+09 1
000 145 2 0 3.0479e+09 3.04816e+09 3.04918e+09 3.04997e+09 1
000 146 1 0 3.0587e+09 3.05896e+09 3.05998e+09 3.06041e+09 0
001 147 1 0 3.06953e+09 3.06978e+09 3.0708e+09 3.07215e+09 0
001 148 1 1 3.08185e+09 3.0821e+09 3.08312e+09 3.08948e+09 0
000 149 1 0 3.10216e+09 3.1024e+09 3.10342e+09 3.1077e+09 1
001 150 2 1 3.11012e+09 3.11038e+09 3.1114e+09 3.11386e+09 0
001 151 2 0 3.12616e+09 3.12641e+09 3.12743e+09 3.12753e+09 0
000 152 2 1 3.13513e+09 3.13537e+09 3.13639e+09 3.13641e+09 1
001 153 1 0 3.1403e+09 3.14055e+09 3.14157e+09 3.14869e+09 0
001 154 2 0 3.16436e+09 3.16461e+09 3.16562e+09 3.16723e+09 0
000 155 2 0 3.18033e+09 3.18059e+09 3.1816e+09 3.18216e+09 1
000 156 2 0 3.19251e+09 3.19275e+09 3.19377e+09 3.19554e+09 1
000 157 2 0 3.20603e+09 3.20629e+09 3.20731e+09 3.20881e+09 1
000 158 1 0 3.21796e+09 3.21821e+09 3.21923e+09 3.21969e+09 0
001 159 1 0 3.22784e+09 3.22809e+09 3.22911e+09 3.23069e+09 0
001 160 1 1 3.24149e+09 3.24174e+09 3.24276e+09 3.24615e+09 0
000 161 1 0 3.25662e+09 3.25688e+09 3.2579e+09 3.25802e+09 1
001 162 2 0 3.26489e+09 3.26516e+09 3.26617e+09 3.26655e+09 0
000 163 2 0 3.27543e+09 3.27569e+09 3.27671e+09 3.27757e+09 1
000 164 2 0 3.28487e+09 3.28511e+09 3.28613e+09 3.28724e+09 1
000 165 2 0 3.30401e+09 3.30426e+09 3.30528e+09 3.30624e+09 1
000 166 1 0 3.31402e+09 3.31427e+09 3.31529e+09 3.31532e+09 0
001 167 2 1 3.32148e+09 3.32174e+09 3.32276e+09 3.33121e+09 0
001 168 1 0 3.33394e+09 3.33419e+09 3.33521e+09 3.34307e+09 0
001 169 1 0 3.34583e+09 3.34608e+09 3.3471e+09 3.34727e+09 0
001 170 2 0 3.35644e+09 3.35668e+09 3.3577e+09 3.36073e+09 0
000 171 2 0 3.36798e+09 3.36823e+09 3.36925e+09 3.36932e+09 1
000 172 2 0 3.38178e+09 3.38204e+09 3.38306e+09 3.3834e+09 1
000 173 2 0 3.39457e+09 3.39482e+09 3.39584e+09 3.41936e+09 1
000 174 2 1 3.42669e+09 3.42694e+09 3.42796e+09 3.42881e+09 0
001 175 1 0 3.43693e+09 3.43718e+09 3.4382e+09 3.45168e+09 0
001 176 1 0 3.46535e+09 3.4656e+09 3.46662e+09 3.46668e+09 0
001 177 1 1 3.47287e+09 3.47312e+09 3.47414e+09 3.47609e+09 0
000 178 1 0 3.48369e+09 3.48393e+09 3.48495e+09 3.48519e+09 1
001 179 1 0 3.4961e+09 3.49635e+09 3.49737e+09 3.49742e+09 0
001 180 2 0 3.50616e+09 3.50642e+09 3.50744e+09 3.50884e+09 0
000 181 2 0 3.51956e+09 3.51981e+09 3.52083e+09 3.52124e+09 1
000 182 2 0 3.53355e+09 3.5338e+09 3.53481e+09 3.53612e+09 1
000 183 2 0 3.54737e+09 3.54762e+09 3.54863e+09 3.54965e+09 1
000 184 1 0 3.55863e+09 3.55889e+09 3.55991e+09 3.56037e+09 0
001 185 1 1 3.56624e+09 3.56648e+09 3.5675e+09 3.57238e+09 0
000 186 1 0 3.58402e+09 3.58427e+09 3.58529e+09 3.58754e+09 1
001 187 2 0 3.59264e+09 3.5929e+09 3.59392e+09 3.59606e+09 0
000 188 2 0 3.60725e+09 3.60752e+09 3.60853e+09 3.6094e+09 1
000 189 2 0 3.6173e+09 3.61755e+09 3.61857e+09 3.61913e+09 1
000 190 2 0 3.65115e+09 3.6514e+09 3.65242e+09 3.65273e+09 1
000 191 2 0 3.66258e+09 3.66283e+09 3.66385e+09 3.66488e+09 0
000 192 2 1 3.68281e+09 3.68307e+09 3.68409e+09 3.68416e+09 0
001 193 1 1 3.68821e+09 3.68845e+09 3.68947e+09 3.70577e+09 0
000 194 1 1 3.71879e+09 3.71904e+09 3.72006e+09 3.72054e+09 1
000 195 1 0 3.72932e+09 3.72957e+09 3.73059e+09 3.73113e+09 1
001 196 2 1 3.7407e+09 3.74096e+09 3.74198e+09 3.74315e+09 0
001 197 2 1 3.75477e+09 3.75502e+09 3.75604e+09 3.75706e+09 0
001 198 1 0 3.76392e+09 3.76416e+09 3.76518e+09 3.77206e+09 0
001 199 1 0 3.77711e+09 3.77736e+09 3.77838e+09 3.78183e+09 0
001 200 2 1 3.78794e+09 3.7882e+09 3.78922e+09 3.79334e+09 0
001 201 1 1 3.80503e+09 3.80531e+09 3.80632e+09 3.8137e+09 0
000 202 1 0 3.83277e+09 3.83306e+09 3.83408e+09 3.8341e+09 1
001 203 2 0 3.84044e+09 3.84069e+09 3.84171e+09 3.84172e+09 0
000 204 2 0 3.85194e+09 3.8522e+09 3.85322e+09 3.85427e+09 1
000 205 2 0 3.86344e+09 3.8637e+09 3.86472e+09 3.86527e+09 1
000 206 2 0 3.87375e+09 3.87401e+09 3.87503e+09 3.87531e+09 1
000 207 1 0 3.8893e+09 3.88956e+09 3.89058e+09 3.89075e+09 0
001 208 2 0 3.89399e+09 3.89424e+09 3.89526e+09 3.89602e+09 0
000 209 2 0 3.90322e+09 3.90348e+09 3.9045e+09 3.90451e+09 1
000 210 2 1 3.91255e+09 3.91281e+09 3.91383e+09 3.91464e+09 1
001 211 1 0 3.92155e+09 3.92181e+09 3.92283e+09 3.92381e+09 0
001 212 2 0 3.93082e+09 3.93107e+09 3.93209e+09 3.93452e+09 0
000 213 2 0 3.94524e+09 3.94549e+09 3.94651e+09 3.94695e+09 1
000 214 2 0 3.95691e+09 3.95716e+09 3.95818e+09 3.95861e+09 1
000 215 2 0 3.9658e+09 3.96606e+09 3.96708e+09 3.96796e+09 1
000 216 1 0 3.97679e+09 3.97704e+09 3.97806e+09 3.97832e+09 0
001 217 2 1 3.98398e+09 3.98424e+09 3.98526e+09 3.98668e+09 0
001 218 1 1 3.99453e+09 3.99477e+09 3.99579e+09 3.99648e+09 0
000 219 1 0 4.00581e+09 4.00605e+09 4.00707e+09 4.00732e+09 1
001 220 2 0 4.0141e+09 4.01435e+09 4.01537e+09 4.02057e+09 0
000 221 2 0 4.03596e+09 4.03621e+09 4.03723e+09 4.03827e+09 1
000 222 2 0 4.0459e+09 4.04615e+09 4.04717e+09 4.04824e+09 1
000 223 2 1 4.05794e+09 4.05819e+09 4.05921e+09 4.05927e+09 1
001 224 1 0 4.06847e+09 4.06872e+09 4.06974e+09 4.06979e+09 0
001 225 2 0 4.07732e+09 4.07757e+09 4.07859e+09 4.07886e+09 0
000 226 2 1 4.09324e+09 4.09349e+09 4.09451e+09 4.09523e+09 1
001 227 2 0 4.09974e+09 4.1e+09 4.10102e+09 4.10412e+09 0
000 228 2 0 4.11316e+09 4.1134e+09 4.11442e+09 4.11496e+09 1
000 229 2 0 4.12756e+09 4.12782e+09 4.12884e+09 4.13135e+09 1
000 230 2 0 4.14911e+09 4.14936e+09 4.15038e+09 4.15221e+09 1
000 231 2 0 4.18121e+09 4.18146e+09 4.18248e+09 4.18279e+09 0
000 232 2 0 4.19025e+09 4.1905e+09 4.19152e+09 4.19206e+09 0
000 233 1 0 4.20093e+09 4.20119e+09 4.20221e+09 4.20791e+09 0
001 234 2 0 4.22327e+09 4.22352e+09 4.22454e+09 4.22529e+09 0
000 235 2 0 4.23453e+09 4.23478e+09 4.2358e+09 4.23637e+09 1
000 236 2 0 4.24511e+09 4.24538e+09 4.24639e+09 4.24782e+09 1
000 237 2 1 4.25574e+09 4.256e+09 4.25702e+09 4.25709e+09 1
001 238 2 0 4.26384e+09 4.26409e+09 4.26511e+09 4.26593e+09 0
000 239 2 0 4.27315e+09 4.27341e+09 4.27443e+09 4.27445e+09 1
000 240 2 0 4.2848e+09 4.28506e+09 4.28608e+09 4.28684e+09 1
000 241 2 0 6.49832e+06 6.76073e+06 7.77975e+06 7.8332e+06 1
000 242 1 0 2.27738e+07 2.30215e+07 2.40405e+07 2.45309e+07 0
001 243 2 0 3.52911e+07 3.55415e+07 3.65606e+07 3.72204e+07 0
000 244 2 0 5.64357e+07 5.66974e+07 5.77165e+07 5.8337e+07 1
000 245 2 0 6.87964e+07 6.90454e+07 7.00644e+07 7.01329e+07 1
000 246 2 1 7.91071e+07 7.93634e+07 8.03824e+07 8.10344e+07 1
001 247 1 0 8.65127e+07 8.67673e+07 8.77863e+07 8.79995e+07 0
001 248 1 0 9.40247e+07 9.42906e+07 9.53096e+07 9.8338e+07 0
001 249 1 1 1.00994e+08 1.01259e+08 1.02278e+08 1.02315e+08 0
000 250 1 0 1.13937e+08 1.14192e+08 1.15211e+08 1.15445e+08 1
001 251 2 1 1.18267e+08 1.18519e+08 1.19538e+08 1.21795e+08 0
001 252 1 1 1.26297e+08 1.26557e+08 1.27577e+08 1.30638e+08 0
000 253 1 0 1.4917e+08 1.49429e+08 1.50448e+08 1.50737e+08 1
001 254 2 1 1.5589e+08 1.56144e+08 1.57164e+08 1.58173e+08 0
001 255 1 0 1.62871e+08 1.63131e+08 1.6415e+08 1.73665e+08 0
001 256 1 1 1.77692e+08 1.77946e+08 1.78965e+08 1.80988e+08 0
000 257 1 0 1.95877e+08 1.9613e+08 1.97149e+08 1.97586e+08 1
001 258 1 0 2.01819e+08 2.02074e+08 2.03093e+08 2.06728e+08 0
001 259 1 0 2.10223e+08 2.10482e+08 2.11501e+08 2.17644e+08 0
001 260 1 0 2.223e+08 2.22556e+08 2.23575e+08 2.23636e+08 0
001 261 1 0 2.28424e+08 2.28681e+08 2.297e+08 2.36112e+08 0
001 262 1 0 2.4837e+08 2.48626e+08 2.49645e+08 2.50441e+08 0
001 263 1 1 2.57929e+08 2.58191e+08 2.5921e+08 2.62854e+08 0
000 264 1 1 2.71141e+08 2.71407e+08 2.72426e+08 2.72485e+08 1
000 265 1 0 2.8173e+08 2.81992e+08 2.83011e+08 2.84016e+08 1
001 266 2 0 2.88324e+08 2.88585e+08 2.89604e+08 2.8993e+08 0
000 267 2 0 2.98836e+08 2.99081e+08 3.001e+08 3.0011e+08 1
000 268 2 0 3.07396e+08 3.07656e+08 3.08675e+08 3.10062e+08 1
000 269 2 0 3.1817e+08 3.18428e+08 3.19447e+08 3.20795e+08 1
000 270 2 0 3.28645e+08 3.28904e+08 3.29923e+08 3.31269e+08 0
000 271 2 0 3.45146e+08 3.4541e+08 3.46429e+08 3.5127e+08 0
000 272 2 0 3.75921e+08 3.76173e+08 3.77192e+08 3.78331e+08 0
000 273 2 0 3.89231e+08 3.89478e+08 3.90497e+08 3.92802e+08 0
000 274 1 1 4.00148e+08 4.00404e+08 4.01423e+08 4.01453e+08 0
000 275 2 1 4.16044e+08 4.16302e+08 4.17321e+08 4.23672e+08 0
001 276 2 0 4.34298e+08 4.34558e+08 4.35578e+08 4.36435e+08 0
000 277 2 1 4.43617e+08 4.43885e+08 4.44904e+08 4.48157e+08 1
001 278 2 1 4.50901e+08 4.51165e+08 4.52184e+08 4.53564e+08 0
001 279 1 1 4.58523e+08 4.58775e+08 4.59794e+08 4.60317e+08 0
000 280 1 1 4.67489e+08 4.67744e+08 4.68763e+08 4.69437e+08 1
000 281 1 0 4.76942e+08 4.77196e+08 4.78215e+08 4.78287e+08 1
001 282 2 0 4.83731e+08 4.8398e+08 4.84999e+08 4.93699e+08 0
000 283 2 0 5.00775e+08 5.01037e+08 5.02056e+08 5.04821e+08 1
000 284 2 0 5.19709e+08 5.1996e+08 5.20979e+08 5.21805e+08 1
000 285 2 0 5.39758e+08 5.40008e+08 5.41027e+08 5.41213e+08 1
000 286 2 1 5.70906e+08 5.7115e+08 5.72169e+08 5.76368e+08 0
001 287 1 1 5.81422e+08 5.8168e+08 5.82699e+08 5.83708e+08 0
000 288 1 1 5.90812e+08 5.91067e+08 5.92086e+08 5.93003e+08 1
000 289 1 1 6.00407e+08 6.00663e+08 6.01682e+08 6.08902e+08 1
000 290 1 1 6.16135e+08 6.16396e+08 6.17415e+08 6.18267e+08 1
000 291 1 1 6.26977e+08 6.27229e+08 6.28248e+08 6.30441e+08 0
000 292 2 1 6.37657e+08 6.37907e+08 6.38926e+08 6.39159e+08 0
001 293 1 1 6.51514e+08 6.5177e+08 6.52789e+08 6.53954e+08 0
000 294 1 0 6.62938e+08 6.63192e+08 6.64211e+08 6.65493e+08 1
001 295 2 1 6.68343e+08 6.68585e+08 6.69604e+08 6.69956e+08 0
001 296 2 0 6.77701e+08 6.77957e+08 6.78976e+08 6.85176e+08 0
000 297 2 0 6.93133e+08 6.93383e+08 6.94402e+08 6.97041e+08 1
000 298 2 0 7.06065e+08 7.06317e+08 7.07336e+08 7.08658e+08 1
000 299 2 0 7.16877e+08 7.17126e+08 7.18145e+08 7.18933e+08 1
000 300 2 0 7.28073e+08 7.28324e+08 7.29343e+08 7.29489e+08 0
000 301 2 1 7.37136e+08 7.37386e+08 7.38405e+08 7.4182e+08 0
001 302 1 0 7.54979e+08 7.55234e+08 7.56253e+08 7.62851e+08 0
001 303 2 0 7.71405e+08 7.71659e+08 7.72678e+08 7.72736e+08 0
000 304 2 1 7.82409e+08 7.82663e+08 7.83683e+08 7.85705e+08 1
001 305 1 1 7.88517e+08 7.88768e+08 7.89787e+08 7.99073e+08 0
000 306 1 0 8.07196e+08 8.07446e+08 8.08465e+08 8.13071e+08 1
001 307 1 1 8.2138e+08 8.21623e+08 8.22642e+08 8.25386e+08 0
000 308 1 1 8.32709e+08 8.32957e+08 8.33976e+08 8.3616e+08 1
000 309 1 0 8.43203e+08 8.43462e+08 8.44481e+08 8.47528e+08 1
001 310 1 0 8.51527e+08 8.51778e+08 8.52797e+08 8.56117e+08 0
001 311 2 1 8.58672e+08 8.58916e+08 8.59935e+08 8.60022e+08 0
001 312 2 0 8.64103e+08 8.64346e+08 8.65365e+08 8.65804e+08 0
000 313 2 0 8.74829e+08 8.75079e+08 8.76098e+08 8.77629e+08 1
000 314 2 0 8.86217e+08 8.86467e+08 8.87486e+08 8.90127e+08 1
000 315 2 1 9.01363e+08 9.01611e+08 9.0263e+08 9.06415e+08 1
001 316 1 0 9.15865e+08 9.1612e+08 9.17139e+08 9.17762e+08 0
001 317 2 1 9.27091e+08 9.27347e+08 9.28366e+08 9.31471e+08 0
001 318 1 1 9.36178e+08 9.36436e+08 9.37455e+08 9.37961e+08 0
000 319 1 1 9.50141e+08 9.50386e+08 9.51405e+08 9.53116e+08 1
000 320 1 1 9.60263e+08 9.60526e+08 9.61545e+08 9.72933e+08 1
000 321 1 0 9.86735e+08 9.86988e+08 9.88007e+08 9.9053e+08 1
001 322 1 1 9.93171e+08 9.9342e+08 9.94439e+08 9.96911e+08 0
000 323 1 0 1.00685e+09 1.0071e+09 1.00812e+09 1.00923e+09 1
001 324 2 1 1.01237e+09 1.01263e+09 1.01365e+09 1.06817e+09 0
001 325 1 0 1.07168e+09 1.07194e+09 1.07296e+09 1.07333e+09 0
001 326 1 0 1.08009e+09 1.08037e+09 1.08139e+09 1.08202e+09 0
001 327 1 0 1.08612e+09 1.08637e+09 1.08739e+09 1.09158e+09 0
001 328 1 1 1.09717e+09 1.09742e+09 1.09844e+09 1.15245e+09 0
000 329 1 0 1.16215e+09 1.1624e+09 1.16342e+09 1.16395e+09 1
001 330 1 0 1.16685e+09 1.1671e+09 1.16812e+09 1.17062e+09 0
001 331 2 1 1.1748e+09 1.17506e+09 1.17607e+09 1.1798e+09 0
001 332 2 1 1.1839e+09 1.18415e+09 1.18517e+09 1.19596e+09 0
001 333 2 0 1.19875e+09 1.199e+09 1.20002e+09 1.42983e+09 0
000 334 2 0 1.44061e+09 1.44087e+09 1.44189e+09 1.44649e+09 1
000 335 2 0 1.45389e+09 1.45414e+09 1.45515e+09 1.45925e+09 1
000 336 2 0 1.47168e+09 1.47193e+09 1.47295e+09 1.49242e+09 1
000 337 2 0 1.49974e+09 1.49999e+09 1.50101e+09 1.51625e+09 0
000 338 1 0 1.52381e+09 1.52406e+09 1.52508e+09 1.56555e+09 0
001 339 2 0 1.57309e+09 1.57333e+09 1.57435e+09 1.57581e+09 0
000 340 2 0 1.58329e+09 1.58355e+09 1.58457e+09 1.58855e+09 1
000 341 2 1 1.60154e+09 1.60183e+09 1.60285e+09 1.62351e+09 1
001 342 2 1 1.62919e+09 1.62944e+09 1.63046e+09 1.6306e+09 0
001 343 1 0 1.63768e+09 1.63794e+09 1.63896e+09 1.63959e+09 0
001 344 1 0 1.64764e+09 1.64789e+09 1.64891e+09 1.67913e+09 0
001 345 2 1 1.68211e+09 1.68236e+09 1.68337e+09 1.69373e+09 0
001 346 1 1 1.70152e+09 1.70176e+09 1.70278e+09 1.7642e+09 0
000 347 1 1 1.77123e+09 1.77148e+09 1.7725e+09 1.77271e+09 1
000 348 1 0 1.78017e+09 1.78042e+09 1.78144e+09 1.79224e+09 1
001 349 2 0 1.79468e+09 1.79494e+09 1.79596e+09 1.79853e+09 0
000 350 2 1 1.80591e+09 1.80617e+09 1.80719e+09 1.82748e+09 1
001 351 2 1 1.83144e+09 1.83169e+09 1.83271e+09 1.84866e+09 0
001 352 1 0 1.85366e+09 1.85391e+09 1.85493e+09 1.87257e+09 0
001 353 1 0 1.87689e+09 1.87714e+09 1.87816e+09 1.87824e+09 0
001 354 1 0 1.88487e+09 1.88512e+09 1.88614e+09 1.88654e+09 0
001 355 1 1 1.89053e+09 1.89078e+09 1.8918e+09 1.8919e+09 0
000 356 1 1 1.9015e+09 1.90175e+09 1.90276e+09 1.90326e+09 1
000 357 1 1 1.91064e+09 1.9109e+09 1.91192e+09 1.91233e+09 1
000 358 1 1 1.91946e+09 1.91971e+09 1.92073e+09 1.92123e+09 1
000 359 2 1 1.94433e+09 1.94457e+09 1.94559e+09 1.94562e+09 0
001 360 1 1 1.94903e+09 1.94929e+09 1.95031e+09 1.95042e+09 0
000 361 1 0 1.95877e+09 1.95901e+09 1.96003e+09 1.9608e+09 1
001 362 1 0 1.96408e+09 1.96433e+09 1.96535e+09 1.96712e+09 0
001 363 1 0 1.97274e+09 1.973e+09 1.97402e+09 1.97479e+09 0
001 364 1 1 1.98601e+09 1.98625e+09 1.98727e+09 1.98739e+09 0
000 365 1 0 2.00253e+09 2.00279e+09 2.00381e+09 2.00479e+09 1
001 366 1 0 2.01189e+09 2.01215e+09 2.01317e+09 2.01724e+09 0
001 367 1 1 2.02149e+09 2.02174e+09 2.02276e+09 2.02297e+09 0
000 368 1 0 2.03065e+09 2.0309e+09 2.03192e+09 2.03305e+09 1
001 369 1 0 2.03727e+09 2.03752e+09 2.03854e+09 2.04055e+09 0
001 370 2 0 2.04551e+09 2.04575e+09 2.04677e+09 2.04863e+09 0
000 371 2 0 2.05626e+09 2.0565e+09 2.05752e+09 2.05873e+09 1
000 372 2 0 2.06684e+09 2.06709e+09 2.06811e+09 2.07005e+09 1
000 373 2 0 2.08731e+09 2.08756e+09 2.08858e+09 2.09042e+09 1
000 374 2 0 2.09789e+09 2.09815e+09 2.09917e+09 2.10501e+09 0
000 375 1 0 2.11586e+09 2.11612e+09 2.11713e+09 2.12451e+09 0
001 376 2 1 2.13008e+09 2.13033e+09 2.13135e+09 2.13138e+09 0
001 377 2 0 2.1457e+09 2.14595e+09 2.14697e+09 2.1486e+09 0
000 378 2 1 2.15607e+09 2.15633e+09 2.15735e+09 2.17267e+09 1
001 379 1 0 2.17605e+09 2.17629e+09 2.17731e+09 2.17767e+09 0
001 380 1 0 2.18069e+09 2.18093e+09 2.18195e+09 2.18493e+09 0
001 381 1 0 2.18957e+09 2.18982e+09 2.19084e+09 2.20904e+09 0
001 382 2 1 2.21271e+09 2.21297e+09 2.21398e+09 2.2149e+09 0
001 383 2 0 2.21847e+09 2.21873e+09 2.21975e+09 2.21977e+09 0
000 384 2 1 2.2327e+09 2.23295e+09 2.23397e+09 2.23592e+09 1
001 385 2 0 2.23878e+09 2.23904e+09 2.24006e+09 2.24164e+09 0
000 386 2 0 2.25165e+09 2.2519e+09 2.25292e+09 2.26053e+09 1
000 387 2 1 2.27009e+09 2.27034e+09 2.27136e+09 2.29036e+09 1
001 388 1 0 2.30537e+09 2.30563e+09 2.30664e+09 2.30669e+09 0
001 389 2 1 2.31039e+09 2.31064e+09 2.31166e+09 2.34093e+09 0
001 390 1 0 2.34336e+09 2.34362e+09 2.34463e+09 2.34504e+09 0
001 391 2 1 2.34981e+09 2.35007e+09 2.35109e+09 2.41232e+09 0
001 392 1 0 2.41615e+09 2.41641e+09 2.41743e+09 2.42259e+09 0
001 393 2 0 2.43277e+09 2.43301e+09 2.43403e+09 2.48048e+09 0
000 394 2 0 2.4877e+09 2.48794e+09 2.48896e+09 2.49157e+09 1
000 395 2 0 2.50161e+09 2.50186e+09 2.50287e+09 2.51409e+09 1
000 396 2 0 2.52275e+09 2.523e+09 2.52402e+09 2.54547e+09 1
000 397 2 0 2.55285e+09 2.5531e+09 2.55412e+09 2.55857e+09 0
000 398 2 0 2.56603e+09 2.56628e+09 2.5673e+09 2.59003e+09 0
000 399 2 0 2.59807e+09 2.59833e+09 2.59935e+09 2.60185e+09 0
000 400 2 0 2.60901e+09 2.60926e+09 2.61028e+09 2.65136e+09 0
000 401 1 0 2.6585e+09 2.65876e+09 2.65978e+09 2.66373e+09 0
001 402 2 0 2.67104e+09 2.6713e+09 2.67232e+09 2.69742e+09 0
000 403 2 0 2.7047e+09 2.70497e+09 2.70599e+09 2.71103e+09 1
000 404 2 0 2.72074e+09 2.72099e+09 2.72201e+09 2.72553e+09 1
000 405 2 0 2.73287e+09 2.73313e+09 2.73414e+09 2.7385e+09 1
000 406 1 0 2.74597e+09 2.74621e+09 2.74723e+09 2.74723e+09 0
001 407 2 0 2.75457e+09 2.75482e+09 2.75584e+09 2.76503e+09 0
000 408 2 0 2.77472e+09 2.77497e+09 2.77599e+09 2.79618e+09 1
000 409 2 0 2.80324e+09 2.80349e+09 2.80451e+09 2.81011e+09 1
000 410 2 0 2.81798e+09 2.81823e+09 2.81925e+09 2.86175e+09 1
000 411 2 0 2.86898e+09 2.86924e+09 2.87026e+09 2.87541e+09 0
000 412 2 0 2.88296e+09 2.88321e+09 2.88423e+09 2.939e+09 0
000 413 1 0 2.94631e+09 2.94657e+09 2.94759e+09 2.94759e+09 0
001 414 1 0 2.9521e+09 2.95235e+09 2.95337e+09 2.95859e+09 0
001 415 2 0 2.96126e+09 2.96151e+09 2.96253e+09 2.96259e+09 0
000 416 2 1 2.96993e+09 2.97017e+09 2.97119e+09 2.99931e+09 1
001 417 2 0 3.00338e+09 3.00363e+09 3.00465e+09 3.00933e+09 0
000 418 2 0 3.01669e+09 3.01695e+09 3.01797e+09 3.01798e+09 1
000 419 2 0 3.02528e+09 3.02553e+09 3.02654e+09 3.03004e+09 1
000 420 2 0 3.03721e+09 3.03745e+09 3.03847e+09 3.0635e+09 1
000 421 1 0 3.07607e+09 3.07632e+09 3.07734e+09 3.08915e+09 0
001 422 2 0 3.0941e+09 3.09435e+09 3.09537e+09 3.11784e+09 0
000 423 2 0 3.12508e+09 3.12533e+09 3.12635e+09 3.13128e+09 1
000 424 2 1 3.13859e+09 3.13885e+09 3.13986e+09 3.14861e+09 1
001 425 2 0 3.15273e+09 3.15299e+09 3.15401e+09 3.16217e+09 0
000 426 2 0 3.16926e+09 3.16951e+09 3.17053e+09 3.19119e+09 1
000 427 2 0 3.19832e+09 3.19857e+09 3.19958e+09 3.19959e+09 1
000 428 2 0 3.20686e+09 3.2071e+09 3.20812e+09 3.23339e+09 1
000 429 2 0 3.24102e+09 3.24126e+09 3.24228e+09 3.24461e+09 0
000 430 2 0 3.25626e+09 3.25651e+09 3.25753e+09 3.26547e+09 0
000 431 2 0 3.27262e+09 3.27288e+09 3.2739e+09 3.2974e+09 0
000 432 2 0 3.30477e+09 3.30503e+09 3.30605e+09 3.30738e+09 0
000 433 1 0 3.31526e+09 3.31552e+09 3.31653e+09 3.33584e+09 0
001 434 1 0 3.33952e+09 3.33977e+09 3.34079e+09 3.34269e+09 0
001 435 2 0 3.34685e+09 3.3471e+09 3.34812e+09 3.35249e+09 0
000 436 2 0 3.3598e+09 3.36005e+09 3.36107e+09 3.37025e+09 1
000 437 2 0 3.37744e+09 3.37769e+09 3.3787e+09 3.37898e+09 1
000 438 2 0 3.38681e+09 3.38705e+09 3.38807e+09 3.39501e+09 1
000 439 1 1 3.40242e+09 3.40266e+09 3.40368e+09 3.43838e+09 0
000 440 1 1 3.45111e+09 3.45136e+09 3.45238e+09 3.45588e+09 0
000 441 2 0 3.46313e+09 3.46337e+09 3.46439e+09 3.50524e+09 0
000 442 2 0 3.51261e+09 3.51287e+09 3.51389e+09 3.51389e+09 0
000 443 1 0 3.5219e+09 3.52216e+09 3.52318e+09 3.54602e+09 0
001 444 1 1 3.56198e+09 3.56224e+09 3.56326e+09 3.56515e+09 0
000 445 1 0 3.57219e+09 3.57243e+09 3.57345e+09 3.57586e+09 1
001 446 1 1 3.58016e+09 3.58042e+09 3.58144e+09 3.59182e+09 0
000 447 1 0 3.59931e+09 3.59956e+09 3.60058e+09 3.63266e+09 1
001 448 2 0 3.63983e+09 3.64007e+09 3.64109e+09 3.64258e+09 0
000 449 2 0 3.64986e+09 3.65013e+09 3.65114e+09 3.66641e+09 1
000 450 2 0 3.67346e+09 3.6737e+09 3.67472e+09 3.6981e+09 1
000 451 2 0 3.70586e+09 3.70611e+09 3.70713e+09 3.71076e+09 1
000 452 2 1 3.72018e+09 3.72043e+09 3.72145e+09 3.7791e+09 0
001 453 1 0 3.78313e+09 3.78338e+09 3.7844e+09 3.78452e+09 0
001 454 1 0 3.7917e+09 3.79196e+09 3.79298e+09 3.80137e+09 0
001 455 1 1 3.80384e+09 3.80409e+09 3.80511e+09 3.8174e+09 0
000 456 1 1 3.82588e+09 3.82613e+09 3.82715e+09 3.8337e+09 1
000 457 1 0 3.84118e+09 3.84143e+09 3.84245e+09 3.87296e+09 1
001 458 1 0 3.87808e+09 3.87833e+09 3.87935e+09 3.88859e+09 0
001 459 2 1 3.89502e+09 3.89526e+09 3.89628e+09 3.95272e+09 0
001 460 1 0 3.95864e+09 3.95889e+09 3.95991e+09 3.96402e+09 0
001 461 2 0 3.97197e+09 3.97221e+09 3.97323e+09 4.00701e+09 0
000 462 2 0 4.01418e+09 4.01443e+09 4.01545e+09 4.0184e+09 1
000 463 2 0 4.02584e+09 4.02608e+09 4.0271e+09 4.02865e+09 1
000 464 2 0 4.0359e+09 4.03616e+09 4.03718e+09 4.03809e+09 1
000 465 2 0 4.04548e+09 4.04573e+09 4.04675e+09 4.07559e+09 0
000 466 2 0 4.08354e+09 4.0838e+09 4.08481e+09 4.08869e+09 0
000 467 1 1 4.09653e+09 4.09678e+09 4.0978e+09 4.11054e+09 0
000 468 1 0 4.1192e+09 4.11945e+09 4.12047e+09 4.12074e+09 0
001 469 1 0 4.12712e+09 4.12737e+09 4.12839e+09 4.14863e+09 0
001 470 2 0 4.15544e+09 4.15569e+09 4.15671e+09 4.17817e+09 0
000 471 2 0 4.18535e+09 4.1856e+09 4.18662e+09 4.21078e+09 1
000 472 2 0 4.22057e+09 4.22083e+09 4.22185e+09 4.22444e+09 1
000 473 2 0 4.23183e+09 4.23207e+09 4.23309e+09 4.23524e+09 1
000 474 1 1 4.24378e+09 4.24403e+09 4.24505e+09 4.28459e+09 0
000 475 1 0 4.292e+09 4.29224e+09 4.29326e+09 1.96486e+06 0
001 476 1 1 5.42107e+06 5.66276e+06 6.68178e+06 1.21061e+07 0
000 477 1 0 1.95789e+07 1.98275e+07 2.08465e+07 7.34154e+07 1
001 478 2 1 7.7226e+07 7.74721e+07 7.84911e+07 8.00736e+07 0
001 479 1 1 8.33966e+07 8.364e+07 8.4659e+07 8.94494e+07 0
000 480 1 1 9.6896e+07 9.71517e+07 9.81707e+07 1.01322e+08 1
000 481 1 0 1.08589e+08 1.08839e+08 1.09859e+08 1.12667e+08 1
001 482 1 1 1.1638e+08 1.16636e+08 1.17655e+08 1.8806e+08 0
000 483 1 1 1.95406e+08 1.95658e+08 1.96677e+08 1.98805e+08 1
000 484 1 0 2.0627e+08 2.06513e+08 2.07532e+08 2.07615e+08 1
001 485 1 0 2.11087e+08 2.11346e+08 2.12365e+08 2.37233e+08 0
001 486 1 0 2.40785e+08 2.41042e+08 2.42061e+08 2.46009e+08 0
001 487 2 0 2.48599e+08 2.48849e+08 2.49868e+08 2.66383e+08 0
000 488 2 0 2.73764e+08 2.74014e+08 2.75033e+08 2.91608e+08 1
000 489 2 1 3.03283e+08 3.03526e+08 3.04545e+08 3.45696e+08 1
001 490 1 0 3.51608e+08 3.51861e+08 3.5288e+08 3.57408e+08 0
001 491 1 0 3.66596e+08 3.6685e+08 3.67869e+08 3.67875e+08 0
001 492 2 0 3.71228e+08 3.71484e+08 3.72503e+08 3.93256e+08 0
000 493 2 0 4.00508e+08 4.00756e+08 4.01775e+08 4.01799e+08 1
000 494 2 0 4.09077e+08 4.09339e+08 4.10358e+08 4.15109e+08 1
000 495 2 0 4.22218e+08 4.22475e+08 4.23494e+08 4.23653e+08 1
000 496 2 0 4.31328e+08 4.31578e+08 4.32597e+08 4.41058e+08 0
000 497 2 0 4.48494e+08 4.4876e+08 4.49779e+08 4.63399e+08 0
000 498 2 0 4.70934e+08 4.71194e+08 4.72213e+08 4.7369e+08 0
000 499 1 0 4.81858e+08 4.82104e+08 4.83123e+08 5.08949e+08 0
001 500 2 0 5.13111e+08 5.13358e+08 5.14377e+08 5.2182e+08 0
000 501 2 0 5.29169e+08 5.29418e+08 5.30437e+08 5.33213e+08 1
000 502 2 0 5.41076e+08 5.41326e+08 5.42345e+08 5.50832e+08 1
000 503 2 0 5.58256e+08 5.58499e+08 5.59518e+08 5.67636e+08 1
000 504 1 0 5.74894e+08 5.7514e+08 5.76159e+08 5.7617e+08 0
001 505 1 0 5.78817e+08 5.79069e+08 5.80088e+08 5.90584e+08 0
001 506 2 0 5.93608e+08 5.93854e+08 5.94873e+08 5.98238e+08 0
000 507 2 0 6.06281e+08 6.06532e+08 6.07551e+08 6.19598e+08 1
000 508 2 0 6.27332e+08 6.27581e+08 6.286e+08 6.44042e+08 1
000 509 2 0 6.52577e+08 6.52832e+08 6.53851e+08 6.56684e+08 1
000 510 2 0 6.6402e+08 6.64263e+08 6.65282e+08 6.65657e+08 0
000 511 2 0 6.72899e+08 6.73151e+08 6.7417e+08 7.08213e+08 0
000 512 2 0 7.17562e+08 7.17806e+08 7.18825e+08 7.19016e+08 0
000 513 2 0 7.2628e+08 7.26529e+08 7.27548e+08 7.27561e+08 0
000 514 2 0 7.37413e+08 7.3767e+08 7.38689e+08 7.46652e+08 0
000 515 1 0 7.5397e+08 7.54215e+08 7.55234e+08 7.57948e+08 0
001 516 2 0 7.63426e+08 7.63676e+08 7.64695e+08 7.67232e+08 0
000 517 2 0 7.75379e+08 7.75634e+08 7.76653e+08 7.99444e+08 1
000 518 2 0 8.06509e+08 8.06765e+08 8.07784e+08 8.23613e+08 1
000 519 2 0 8.34269e+08 8.34517e+08 8.35536e+08 8.37747e+08 1
000 520 1 0 8.45858e+08 8.46114e+08 8.47133e+08 8.52214e+08 0
001 521 1 0 8.56508e+08 8.56764e+08 8.57783e+08 8.75823e+08 0
001 522 2 0 8.78699e+08 8.7895e+08 8.79969e+08 8.89594e+08 0
000 523 2 0 8.97073e+08 8.97331e+08 8.9835e+08 9.19698e+08 1
000 524 2 0 9.29645e+08 9.29901e+08 9.3092e+08 9.41253e+08 1
000 525 2 0 9.48288e+08 9.48539e+08 9.49558e+08 9.52131e+08 1
000 526 1 0 9.59676e+08 9.59929e+08 9.60948e+08 9.63509e+08 0
001 527 1 0 9.67194e+08 9.67449e+08 9.68468e+08 9.84254e+08 0
001 528 2 0 9.87107e+08 9.87368e+08 9.88387e+08 1.01533e+09 0
000 529 2 0 1.02245e+09 1.0227e+09 1.02372e+09 1.04557e+09 1
000 530 2 0 1.05667e+09 1.05692e+09 1.05794e+09 1.08956e+09 1
000 531 2 0 1.10168e+09 1.10193e+09 1.10295e+09 1.1095e+09 1
000 532 2 0 1.11705e+09 1.1173e+09 1.11832e+09 1.14104e+09 0
000 533 2 0 1.14933e+09 1.14957e+09 1.15059e+09 1.16609e+09 0
000 534 1 1 1.17562e+09 1.17587e+09 1.17689e+09 1.18753e+09 0
000 535 2 0 1.19609e+09 1.19634e+09 1.19736e+09 1.22216e+09 0
000 536 1 0 1.22927e+09 1.22952e+09 1.23054e+09 1.23337e+09 0
001 537 1 0 1.239e+09 1.23925e+09 1.24027e+09 1.24379e+09 0
001 538 2 0 1.24811e+09 1.24838e+09 1.24939e+09 1.26315e+09 0
000 539 2 0 1.27058e+09 1.27084e+09 1.27186e+09 1.27237e+09 1
000 540 2 0 1.27988e+09 1.28014e+09 1.28115e+09 1.28905e+09 1
000 541 2 0 1.29637e+09 1.29662e+09 1.29764e+09 1.34003e+09 1
000 542 1 0 1.34888e+09 1.34913e+09 1.35015e+09 1.35342e+09 0
001 543 2 0 1.35703e+09 1.35728e+09 1.3583e+09 1.36604e+09 0
000 544 2 0 1.37324e+09 1.37348e+09 1.3745e+09 1.37637e+09 1
000 545 2 1 1.38806e+09 1.3883e+09 1.38932e+09 1.40098e+09 1
001 546 2 0 1.405e+09 1.40526e+09 1.40628e+09 1.43734e+09 0
000 547 2 0 1.44441e+09 1.44466e+09 1.44568e+09 1.44568e+09 1
000 548 2 0 1.45346e+09 1.4537e+09 1.45472e+09 1.45566e+09 1
000 549 2 0 1.46377e+09 1.46402e+09 1.46504e+09 1.46839e+09 1
000 550 1 0 1.47586e+09 1.47612e+09 1.47713e+09 1.48261e+09 0
001 551 2 0 1.48652e+09 1.48677e+09 1.48779e+09 1.49082e+09 0
000 552 2 0 1.4983e+09 1.49855e+09 1.49957e+09 1.50134e+09 1
000 553 2 1 1.50886e+09 1.5091e+09 1.51012e+09 1.5237e+09 1
001 554 1 0 1.52819e+09 1.52844e+09 1.52946e+09 1.538e+09 0
001 555 1 0 1.5405e+09 1.54075e+09 1.54177e+09 1.57723e+09 0
001 556 1 0 1.58012e+09 1.58041e+09 1.58143e+09 1.58345e+09 0
001 557 1 1 1.58683e+09 1.58708e+09 1.5881e+09 1.58811e+09 0
000 558 1 0 1.59565e+09 1.5959e+09 1.59692e+09 1.61482e+09 1
001 559 2 1 1.61909e+09 1.61934e+09 1.62036e+09 1.62124e+09 0
001 560 1 0 1.62547e+09 1.62573e+09 1.62675e+09 1.63043e+09 0
001 561 2 0 1.6339e+09 1.63415e+09 1.63517e+09 1.68421e+09 0
000 562 2 1 1.69149e+09 1.69174e+09 1.69276e+09 1.69285e+09 1
001 563 2 0 1.6997e+09 1.69994e+09 1.70096e+09 1.7011e+09 0
000 564 2 1 1.7085e+09 1.70875e+09 1.70977e+09 1.70978e+09 1
001 565 1 0 1.71224e+09 1.71248e+09 1.7135e+09 1.74617e+09 0
001 566 2 0 1.74883e+09 1.74908e+09 1.7501e+09 1.75166e+09 0
000 567 2 0 1.75913e+09 1.75938e+09 1.7604e+09 1.7604e+09 1
000 568 2 0 1.7706e+09 1.77085e+09 1.77187e+09 1.79921e+09 1
000 569 2 0 1.80652e+09 1.80677e+09 1.80779e+09 1.8094e+09 1
000 570 1 0 1.81668e+09 1.81694e+09 1.81795e+09 1.81796e+09 0
001 571 1 0 1.82073e+09 1.82098e+09 1.822e+09 1.84911e+09 0
001 572 2 0 1.85163e+09 1.85188e+09 1.8529e+09 1.85524e+09 0
000 573 2 0 1.86364e+09 1.8639e+09 1.86492e+09 1.88954e+09 1
000 574 2 0 1.89864e+09 1.8989e+09 1.89992e+09 1.90439e+09 1
000 575 2 0 1.91146e+09 1.91172e+09 1.91273e+09 1.91313e+09 1
000 576 2 0 1.92025e+09 1.92049e+09 1.92151e+09 1.92588e+09 0
000 577 2 0 1.93299e+09 1.93323e+09 1.93425e+09 1.96573e+09 0
000 578 2 0 1.97425e+09 1.9745e+09 1.97552e+09 1.97747e+09 0
000 579 1 0 1.98479e+09 1.98504e+09 1.98606e+09 1.99066e+09 0
001 580 2 0 1.99521e+09 1.99548e+09 1.9965e+09 1.99842e+09 0
000 581 2 0 2.00549e+09 2.00575e+09 2.00677e+09 2.00946e+09 1
000 582 2 0 2.01887e+09 2.01912e+09 2.02014e+09 2.03179e+09 1
000 583 2 0 2.04124e+09 2.0415e+09 2.04251e+09 2.04576e+09 1
000 584 1 0 2.05295e+09 2.0532e+09 2.05422e+09 2.08177e+09 0
001 585 1 0 2.0853e+09 2.08554e+09 2.08656e+09 2.08924e+09 0
001 586 2 0 2.09214e+09 2.09239e+09 2.09341e+09 2.09718e+09 0
000 587 2 0 2.10421e+09 2.10445e+09 2.10547e+09 2.10609e+09 1
000 588 2 0 2.11338e+09 2.11364e+09 2.11466e+09 2.11538e+09 1
000 589 2 1 2.12331e+09 2.12356e+09 2.12458e+09 2.12618e+09 1
001 590 1 0 2.13106e+09 2.13131e+09 2.13233e+09 2.15905e+09 0
001 591 1 0 2.16184e+09 2.1621e+09 2.16312e+09 2.16869e+09 0
001 592 2 0 2.17132e+09 2.17157e+09 2.17259e+09 2.17613e+09 0
000 593 2 0 2.18397e+09 2.18423e+09 2.18525e+09 2.1878e+09 1
000 594 2 0 2.19515e+09 2.1954e+09 2.19642e+09 2.19642e+09 1
000 595 2 1 2.20414e+09 2.20438e+09 2.2054e+09 2.25049e+09 1
001 596 1 0 2.25642e+09 2.25668e+09 2.2577e+09 2.25915e+09 0
001 597 1 0 2.26329e+09 2.26355e+09 2.26457e+09 2.2676e+09 0
001 598 2 0 2.27044e+09 2.27068e+09 2.2717e+09 2.30728e+09 0
000 599 2 0 2.31436e+09 2.3146e+09 2.31562e+09 2.31562e+09 1
000 600 2 0 2.32467e+09 2.32492e+09 2.32594e+09 2.33052e+09 1
000 601 2 1 2.338e+09 2.33825e+09 2.33927e+09 2.33929e+09 1
001 602 1 0 2.34692e+09 2.34717e+09 2.34819e+09 2.37349e+09 0
001 603 2 0 2.37639e+09 2.37665e+09 2.37767e+09 2.39516e+09 0
000 604 2 0 2.40548e+09 2.40573e+09 2.40674e+09 2.41545e+09 1
000 605 2 0 2.42261e+09 2.42285e+09 2.42387e+09 2.42482e+09 1
000 606 2 0 2.43202e+09 2.43227e+09 2.43329e+09 2.45243e+09 1
000 607 2 0 2.46166e+09 2.46195e+09 2.46297e+09 2.4647e+09 0
000 608 2 0 2.47178e+09 2.47203e+09 2.47305e+09 2.48428e+09 0
000 609 2 0 2.4917e+09 2.49195e+09 2.49297e+09 2.51303e+09 0
000 610 2 0 2.52042e+09 2.52068e+09 2.5217e+09 2.5342e+09 0
000 611 1 0 2.54337e+09 2.54362e+09 2.54464e+09 2.55037e+09 0
001 612 1 0 2.55325e+09 2.5535e+09 2.55452e+09 2.57239e+09 0
001 613 1 0 2.58066e+09 2.58091e+09 2.58193e+09 2.58549e+09 0
001 614 2 0 2.58804e+09 2.5883e+09 2.58931e+09 2.59267e+09 0
000 615 2 0 2.60061e+09 2.60088e+09 2.6019e+09 2.63238e+09 1
000 616 2 0 2.64121e+09 2.64149e+09 2.64251e+09 2.64473e+09 1
000 617 2 0 2.65211e+09 2.65236e+09 2.65338e+09 2.65462e+09 1
000 618 2 1 2.66174e+09 2.66201e+09 2.66302e+09 2.66307e+09 0
001 619 1 0 2.66808e+09 2.66833e+09 2.66935e+09 2.68661e+09 0
001 620 1 1 2.6917e+09 2.69196e+09 2.69298e+09 2.69298e+09 0
000 621 1 0 2.70045e+09 2.70071e+09 2.70173e+09 2.70541e+09 1
001 622 1 1 2.7085e+09 2.70877e+09 2.70979e+09 2.72422e+09 0
000 623 1 1 2.73265e+09 2.73291e+09 2.73393e+09 2.73394e+09 1
000 624 1 0 2.74215e+09 2.74242e+09 2.74344e+09 2.74345e+09 1
001 625 2 1 2.74841e+09 2.74866e+09 2.74968e+09 2.74969e+09 0
001 626 1 0 2.75242e+09 2.75268e+09 2.7537e+09 2.7554e+09 0
001 627 1 0 2.7582e+09 2.75845e+09 2.75947e+09 2.76668e+09 0
001 628 1 1 2.76963e+09 2.76989e+09 2.77091e+09 2.79135e+09 0
000 629 1 0 2.79842e+09 2.79868e+09 2.7997e+09 2.80528e+09 1
001 630 1 0 2.8091e+09 2.80936e+09 2.81038e+09 2.82028e+09 0
001 631 1 0 2.82415e+09 2.82443e+09 2.82544e+09 2.85733e+09 0
001 632 1 0 2.86013e+09 2.8604e+09 2.86142e+09 2.87297e+09 0
001 633 1 0 2.8787e+09 2.87896e+09 2.87998e+09 2.8876e+09 0
001 634 2 0 2.89034e+09 2.8906e+09 2.89162e+09 2.89467e+09 0
000 635 2 0 2.90193e+09 2.9022e+09 2.90322e+09 2.90797e+09 1
000 636 2 0 2.91518e+09 2.91544e+09 2.91646e+09 2.93728e+09 1
000 637 2 0 2.94434e+09 2.94461e+09 2.94562e+09 2.94563e+09 1
000 638 2 0 2.954e+09 2.95426e+09 2.95528e+09 2.9574e+09 0
000 639 1 0 2.9645e+09 2.96477e+09 2.96579e+09 2.98988e+09 0
001 640 2 0 2.99278e+09 2.99304e+09 2.99405e+09 2.99602e+09 0
000 641 2 0 3.0032e+09 3.00346e+09 3.00448e+09 3.00448e+09 1
000 642 2 0 3.01331e+09 3.01357e+09 3.01459e+09 3.02323e+09 1
000 643 2 0 3.03059e+09 3.03086e+09 3.03188e+09 3.0607e+09 1
000 644 1 0 3.07339e+09 3.07365e+09 3.07467e+09 3.0807e+09 0
001 645 2 0 3.08523e+09 3.08548e+09 3.0865e+09 3.08775e+09 0
000 646 2 0 3.09798e+09 3.09826e+09 3.09928e+09 3.10185e+09 1
000 647 2 1 3.10919e+09 3.10944e+09 3.11046e+09 3.11047e+09 1
001 648 2 0 3.11438e+09 3.11464e+09 3.11566e+09 3.11569e+09 0
000 649 2 0 3.12272e+09 3.12297e+09 3.12399e+09 3.14143e+09 1
000 650 2 0 3.14924e+09 3.14951e+09 3.15053e+09 3.15505e+09 1
000 651 2 0 3.1652e+09 3.16546e+09 3.16647e+09 3.18407e+09 1
000 652 2 0 3.19143e+09 3.19169e+09 3.19271e+09 3.21639e+09 0
000 653 2 1 3.22386e+09 3.22412e+09 3.22514e+09 3.24613e+09 0
001 654 2 1 3.24963e+09 3.24988e+09 3.2509e+09 3.25429e+09 0
001 655 1 0 3.25859e+09 3.25886e+09 3.25988e+09 3.26513e+09 0
001 656 2 1 3.26821e+09 3.26847e+09 3.26949e+09 3.29266e+09 0
001 657 1 1 3.29567e+09 3.29594e+09 3.29696e+09 3.29697e+09 0
000 658 1 0 3.30748e+09 3.30775e+09 3.30877e+09 3.31054e+09 1
001 659 2 1 3.31309e+09 3.31336e+09 3.31438e+09 3.31739e+09 0
001 660 1 1 3.32215e+09 3.3224e+09 3.32342e+09 3.32358e+09 0
000 661 1 0 3.33082e+09 3.33108e+09 3.3321e+09 3.33652e+09 1
001 662 1 0 3.33955e+09 3.33982e+09 3.34084e+09 3.34517e+09 0
001 663 2 0 3.34765e+09 3.34791e+09 3.34893e+09 3.37714e+09 0
000 664 2 0 3.38441e+09 3.38467e+09 3.38569e+09 3.38577e+09 1
000 665 2 0 3.39296e+09 3.39321e+09 3.39423e+09 3.39572e+09 1
000 666 2 0 3.40323e+09 3.40349e+09 3.40451e+09 3.41121e+09 1
000 667 1 1 3.41852e+09 3.41878e+09 3.4198e+09 3.43555e+09 0
000 668 2 0 3.45288e+09 3.45314e+09 3.45415e+09 3.46482e+09 0
000 669 1 0 3.47234e+09 3.47261e+09 3.47363e+09 3.47417e+09 0
001 670 1 0 3.47769e+09 3.47796e+09 3.47897e+09 3.52248e+09 0
001 671 2 0 3.52578e+09 3.52603e+09 3.52705e+09 3.52889e+09 0
000 672 2 0 3.53604e+09 3.5363e+09 3.53732e+09 3.55087e+09 1
000 673 2 0 3.55829e+09 3.55855e+09 3.55957e+09 3.56012e+09 1
000 674 2 1 3.5699e+09 3.57015e+09 3.57117e+09 3.6044e+09 1
001 675 1 0 3.60856e+09 3.60883e+09 3.60984e+09 3.61435e+09 0
001 676 2 0 3.61781e+09 3.61807e+09 3.61909e+09 3.62189e+09 0
000 677 2 0 3.6292e+09 3.62946e+09 3.63048e+09 3.65001e+09 1
000 678 2 0 3.65807e+09 3.65833e+09 3.65934e+09 3.66044e+09 1
000 679 2 0 3.66884e+09 3.6691e+09 3.67012e+09 3.67112e+09 1
000 680 2 0 3.68176e+09 3.68202e+09 3.68304e+09 3.72552e+09 0
000 681 2 1 3.73573e+09 3.736e+09 3.73702e+09 3.73702e+09 0
001 682 2 0 3.74117e+09 3.74144e+09 3.74246e+09 3.76154e+09 0
000 683 2 0 3.76883e+09 3.76909e+09 3.77011e+09 3.77035e+09 1
000 684 2 0 3.77763e+09 3.7779e+09 3.77892e+09 3.78062e+09 1
000 685 2 0 3.78812e+09 3.78837e+09 3.78939e+09 3.78944e+09 1
000 686 1 1 3.79727e+09 3.79754e+09 3.79856e+09 3.79858e+09 0
000 687 2 0 3.80572e+09 3.80598e+09 3.80699e+09 3.807e+09 0
000 688 2 0 3.81456e+09 3.81482e+09 3.81584e+09 3.83288e+09 0
000 689 2 0 3.84832e+09 3.84858e+09 3.8496e+09 3.85796e+09 0
000 690 2 0 3.86698e+09 3.86723e+09 3.86825e+09 3.87272e+09 0
000 691 1 0 3.88031e+09 3.88057e+09 3.88159e+09 3.88209e+09 0
001 692 1 0 3.88463e+09 3.8849e+09 3.88592e+09 3.88688e+09 0
001 693 1 0 3.89228e+09 3.89255e+09 3.89357e+09 3.8942e+09 0
001 694 2 0 3.89697e+09 3.89724e+09 3.89826e+09 3.94618e+09 0
000 695 2 0 3.95714e+09 3.9574e+09 3.95842e+09 3.95842e+09 1
000 696 2 0 3.96832e+09 3.96857e+09 3.96959e+09 3.96991e+09 1
000 697 2 0 3.97718e+09 3.97745e+09 3.97847e+09 3.97894e+09 1
000 698 1 0 3.98647e+09 3.98674e+09 3.98776e+09 3.98776e+09 0
001 699 2 0 3.99092e+09 3.9912e+09 3.99222e+09 4.0115e+09 0
000 700 2 0 4.01872e+09 4.01899e+09 4.02001e+09 4.02002e+09 1
000 701 2 0 4.03053e+09 4.0308e+09 4.03181e+09 4.0344e+09 1
000 702 2 1 4.04179e+09 4.04204e+09 4.04306e+09 4.10034e+09 1
001 703 2 0 4.10743e+09 4.10769e+09 4.10871e+09 4.11348e+09 0
000 704 2 1 4.12082e+09 4.12109e+09 4.12211e+09 4.12567e+09 1
001 705 1 0 4.12925e+09 4.12952e+09 4.13054e+09 4.13413e+09 0
001 706 2 0 4.13845e+09 4.1387e+09 4.13972e+09 4.19782e+09 0
000 707 2 0 4.20666e+09 4.20692e+09 4.20794e+09 4.21132e+09 1
000 708 2 0 4.21862e+09 4.21887e+09 4.21989e+09 4.23503e+09 1
000 709 2 0 4.24493e+09 4.24519e+09 4.24621e+09 4.25174e+09 1
000 710 1 0 4.26029e+09 4.26057e+09 4.26158e+09 3.65226e+06 0
001 711 2 0 6.89461e+06 7.15227e+06 8.17129e+06 1.06312e+07 0
000 712 2 0 1.85139e+07 1.88068e+07 1.98259e+07 2.08514e+07 1
000 713 2 0 2.79583e+07 2.82065e+07 2.92255e+07 3.02895e+07 1
000 714 2 0 3.7546e+07 3.78119e+07 3.88309e+07 4.71499e+07 1
000 