trial trialType response stillTime stimOnset stimOffset respTime correctionTrial correct
001 2 1 6.81166e+06 7.11046e+06 8.12948e+06 1.70776e+07 0
001 002 1 1 1.98267e+07 2.01018e+07 2.11209e+07 3.05068e+08 0
000 003 1 0 3.42789e+08 3.43072e+08 3.44091e+08 3.44806e+08 1
001 004 1 0 3.50549e+08 3.50823e+08 3.51842e+08 3.54381e+08 0
001 005 1 0 3.57155e+08 3.57407e+08 3.58426e+08 3.73714e+08 0
001 006 2 0 3.76542e+08 3.76799e+08 3.77818e+08 3.77833e+08 0
000 007 2 0 3.84903e+08 3.85157e+08 3.86176e+08 3.93646e+08 1
000 008 2 0 4.0106e+08 4.01315e+08 4.02334e+08 4.02479e+08 1
000 009 2 0 4.10304e+08 4.1056e+08 4.11579e+08 4.12172e+08 1
000 010 1 0 4.37063e+08 4.3731e+08 4.38329e+08 4.38799e+08 0
001 011 2 0 4.41599e+08 4.41856e+08 4.42875e+08 4.61852e+08 0
000 012 2 0 4.69103e+08 4.69347e+08 4.70366e+08 4.75566e+08 1
000 013 2 0 4.90644e+08 4.90888e+08 4.91907e+08 4.9294e+08 1
000 014 2 1 5.00807e+08 5.01065e+08 5.02084e+08 5.02265e+08 1
001 015 2 0 5.06915e+08 5.07179e+08 5.08198e+08 5.13161e+08 0
000 016 2 0 5.37058e+08 5.37316e+08 5.38335e+08 5.38748e+08 1
000 017 2 0 5.47694e+08 5.47946e+08 5.48965e+08 5.51746e+08 1
000 018 2 0 5.59014e+08 5.59277e+08 5.60296e+08 5.61433e+08 1
000 019 1 0 5.68861e+08 5.69115e+08 5.70134e+08 5.75369e+08 0
001 020 1 0 5.77848e+08 5.781e+08 5.79119e+08 5.85318e+08 0
001 021 1 0 5.8899e+08 5.8924e+08 5.90259e+08 6.03936e+08 0
001 022 1 0 6.06459e+08 6.06707e+08 6.07726e+08 6.17012e+08 0
001 023 1 0 6.24964e+08 6.25208e+08 6.26227e+08 6.39016e+08 0
001 024 1 0 6.41534e+08 6.41795e+08 6.42814e+08 6.53348e+08 0
001 025 1 0 6.55772e+08 6.56018e+08 6.57037e+08 6.74923e+08 0
001 026 2 0 6.7771e+08 6.77973e+08 6.78992e+08 6.9511e+08 0
000 027 2 0 7.02246e+08 7.02501e+08 7.0352e+08 7.07689e+08 1
000 028 2 0 7.19215e+08 7.1947e+08 7.20489e+08 7.22817e+08 1
000 029 2 0 7.30912e+08 7.31162e+08 7.32181e+08 7.38857e+08 1
000 030 2 0 7.5152e+08 7.5178e+08 7.52799e+08 7.54198e+08 0
000 031 1 0 7.63021e+08 7.63285e+08 7.64304e+08 7.68116e+08 0
001 032 2 0 7.71849e+08 7.7211e+08 7.73129e+08 7.83465e+08 0
000 033 2 0 7.90505e+08 7.90764e+08 7.91783e+08 7.92036e+08 1
000 034 2 0 8.09954e+08 8.1021e+08 8.11229e+08 8.11233e+08 1
000 035 2 0 8.20726e+08 8.20975e+08 8.21994e+08 8.23808e+08 1
000 036 2 0 8.31025e+08 8.31276e+08 8.32295e+08 8.33278e+08 0
000 037 1 0 8.40847e+08 8.41106e+08 8.42125e+08 8.45483e+08 0
001 038 2 0 8.48064e+08 8.48315e+08 8.49334e+08 8.62079e+08 0
000 039 2 0 8.6919e+08 8.69446e+08 8.70465e+08 8.70495e+08 1
000 040 2 0 8.79885e+08 8.80143e+08 8.81162e+08 8.8482e+08 1
000 041 2 0 8.98097e+08 8.98371e+08 8.9939e+08 9.01224e+08 1
000 042 1 1 9.08483e+08 9.08745e+08 9.09764e+08 9.20461e+08 0
000 043 2 0 9.27958e+08 9.28202e+08 9.29221e+08 9.3022e+08 0
000 044 2 0 9.37645e+08 9.37906e+08 9.38925e+08 9.6129e+08 0
000 045 2 0 9.73765e+08 9.74021e+08 9.7504e+08 9.86611e+08 0
000 046 2 0 1.00079e+09 1.00104e+09 1.00206e+09 1.02657e+09 0
000 047 1 0 1.03569e+09 1.03595e+09 1.03697e+09 1.04126e+09 0
001 048 1 0 1.04451e+09 1.04476e+09 1.04578e+09 1.05806e+09 0
001 049 2 0 1.06063e+09 1.06089e+09 1.06191e+09 1.08695e+09 0
000 050 2 0 1.09434e+09 1.09459e+09 1.09561e+09 1.11081e+09 1
000 051 2 0 1.11909e+09 1.11934e+09 1.12035e+09 1.12104e+09 1
000 052 2 0 1.12851e+09 1.12877e+09 1.12979e+09 1.13097e+09 1
000 053 1 0 1.14039e+09 1.14065e+09 1.14167e+09 1.14171e+09 0
001 054 2 0 1.14454e+09 1.14479e+09 1.1458e+09 1.15087e+09 0
000 055 2 0 1.15808e+09 1.15833e+09 1.15935e+09 1.22562e+09 1
000 056 2 0 1.23378e+09 1.23403e+09 1.23505e+09 1.2413e+09 1
000 057 2 0 1.24846e+09 1.2487e+09 1.24972e+09 1.25318e+09 1
000 058 1 0 1.26187e+09 1.26213e+09 1.26315e+09 1.28365e+09 0
001 059 2 0 1.28606e+09 1.2863e+09 1.28732e+09 1.29651e+09 0
000 060 2 0 1.30606e+09 1.30633e+09 1.30735e+09 1.36313e+09 1
000 061 2 0 1.3723e+09 1.37255e+09 1.37357e+09 1.37621e+09 1
000 062 2 0 1.38426e+09 1.38451e+09 1.38553e+09 1.38591e+09 1
000 063 2 0 1.39421e+09 1.39447e+09 1.39549e+09 1.41421e+09 0
000 064 1 0 1.42132e+09 1.42157e+09 1.42259e+09 1.42807e+09 0
001 065 1 0 1.43173e+09 1.43199e+09 1.43301e+09 1.45067e+09 0
001 066 2 0 1.4534e+09 1.45365e+09 1.45467e+09 1.47255e+09 0
000 067 2 0 1.48303e+09 1.48329e+09 1.48431e+09 1.48435e+09 1
000 068 2 0 1.49712e+09 1.49738e+09 1.4984e+09 1.49886e+09 1
000 069 2 0 1.50612e+09 1.50638e+09 1.5074e+09 1.5355e+09 1
000 070 2 0 1.54921e+09 1.54946e+09 1.55048e+09 1.55152e+09 0
000 071 1 0 1.5589e+09 1.55916e+09 1.56017e+09 1.56021e+09 0
001 072 2 0 1.56308e+09 1.56334e+09 1.56436e+09 1.57205e+09 0
000 073 2 1 1.57921e+09 1.57945e+09 1.58047e+09 1.58332e+09 1
001 074 2 0 1.58588e+09 1.58613e+09 1.58715e+09 1.58878e+09 0
000 075 2 0 1.59618e+09 1.59643e+09 1.59745e+09 1.60252e+09 1
000 076 2 0 1.60986e+09 1.6101e+09 1.61112e+09 1.62517e+09 1
000 077 2 0 1.63421e+09 1.63448e+09 1.6355e+09 1.63577e+09 1
000 078 1 0 1.64762e+09 1.64788e+09 1.6489e+09 1.65043e+09 0
001 079 1 0 1.65615e+09 1.65641e+09 1.65743e+09 1.66709e+09 0
001 080 1 0 1.66966e+09 1.66991e+09 1.67093e+09 1.67153e+09 0
001 081 2 0 1.67686e+09 1.67711e+09 1.67813e+09 1.68659e+09 0
000 082 2 0 1.69396e+09 1.69422e+09 1.69524e+09 1.69525e+09 1
000 083 2 0 1.70241e+09 1.70266e+09 1.70368e+09 1.71071e+09 1
000 084 2 0 1.71773e+09 1.71798e+09 1.719e+09 1.71997e+09 1
000 085 2 1 1.72709e+09 1.72735e+09 1.72837e+09 1.72852e+09 0
001 086 1 0 1.73108e+09 1.73133e+09 1.73235e+09 1.74022e+09 0
001 087 2 0 1.74272e+09 1.74297e+09 1.74399e+09 1.74454e+09 0
000 088 2 0 1.75198e+09 1.75223e+09 1.75325e+09 1.75405e+09 1
000 089 2 0 1.76847e+09 1.76872e+09 1.76974e+09 1.76977e+09 1
000 090 2 0 1.77711e+09 1.77736e+09 1.77838e+09 1.7864e+09 1
000 091 2 0 1.79369e+09 1.79394e+09 1.79496e+09 1.79496e+09 0
000 092 1 0 1.80522e+09 1.80547e+09 1.80649e+09 1.80952e+09 0
001 093 2 1 1.81191e+09 1.81217e+09 1.81318e+09 1.82919e+09 0
001 094 1 0 1.83196e+09 1.83221e+09 1.83323e+09 1.83423e+09 0
001 095 2 0 1.83711e+09 1.83737e+09 1.83839e+09 1.84165e+09 0
000 096 2 0 1.84875e+09 1.849e+09 1.85002e+09 1.8602e+09 1
000 097 2 0 1.86745e+09 1.8677e+09 1.86872e+09 1.87008e+09 1
000 098 2 0 1.87746e+09 1.87772e+09 1.87874e+09 1.88222e+09 1
000 099 1 0 1.89102e+09 1.89127e+09 1.89229e+09 1.89741e+09 0
001 100 1 0 1.89993e+09 1.90019e+09 1.9012e+09 1.90891e+09 0
001 101 1 0 1.9113e+09 1.91155e+09 1.91257e+09 1.9133e+09 0
001 102 2 1 1.91608e+09 1.91633e+09 1.91735e+09 1.94688e+09 0
001 103 1 0 1.94965e+09 1.94991e+09 1.95093e+09 1.95764e+09 0
001 104 1 1 1.96036e+09 1.96061e+09 1.96163e+09 1.97178e+09 0
000 105 1 0 1.98138e+09 1.98163e+09 1.98265e+09 1.98811e+09 1
001 106 1 1 1.99086e+09 1.99111e+09 1.99213e+09 1.99344e+09 0
000 107 1 0 2.00064e+09 2.00089e+09 2.00191e+09 2.00309e+09 1
001 108 1 0 2.00719e+09 2.00745e+09 2.00847e+09 2.00943e+09 0
001 109 2 0 2.07746e+09 2.07775e+09 2.07877e+09 2.07903e+09 0
000 110 2 1 2.08647e+09 2.08672e+09 2.08774e+09 2.09138e+09 1
001 111 2 0 2.09387e+09 2.09411e+09 2.09513e+09 2.09549e+09 0
000 112 2 0 2.10276e+09 2.10301e+09 2.10403e+09 2.10495e+09 1
000 113 2 0 2.11442e+09 2.11468e+09 2.11569e+09 2.11827e+09 1
000 114 2 0 2.13456e+09 2.13481e+09 2.13583e+09 2.13584e+09 1
000 115 2 0 2.14309e+09 2.14335e+09 2.14437e+09 2.22422e+09 0
000 116 2 0 2.23359e+09 2.23385e+09 2.23486e+09 2.24016e+09 0
000 117 1 0 2.25021e+09 2.25045e+09 2.25147e+09 2.29425e+09 0
001 118 2 1 2.29703e+09 2.29728e+09 2.2983e+09 2.32029e+09 0
001 119 2 0 2.32451e+09 2.32476e+09 2.32578e+09 2.34285e+09 0
000 120 2 0 2.3503e+09 2.35056e+09 2.35157e+09 2.36174e+09 1
000 121 2 0 2.36904e+09 2.36929e+09 2.37031e+09 2.41642e+09 1
000 122 2 0 2.42515e+09 2.4254e+09 2.42642e+09 2.66717e+09 1
000 123 1 0 2.67436e+09 2.67461e+09 2.67563e+09 2.67563e+09 0
001 124 2 0 2.67803e+09 2.67828e+09 2.6793e+09 2.70803e+09 0
000 125 2 0 2.73043e+09 2.73068e+09 2.7317e+09 2.73341e+09 1
000 126 2 0 2.74112e+09 2.74136e+09 2.74238e+09 2.74512e+09 1
000 127 2 0 2.75227e+09 2.75253e+09 2.75355e+09 2.75883e+09 1
000 128 2 0 2.766e+09 2.76625e+09 2.76727e+09 2.76799e+09 0
000 129 2 0 2.77508e+09 2.77534e+09 2.77636e+09 2.90633e+09 0
000 130 1 0 2.91387e+09 2.91411e+09 2.91513e+09 3.04406e+09 0
001 131 1 0 3.04689e+09 3.04715e+09 3.04817e+09 3.05668e+09 0
001 132 2 0 3.06198e+09 3.06224e+09 3.06326e+09 3.06328e+09 0
000 133 2 0 3.07209e+09 3.07235e+09 3.07336e+09 3.07399e+09 1
000 134 2 0 3.08273e+09 3.08298e+09 3.084e+09 3.08404e+09 1
000 135 2 0 3.09134e+09 3.09159e+09 3.09261e+09 3.09381e+09 1
000 136 2 0 3.10164e+09 3.1019e+09 3.10291e+09 3.10409e+09 0
000 137 2 0 3.11138e+09 3.11164e+09 3.11265e+09 3.11459e+09 0
000 138 2 0 3.12473e+09 3.12499e+09 3.12601e+09 3.14763e+09 0
000 139 1 0 3.1554e+09 3.15566e+09 3.15667e+09 3.16744e+09 0
001 140 1 0 3.17023e+09 3.17048e+09 3.1715e+09 3.17483e+09 0
001 141 1 0 3.1773e+09 3.17756e+09 3.17858e+09 3.17956e+09 0
001 142 2 0 3.18598e+09 3.18623e+09 3.18725e+09 3.19071e+09 0
000 143 2 0 3.19798e+09 3.19823e+09 3.19925e+09 3.21425e+09 1
000 144 2 0 3.22403e+09 3.22429e+09 3.2253e+09 3.22533e+09 1
000 145 2 0 3.23761e+09 3.23787e+09 3.23889e+09 3.2392e+09 1
000 146 1 0 3.24657e+09 3.24683e+09 3.24785e+09 3.24833e+09 0
001 147 1 0 3.25086e+09 3.2511e+09 3.25212e+09 3.25383e+09 0
001 148 2 0 3.26651e+09 3.26676e+09 3.26778e+09 3.26791e+09 0
000 149 2 0 3.2771e+09 3.27736e+09 3.27838e+09 3.28008e+09 1
000 150 2 0 3.28765e+09 3.2879e+09 3.28892e+09 3.29035e+09 1
000 151 2 0 3.29786e+09 3.29811e+09 3.29913e+09 3.31542e+09 1
000 152 2 0 3.32261e+09 3.32286e+09 3.32388e+09 3.32527e+09 0
000 153 1 0 3.33364e+09 3.33389e+09 3.33491e+09 3.33496e+09 0
001 154 2 0 3.34057e+09 3.34083e+09 3.34184e+09 3.34736e+09 0
000 155 2 0 3.35485e+09 3.35512e+09 3.35614e+09 3.35965e+09 1
000 156 2 0 3.36913e+09 3.36939e+09 3.3704e+09 3.3709e+09 1
000 157 2 0 3.37838e+09 3.37864e+09 3.37966e+09 3.38023e+09 1
000 158 2 0 3.39369e+09 3.39395e+09 3.39497e+09 3.39512e+09 0
000 159 1 0 3.40452e+09 3.40477e+09 3.40579e+09 3.40803e+09 0
001 160 2 0 3.41057e+09 3.41083e+09 3.41185e+09 3.42158e+09 0
000 161 2 0 3.43229e+09 3.43254e+09 3.43356e+09 3.43403e+09 1
000 162 2 0 3.44107e+09 3.44133e+09 3.44235e+09 3.4439e+09 1
000 163 2 0 3.4521e+09 3.45235e+09 3.45337e+09 3.45366e+09 1
000 164 2 1 3.46285e+09 3.46311e+09 3.46413e+09 3.46476e+09 0
001 165 1 0 3.46738e+09 3.46763e+09 3.46865e+09 3.48233e+09 0
001 166 1 0 3.48482e+09 3.48507e+09 3.48609e+09 3.50053e+09 0
001 167 1 0 3.50315e+09 3.50341e+09 3.50443e+09 3.50804e+09 0
001 168 1 0 3.51102e+09 3.51128e+09 3.51229e+09 3.51729e+09 0
001 169 2 0 3.54612e+09 3.54637e+09 3.54739e+09 3.55038e+09 0
000 170 2 0 3.55795e+09 3.55821e+09 3.55923e+09 3.55966e+09 1
000 171 2 0 3.57586e+09 3.57612e+09 3.57714e+09 3.57869e+09 1
000 172 2 0 3.58612e+09 3.58638e+09 3.5874e+09 3.58741e+09 1
000 173 1 0 3.59906e+09 3.59931e+09 3.60033e+09 3.61095e+09 0
001 174 2 0 3.63645e+09 3.63671e+09 3.63773e+09 3.63804e+09 0
000 175 2 0 3.64541e+09 3.64565e+09 3.64667e+09 3.65728e+09 1
000 176 2 0 3.66528e+09 3.66554e+09 3.66656e+09 3.67233e+09 1
000 177 2 0 3.67941e+09 3.67967e+09 3.68069e+09 3.68782e+09 1
000 178 1 0 3.69508e+09 3.69533e+09 3.69635e+09 3.70987e+09 0
001 179 2 0 3.71238e+09 3.71264e+09 3.71366e+09 3.71975e+09 0
000 180 2 0 3.73044e+09 3.73069e+09 3.73171e+09 3.74598e+09 1
000 181 2 0 3.75339e+09 3.75364e+09 3.75466e+09 3.76347e+09 1
000 182 2 0 3.77438e+09 3.77463e+09 3.77565e+09 3.7769e+09 1
000 183 2 0 3.78426e+09 3.78452e+09 3.78554e+09 3.78757e+09 0
000 184 2 0 3.7947e+09 3.79496e+09 3.79598e+09 3.847e+09 0
000 185 2 0 3.85435e+09 3.8546e+09 3.85562e+09 3.88709e+09 0
000 186 1 0 3.89457e+09 3.89483e+09 3.89585e+09 3.89863e+09 0
001 187 2 0 3.90152e+09 3.90177e+09 3.90279e+09 3.9084e+09 0
000 188 2 0 3.91582e+09 3.91608e+09 3.9171e+09 3.91798e+09 1
000 189 2 1 3.92634e+09 3.92664e+09 3.92765e+09 3.92971e+09 1
001 190 1 0 3.93309e+09 3.93335e+09 3.93437e+09 3.94316e+09 0
001 191 1 0 3.94569e+09 3.94594e+09 3.94696e+09 3.95954e+09 0
001 192 1 0 3.96363e+09 3.96389e+09 3.96491e+09 3.97054e+09 0
001 193 2 0 3.97404e+09 3.97431e+09 3.97533e+09 3.97815e+09 0
000 194 2 0 4.01622e+09 4.01648e+09 4.0175e+09 4.01959e+09 1
000 195 2 0 4.02675e+09 4.02704e+09 4.02806e+09 4.03021e+09 1
000 196 2 0 4.04082e+09 4.04107e+09 4.04209e+09 4.04365e+09 1
000 197 2 0 4.05078e+09 4.05104e+09 4.05206e+09 4.0836e+09 0
000 198 1 0 4.09071e+09 4.09096e+09 4.09198e+09 4.13998e+09 0
001 199 2 0 4.14292e+09 4.14318e+09 4.1442e+09 4.15679e+09 0
000 200 2 0 4.16676e+09 4.16702e+09 4.16804e+09 4.16994e+09 1
000 201 2 0 4.17721e+09 4.17746e+09 4.17848e+09 4.18135e+09 1
000 202 2 0 4.18867e+09 4.18893e+09 4.18995e+09 4.19509e+09 1
000 203 2 0 4.2025e+09 4.20276e+09 4.20378e+09 4.21113e+09 0
000 204 2 0 4.2186e+09 4.21886e+09 4.21988e+09 4.22076e+09 0
000 205 2 0 4.22802e+09 4.22828e+09 4.2293e+09 4.22957e+09 0
000 206 1 0 4.23697e+09 4.23722e+09 4.23824e+09 4.25636e+09 0
001 207 2 0 4.25924e+09 4.2595e+09 4.26051e+09 1.00083e+08 0
000 208 2 0 1.08578e+08 1.08832e+08 1.09851e+08 1.88515e+08 1
000 209 2 1 1.95712e+08 1.95976e+08 1.96995e+08 1.99038e+08 1
001 210 2 0 2.04447e+08 2.04704e+08 2.05723e+08 2.16444e+08 0
000 211 2 0 2.23626e+08 2.23871e+08 2.2489e+08 2.25321e+08 1
000 212 2 0 2.324e+08 2.32651e+08 2.3367e+08 2.37365e+08 1
000 213 2 0 2.44721e+08 2.44971e+08 2.4599e+08 2.46821e+08 1
000 214 2 0 2.54119e+08 2.54379e+08 2.55398e+08 3.06482e+08 0
000 215 2 0 3.13734e+08 3.13978e+08 3.14997e+08 3.44303e+08 0
000 216 2 0 3.51618e+08 3.5187e+08 3.52889e+08 4.18389e+08 0
000 217 2 0 4.30885e+08 4.31145e+08 4.32164e+08 4.88515e+08 0
000 218 1 0 4.95963e+08 4.96216e+08 4.97235e+08 4.9725e+08 0
001 219 1 0 5.00035e+08 5.00291e+08 5.0131e+08 5.10029e+08 0
001 220 2 1 5.13163e+08 5.1343e+08 5.14449e+08 5.29492e+08 0
001 221 2 0 5.32215e+08 5.3247e+08 5.33489e+08 7.41138e+08 0
000 222 2 0 7.4854e+08 7.48785e+08 7.49804e+08 9.17751e+08 1
000 223 2 0 9.36874e+08 9.37137e+08 9.38156e+08 9.42848e+08 1
000 224 2 0 9.50153e+08 9.50411e+08 9.5143e+08 9.65591e+08 1
000 225 2 0 9.73859e+08 9.7411e+08 9.75129e+08 9.75148e+08 0
000 226 2 0 9.91358e+08 9.91614e+08 9.92633e+08 9.93879e+08 0
000 227 1 0 1.00243e+09 1.0027e+09 1.00372e+09 1.00373e+09 0
001 228 2 0 1.00935e+09 1.00961e+09 1.01063e+09 1.03422e+09 0
000 229 2 0 1.04131e+09 1.04156e+09 1.04258e+09 1.22236e+09 1
000 230 2 0 1.22969e+09 1.22994e+09 1.23096e+09 1.23385e+09 1
000 231 2 0 1.24246e+09 1.24272e+09 1.24374e+09 1.24697e+09 1
000 232 1 0 1.25414e+09 1.2544e+09 1.25542e+09 1.3321e+09 0
001 233 2 0 1.33539e+09 1.33565e+09 1.33667e+09 1.34824e+09 0
000 234 2 0 1.36092e+09 1.36118e+09 1.3622e+09 1.38123e+09 1
000 235 2 0 1.38866e+09 1.38891e+09 1.38993e+09 1.39237e+09 1
000 236 2 0 1.39968e+09 1.39993e+09 1.40095e+09 1.41436e+09 1
000 237 2 0 1.42185e+09 1.42212e+09 1.42314e+09 1.45928e+09 0
000 238 2 0 1.4664e+09 1.46666e+09 1.46768e+09 1.47932e+09 0
000 239 2 0 1.48659e+09 1.48685e+09 1.48787e+09 1.51665e+09 0
000 240 2 1 1.52402e+09 1.52428e+09 1.5253e+09 1.61243e+09 0
001 241 1 0 1.61501e+09 1.61525e+09 1.61627e+09 1.62541e+09 0
001 242 1 0 1.62826e+09 1.62851e+09 1.62953e+09 1.63356e+09 0
001 243 2 1 1.6363e+09 1.63656e+09 1.63758e+09 1.64528e+09 0
001 244 1 0 1.64862e+09 1.64891e+09 1.64993e+09 1.65553e+09 0
001 245 2 0 1.6755e+09 1.67575e+09 1.67677e+09 1.67948e+09 0
000 246 2 0 1.68851e+09 1.68877e+09 1.68979e+09 1.69181e+09 1
000 247 2 0 1.69962e+09 1.69988e+09 1.7009e+09 1.71003e+09 1
000 248 2 0 1.71766e+09 1.71792e+09 1.71894e+09 1.72047e+09 1
000 249 1 0 1.72782e+09 1.72807e+09 1.72909e+09 1.72913e+09 0
001 250 2 0 1.73549e+09 1.73575e+09 1.73677e+09 1.74449e+09 0
000 251 2 0 1.75187e+09 1.75212e+09 1.75314e+09 1.75658e+09 1
000 252 2 0 1.76489e+09 1.76515e+09 1.76617e+09 1.7683e+09 1
000 253 2 0 1.77996e+09 1.78021e+09 1.78123e+09 1.78124e+09 1
000 254 2 0 1.80284e+09 1.80309e+09 1.80411e+09 1.85477e+09 0
000 255 2 0 1.86503e+09 1.86528e+09 1.8663e+09 1.98895e+09 0
000 256 1 0 2.00217e+09 2.00243e+09 2.00345e+09 2.06843e+09 0
001 257 1 0 2.07428e+09 2.07454e+09 2.07556e+09 2.07849e+09 0
001 258 2 0 2.0811e+09 2.08135e+09 2.08237e+09 2.09832e+09 0
000 259 2 0 2.10537e+09 2.10564e+09 2.10665e+09 2.21174e+09 1
000 260 2 0 2.21878e+09 2.21904e+09 2.22006e+09 2.28694e+09 1
000 261 2 0 2.2944e+09 2.29465e+09 2.29567e+09 2.2972e+09 1
000 262 1 0 2.30513e+09 2.30539e+09 2.30641e+09 2.31182e+09 0
001 263 1 0 2.31453e+09 2.31479e+09 2.31581e+09 2.32269e+09 0
001 264 1 0 2.32585e+09 2.3261e+09 2.32712e+09 2.33154e+09 0
001 265 1 0 2.33533e+09 2.33558e+09 2.3366e+09 2.33824e+09 0
001 266 2 0 2.34086e+09 2.34113e+09 2.34214e+09 2.34365e+09 0
000 267 2 0 2.35355e+09 2.3538e+09 2.35482e+09 2.36374e+09 1
000 268 2 0 2.3711e+09 2.37136e+09 2.37238e+09 2.37374e+09 1
000 269 2 0 2.38101e+09 2.38127e+09 2.38229e+09 2.3838e+09 1
000 270 1 0 2.39096e+09 2.39123e+09 2.39225e+09 2.48279e+09 0
001 271 1 0 2.4855e+09 2.48576e+09 2.48678e+09 2.49523e+09 0
001 272 2 0 2.49778e+09 2.49803e+09 2.49905e+09 2.50095e+09 0
000 273 2 0 2.50921e+09 2.50947e+09 2.51049e+09 2.51341e+09 1
000 274 2 0 2.52071e+09 2.52096e+09 2.52198e+09 2.52261e+09 1
000 275 2 0 2.52972e+09 2.52998e+09 2.53099e+09 2.5719e+09 1
000 276 2 0 2.57946e+09 2.57972e+09 2.58074e+09 2.58599e+09 0
000 277 1 0 2.59533e+09 2.5956e+09 2.59662e+09 2.59665e+09 0
001 278 1 0 2.59926e+09 2.59952e+09 2.60054e+09 2.60295e+09 0
001 279 2 0 2.60676e+09 2.60702e+09 2.60804e+09 2.60805e+09 0
000 280 2 0 2.61713e+09 2.6174e+09 2.61842e+09 2.61983e+09 1
000 281 2 0 2.62733e+09 2.62759e+09 2.62861e+09 2.64792e+09 1
000 282 2 0 2.65537e+09 2.65563e+09 2.65665e+09 2.699e+09 1
000 283 2 0 2.70614e+09 2.70639e+09 2.70741e+09 2.71451e+09 0
000 284 1 0 2.72188e+09 2.72215e+09 2.72317e+09 2.75456e+09 0
001 285 2 0 2.75793e+09 2.75819e+09 2.75921e+09 2.7915e+09 0
000 286 2 0 2.79908e+09 2.79933e+09 2.80035e+09 2.95629e+09 1
000 287 2 0 2.96357e+09 2.96383e+09 2.96485e+09 2.96579e+09 1
000 288 2 0 2.9729e+09 2.97316e+09 2.97418e+09 2.97437e+09 1
000 289 1 0 2.98181e+09 2.98207e+09 2.98309e+09 3.04385e+09 0
001 290 2 0 3.04644e+09 3.04671e+09 3.04772e+09 3.1171e+09 0
000 291 2 0 3.12435e+09 3.1246e+09 3.12561e+09 3.15057e+09 1
000 292 2 0 3.16047e+09 3.16074e+09 3.16176e+09 3.22254e+09 1
000 293 2 1 3.22963e+09 3.22988e+09 3.2309e+09 3.28659e+09 1
001 294 1 0 3.29554e+09 3.29581e+09 3.29683e+09 3.43093e+09 0
001 295 1 0 3.43488e+09 3.43514e+09 3.43616e+09 3.43617e+09 0
001 296 1 0 3.43868e+09 3.43893e+09 3.43995e+09 3.46681e+09 0
001 297 1 0 3.46949e+09 3.46975e+09 3.47077e+09 3.47265e+09 0
001 298 1 0 3.47539e+09 3.47565e+09 3.47667e+09 3.51885e+09 0
001 299 1 0 3.52296e+09 3.52322e+09 3.52424e+09 3.60757e+09 0
001 300 1 0 3.61156e+09 3.61181e+09 3.61283e+09 3.61417e+09 0
001 301 1 0 3.62002e+09 3.62028e+09 3.6213e+09 3.62527e+09 0
001 302 2 0 3.62846e+09 3.62872e+09 3.62974e+09 3.63818e+09 0
000 303 2 0 3.64548e+09 3.64574e+09 3.64676e+09 3.64932e+09 1
000 304 2 0 3.65672e+09 3.65697e+09 3.65799e+09 3.65917e+09 1
000 305 2 0 3.66679e+09 3.66705e+09 3.66807e+09 3.68533e+09 1
000 306 1 0 3.69964e+09 3.6999e+09 3.70092e+09 3.70171e+09 0
001 307 1 0 3.70912e+09 3.70938e+09 3.7104e+09 3.76953e+09 0
001 308 1 0 3.77273e+09 3.77299e+09 3.77401e+09 3.80864e+09 0
001 309 1 1 3.81337e+09 3.81364e+09 3.81465e+09 3.81479e+09 0
000 310 1 0 3.8261e+09 3.82636e+09 3.82738e+09 3.82843e+09 1
001 311 2 0 3.831e+09 3.83126e+09 3.83228e+09 3.83312e+09 0
000 312 2 0 3.84028e+09 3.84054e+09 3.84156e+09 3.90577e+09 1
000 313 2 0 3.91286e+09 3.91312e+09 3.91414e+09 3.94135e+09 1
000 314 2 0 3.94845e+09 3.94872e+09 3.94973e+09 3.97525e+09 1
000 315 2 0 3.98249e+09 3.98276e+09 3.98378e+09 4.06811e+09 0
000 316 1 0 4.07546e+09 4.07573e+09 4.07675e+09 4.12329e+09 0
001 317 1 0 4.12754e+09 4.1278e+09 4.12882e+09 4.12888e+09 0
001 318 2 0 4.13149e+09 4.13174e+09 4.13276e+09 4.17303e+09 0
000 319 2 0 4.18044e+09 4.18071e+09 4.18173e+09 4.27791e+09 1
000 320 2 0 4.29471e+09 4.29496e+09 1.01586e+06 1.55484e+06 1
000 321 2 1 1.32649e+07 1.35284e+07 1.45474e+07 2.62135e+07 1
001 322 1 0 3.01312e+07 3.0403e+07 3.1422e+07 3.14315e+07 0
001 323 1 0 3.39569e+07 3.4225e+07 3.5244e+07 3.67004e+07 0
001 324 2 0 3.92069e+07 3.94758e+07 4.04948e+07 5.07843e+07 0
000 325 2 0 6.14083e+07 6.16588e+07 6.26778e+07 6.48741e+07 1
000 326 2 0 7.70601e+07 7.73144e+07 7.83335e+07 8.81257e+07 1
000 327 2 0 9.86255e+07 9.88761e+07 9.98951e+07 9.99968e+07 1
000 328 1 0 1.07261e+08 1.07534e+08 1.08553e+08 1.13555e+08 0
001 329 2 0 1.17521e+08 1.17787e+08 1.18806e+08 1.18923e+08 0
000 330 2 0 1.26041e+08 1.26288e+08 1.27307e+08 1.27611e+08 1
000 331 2 0 1.3474e+08 1.35006e+08 1.36025e+08 1.36678e+08 1
000 332 2 0 1.45845e+08 1.46104e+08 1.47123e+08 1.47544e+08 1
000 333 2 1 1.54984e+08 1.55236e+08 1.56255e+08 1.82533e+08 0
001 334 1 0 1.85253e+08 1.85561e+08 1.8658e+08 1.88229e+08 0
001 335 2 0 1.90987e+08 1.91246e+08 1.92265e+08 1.94508e+08 0
000 336 2 0 2.01748e+08 2.02012e+08 2.03031e+08 2.19873e+08 1
000 337 2 0 2.27166e+08 2.27418e+08 2.28437e+08 2.41273e+08 1
000 338 2 0 2.48775e+08 2.49038e+08 2.50057e+08 2.62272e+08 1
000 339 1 0 2.69755e+08 2.70014e+08 2.71033e+08 3.03789e+08 0
001 340 2 0 3.06633e+08 3.0689e+08 3.07909e+08 3.10542e+08 0
000 341 2 0 3.18042e+08 3.18298e+08 3.19317e+08 3.22089e+08 1
000 342 2 0 3.29346e+08 3.29609e+08 3.30628e+08 4.00909e+08 1
000 343 2 0 4.23528e+08 4.2378e+08 4.24799e+08 4.3449e+08 1
000 344 1 0 4.41606e+08 4.41865e+08 4.42884e+08 4.42895e+08 0
001 345 1 0 4.45672e+08 4.45946e+08 4.46965e+08 4.46979e+08 0
001 346 1 0 4.49639e+08 4.49901e+08 4.5092e+08 4.53377e+08 0
001 347 1 0 4.56539e+08 4.56798e+08 4.57817e+08 4.65758e+08 0
001 348 2 0 4.71339e+08 4.71597e+08 4.72616e+08 4.7279e+08 0
000 349 2 0 4.79864e+08 4.80115e+08 4.81134e+08 4.8497e+08 1
000 350 2 0 4.92362e+08 4.92618e+08 4.93637e+08 4.9409e+08 1
000 351 2 0 5.01727e+08 5.01978e+08 5.02997e+08 5.06195e+08 1
000 352 2 0 5.13392e+08 5.13643e+08 5.14662e+08 5.48717e+08 0
000 353 2 0 5.55893e+08 5.56146e+08 5.57165e+08 5.89048e+08 0
000 354 1 0 6.01173e+08 6.01428e+08 6.02448e+08 6.02524e+08 0
001 355 2 0 6.05293e+08 6.05544e+08 6.06564e+08 6.73495e+08 0
000 356 2 0 6.81309e+08 6.81561e+08 6.8258e+08 6.82616e+08 1
000 357 2 0 6.90004e+08 6.90263e+08 6.91282e+08 6.95477e+08 1
000 358 2 0 7.02603e+08 7.02861e+08 7.0388e+08 7.06482e+08 1
000 359 1 0 7.13779e+08 7.14038e+08 7.15057e+08 7.94703e+08 0
001 360 1 0 8.02016e+08 8.02267e+08 8.03286e+08 8.10149e+08 0
001 361 2 1 8.20585e+08 8.20842e+08 8.21861e+08 8.36446e+08 0
001 362 2 0 8.63129e+08 8.63391e+08 8.6441e+08 8.80328e+08 0
000 363 2 0 8.87784e+08 8.88033e+08 8.89052e+08 9.36969e+08 1
000 364 2 0 9.4414e+08 9.44393e+08 9.45412e+08 1.01508e+09 1
000 365 2 0 1.02466e+09 1.02492e+09 1.02594e+09 1.03105e+09 1
000 366 2 0 1.04449e+09 1.04475e+09 1.04577e+09 1.12212e+09 0
000 367 1 0 1.13277e+09 1.13302e+09 1.13404e+09 1.13407e+09 0
001 368 1 0 1.14006e+09 1.14032e+09 1.14134e+09 1.18498e+09 0
001 369 2 0 1.19155e+09 1.19182e+09 1.19284e+09 1.20941e+09 0
000 370 2 0 1.23134e+09 1.23159e+09 1.23261e+09 1.2409e+09 1
000 371 2 0 1.2505e+09 1.25075e+09 1.25177e+09 1.26436e+09 1
000 372 2 1 1.27161e+09 1.27187e+09 1.27289e+09 1.27498e+09 1
001 373 1 1 1.27853e+09 1.27878e+09 1.2798e+09 1.30471e+09 0
000 374 1 0 1.32105e+09 1.32131e+09 1.32233e+09 1.32773e+09 1
001 375 2 1 1.33707e+09 1.33732e+09 1.33834e+09 1.33942e+09 0
001 376 2 0 1.36228e+09 1.36253e+09 1.36355e+09 1.43367e+09 0
000 377 2 0 1.44112e+09 1.44138e+09 1.4424e+09 1.44859e+09 1
000 378 2 0 1.45753e+09 1.45778e+09 1.4588e+09 1.51393e+09 1
000 379 2 0 1.52129e+09 1.52155e+09 1.52257e+09 1.5226e+09 1
000 380 2 0 1.5298e+09 1.53006e+09 1.53108e+09 1.56362e+09 0
000 381 1 0 1.57116e+09 1.57141e+09 1.57243e+09 1.57244e+09 0
001 382 2 0 1.57769e+09 1.57794e+09 1.57896e+09 1.61364e+09 0
000 383 2 0 1.62673e+09 1.62699e+09 1.62801e+09 1.66349e+09 1
000 384 2 0 1.67094e+09 1.67121e+09 1.67223e+09 1.71142e+09 1
000 