trial trialType response stillTime stimOnset stimOffset respTime correctionTrial correct
001 2 0 9.20168e+06 9.52574e+06 1.0546e+07 5.55409e+08 0
000 002 2 0 5.68356e+08 5.68626e+08 5.69646e+08 5.69657e+08 1
000 003 2 1 5.78297e+08 5.78577e+08 5.79598e+08 5.79616e+08 1
001 004 1 0 5.84254e+08 5.84517e+08 5.85538e+08 5.85694e+08 0
001 005 2 1 5.91941e+08 5.92193e+08 5.93213e+08 5.93232e+08 0
001 006 2 1 5.9813e+08 5.98386e+08 5.99406e+08 5.9942e+08 0
001 007 1 1 6.04864e+08 6.05111e+08 6.06131e+08 6.06136e+08 0
000 008 1 0 6.14929e+08 6.15183e+08 6.16203e+08 6.16391e+08 1
001 009 1 0 6.19356e+08 6.19607e+08 6.20628e+08 6.2323e+08 0
001 010 2 0 6.26e+08 6.26248e+08 6.27268e+08 6.27273e+08 0
000 011 2 0 6.35056e+08 6.35318e+08 6.36338e+08 6.36348e+08 1
000 012 2 0 6.45138e+08 6.45398e+08 6.46418e+08 6.46448e+08 1
000 013 2 0 6.54008e+08 6.54259e+08 6.55279e+08 6.55416e+08 1
000 014 1 1 6.64949e+08 6.65202e+08 6.66222e+08 6.66228e+08 0
000 015 1 0 6.7692e+08 6.77179e+08 6.78199e+08 6.78254e+08 0
001 016 2 1 6.84154e+08 6.84399e+08 6.85419e+08 6.87124e+08 0
001 017 1 0 6.92096e+08 6.92348e+08 6.93368e+08 6.93481e+08 0
001 018 2 1 6.96265e+08 6.96521e+08 6.97542e+08 6.97546e+08 0
001 019 1 0 7.00442e+08 7.00692e+08 7.01712e+08 7.01778e+08 0
001 020 1 0 7.07517e+08 7.07765e+08 7.08785e+08 7.09744e+08 0
001 021 2 0 7.13492e+08 7.13743e+08 7.14763e+08 7.14785e+08 0
000 022 2 0 7.26042e+08 7.26303e+08 7.27323e+08 7.27329e+08 1
000 023 2 0 7.34582e+08 7.34834e+08 7.35854e+08 7.35878e+08 1
000 024 2 0 7.43062e+08 7.43329e+08 7.44349e+08 7.44384e+08 1
000 025 2 0 7.51519e+08 7.5178e+08 7.528e+08 7.52806e+08 0
000 026 1 0 7.6086e+08 7.61123e+08 7.62144e+08 7.62385e+08 0
001 027 2 0 7.65014e+08 7.65259e+08 7.6628e+08 7.66284e+08 0
000 028 2 0 7.73596e+08 7.73852e+08 7.74872e+08 7.74897e+08 1
000 029 2 0 7.82243e+08 7.82505e+08 7.83525e+08 7.83544e+08 1
000 030 2 0 7.91881e+08 7.92135e+08 7.93156e+08 7.93347e+08 1
000 031 1 0 8.00644e+08 8.00892e+08 8.01912e+08 8.02734e+08 0
001 032 2 0 8.08345e+08 8.08599e+08 8.09619e+08 8.09695e+08 0
000 033 2 0 8.16747e+08 8.1701e+08 8.1803e+08 8.18565e+08 1
000 034 2 0 8.26744e+08 8.26995e+08 8.28015e+08 8.28132e+08 1
000 035 2 1 8.35791e+08 8.36045e+08 8.37065e+08 8.37219e+08 1
001 036 1 0 8.42258e+08 8.42509e+08 8.43529e+08 8.43544e+08 0
001 037 2 0 8.46509e+08 8.46769e+08 8.4779e+08 8.50311e+08 0
000 038 2 0 8.575e+08 8.57753e+08 8.58774e+08 8.59307e+08 1
000 039 2 1 8.66423e+08 8.66674e+08 8.67694e+08 8.67703e+08 1
001 040 2 0 8.70934e+08 8.71192e+08 8.72212e+08 8.72715e+08 0
000 041 2 0 8.85747e+08 8.86008e+08 8.87029e+08 8.8765e+08 1
000 042 2 0 8.96172e+08 8.96426e+08 8.97446e+08 8.97959e+08 1
000 043 2 1 9.05379e+08 9.05641e+08 9.06661e+08 9.07092e+08 1
001 044 2 1 9.15129e+08 9.15383e+08 9.16403e+08 9.17019e+08 0
001 045 1 1 9.20589e+08 9.20839e+08 9.21859e+08 9.222e+08 0
000 046 1 1 9.33045e+08 9.33298e+08 9.34318e+08 9.34473e+08 1
000 047 1 0 9.41728e+08 9.41995e+08 9.43015e+08 9.46586e+08 1
001 048 1 1 9.50422e+08 9.50667e+08 9.51687e+08 9.54976e+08 0
000 049 1 0 9.62204e+08 9.6246e+08 9.6348e+08 9.64001e+08 1
001 050 1 1 9.66923e+08 9.6718e+08 9.682e+08 9.69233e+08 0
000 051 1 1 9.77897e+08 9.78149e+08 9.79169e+08 9.79236e+08 1
000 052 1 0 9.86415e+08 9.86678e+08 9.87698e+08 9.87766e+08 1
001 053 1 1 9.90576e+08 9.90837e+08 9.91857e+08 9.91898e+08 0
000 054 1 1 9.9937e+08 9.99626e+08 1.00065e+09 1.00343e+09 1
000 055 1 1 1.01065e+09 1.01091e+09 1.01193e+09 1.01638e+09 1
000 056 1 0 1.02452e+09 1.02478e+09 1.0258e+09 1.02618e+09 1
001 057 1 0 1.02887e+09 1.02912e+09 1.03014e+09 1.03018e+09 0
001 058 2 1 1.03287e+09 1.03313e+09 1.03415e+09 1.03456e+09 0
001 059 1 1 1.03717e+09 1.03742e+09 1.03844e+09 1.03846e+09 0
000 060 1 0 1.04774e+09 1.04799e+09 1.04902e+09 1.05102e+09 1
001 061 1 0 1.05384e+09 1.0541e+09 1.05512e+09 1.05514e+09 0
001 062 1 1 1.05787e+09 1.05813e+09 1.05915e+09 1.05962e+09 0
000 063 1 0 1.06677e+09 1.06703e+09 1.06805e+09 1.06807e+09 1
001 064 1 0 1.07066e+09 1.07091e+09 1.07193e+09 1.07229e+09 0
001 065 2 0 1.07518e+09 1.07544e+09 1.07646e+09 1.07647e+09 0
000 066 2 0 1.0856e+09 1.08587e+09 1.08689e+09 1.08744e+09 1
000 067 2 0 1.09667e+09 1.09692e+09 1.09794e+09 1.09952e+09 1
000 068 2 0 1.11022e+09 1.11048e+09 1.11151e+09 1.11443e+09 1
000 069 2 1 1.12175e+09 1.122e+09 1.12302e+09 1.12359e+09 0
001 070 1 0 1.1266e+09 1.12685e+09 1.12787e+09 1.13123e+09 0
001 071 2 0 1.13653e+09 1.1368e+09 1.13782e+09 1.13838e+09 0
000 072 2 1 1.14737e+09 1.14764e+09 1.14866e+09 1.1494e+09 1
001 073 2 0 1.1521e+09 1.15236e+09 1.15338e+09 1.15467e+09 0
000 074 2 0 1.1617e+09 1.16197e+09 1.16299e+09 1.16612e+09 1
000 075 2 0 1.17351e+09 1.17377e+09 1.17479e+09 1.17714e+09 1
000 076 2 1 1.18449e+09 1.18475e+09 1.18577e+09 1.18681e+09 1
001 077 2 0 1.18945e+09 1.18972e+09 1.19074e+09 1.19189e+09 0
000 078 2 0 1.19993e+09 1.2002e+09 1.20122e+09 1.20552e+09 1
000 079 2 0 1.21431e+09 1.21458e+09 1.2156e+09 1.21873e+09 1
000 080 2 1 1.2275e+09 1.22776e+09 1.22878e+09 1.23663e+09 1
001 081 2 1 1.2442e+09 1.24446e+09 1.24548e+09 1.24549e+09 0
001 082 1 1 1.24854e+09 1.24879e+09 1.24981e+09 1.25025e+09 0
000 083 1 1 1.26039e+09 1.26065e+09 1.26167e+09 1.26274e+09 1
000 084 1 0 1.27154e+09 1.2718e+09 1.27282e+09 1.27348e+09 1
001 085 2 0 1.27598e+09 1.27624e+09 1.27726e+09 1.2777e+09 0
000 086 2 0 1.28751e+09 1.28777e+09 1.28879e+09 1.28954e+09 1
000 087 2 0 1.29857e+09 1.29882e+09 1.29984e+09 1.2999e+09 1
000 088 2 1 1.3079e+09 1.30816e+09 1.30918e+09 1.30931e+09 1
001 089 1 0 1.31629e+09 1.31655e+09 1.31758e+09 1.31759e+09 0
001 090 1 0 1.32168e+09 1.32193e+09 1.32295e+09 1.3268e+09 0
001 091 2 0 1.33028e+09 1.33054e+09 1.33156e+09 1.33568e+09 0
000 092 2 1 1.34475e+09 1.34501e+09 1.34603e+09 1.35014e+09 1
001 093 2 1 1.35449e+09 1.35475e+09 1.35577e+09 1.35578e+09 0
001 094 1 0 1.35865e+09 1.3589e+09 1.35992e+09 1.36393e+09 0
001 095 2 1 1.36677e+09 1.36703e+09 1.36805e+09 1.36806e+09 0
001 096 2 1 1.37179e+09 1.37205e+09 1.37307e+09 1.37561e+09 0
001 097 1 0 1.37915e+09 1.37941e+09 1.38043e+09 1.38045e+09 0
001 098 2 0 1.38349e+09 1.38374e+09 1.38476e+09 1.38758e+09 0
000 099 2 0 1.39745e+09 1.39769e+09 1.39871e+09 1.39877e+09 1
000 100 2 1 1.40595e+09 1.4062e+09 1.40722e+09 1.40879e+09 1
001 101 2 0 1.41128e+09 1.41153e+09 1.41255e+09 1.41647e+09 0
000 102 2 0 1.42391e+09 1.42417e+09 1.42519e+09 1.4252e+09 1
000 103 2 0 1.43259e+09 1.43286e+09 1.43388e+09 1.43388e+09 1
000 104 2 0 1.44271e+09 1.44298e+09 1.444e+09 1.4453e+09 1
000 105 2 0 1.45341e+09 1.45367e+09 1.45469e+09 1.45471e+09 0
000 106 1 0 1.46217e+09 1.46243e+09 1.46345e+09 1.46387e+09 0
001 107 1 1 1.46681e+09 1.46707e+09 1.46809e+09 1.47145e+09 0
000 108 1 1 1.47889e+09 1.47914e+09 1.48016e+09 1.48022e+09 1
000 109 1 1 1.48756e+09 1.4878e+09 1.48883e+09 1.48941e+09 1
000 110 1 1 1.49684e+09 1.4971e+09 1.49812e+09 1.49957e+09 1
000 111 2 1 1.50678e+09 1.50704e+09 1.50806e+09 1.50811e+09 0
001 112 2 0 1.51309e+09 1.51334e+09 1.51436e+09 1.51826e+09 0
000 113 2 1 1.5277e+09 1.52797e+09 1.52899e+09 1.52917e+09 1
001 114 1 0 1.53182e+09 1.53207e+09 1.53309e+09 1.53612e+09 0
001 115 2 0 1.53884e+09 1.53911e+09 1.54013e+09 1.54217e+09 0
000 116 2 1 1.54977e+09 1.55002e+09 1.55104e+09 1.55484e+09 1
001 117 2 1 1.55747e+09 1.55772e+09 1.55874e+09 1.55961e+09 0
001 118 1 1 1.56274e+09 1.56299e+09 1.56401e+09 1.56409e+09 0
000 119 1 0 1.5716e+09 1.57185e+09 1.57287e+09 1.5763e+09 1
001 120 2 1 1.58199e+09 1.58224e+09 1.58326e+09 1.5887e+09 0
001 121 2 1 1.59144e+09 1.5917e+09 1.59273e+09 1.59277e+09 0
001 122 2 0 1.59532e+09 1.59558e+09 1.5966e+09 1.59823e+09 0
000 123 2 1 1.60535e+09 1.6056e+09 1.60662e+09 1.60886e+09 1
001 124 1 0 1.6118e+09 1.61206e+09 1.61308e+09 1.61313e+09 0
001 125 2 1 1.61601e+09 1.61626e+09 1.61728e+09 1.61739e+09 0
001 126 2 0 1.62101e+09 1.62128e+09 1.6223e+09 1.62568e+09 0
000 127 2 0 1.63331e+09 1.63356e+09 1.63458e+09 1.63471e+09 1
000 128 2 0 1.64179e+09 1.64204e+09 1.64306e+09 1.64622e+09 1
000 129 2 1 1.65325e+09 1.65351e+09 1.65453e+09 1.65608e+09 1
001 130 1 1 1.65906e+09 1.65933e+09 1.66035e+09 1.66078e+09 0
000 131 1 0 1.6688e+09 1.66906e+09 1.67008e+09 1.67131e+09 1
001 132 1 1 1.67416e+09 1.67442e+09 1.67544e+09 1.67778e+09 0
000 133 1 0 1.6849e+09 1.68516e+09 1.68618e+09 1.68753e+09 1
001 134 2 0 1.69149e+09 1.69173e+09 1.69275e+09 1.69317e+09 0
000 135 2 0 1.70048e+09 1.70073e+09 1.70175e+09 1.70222e+09 1
000 136 2 0 1.71039e+09 1.71064e+09 1.71166e+09 1.71261e+09 1
000 137 2 0 1.72255e+09 1.7228e+09 1.72382e+09 1.72449e+09 1
000 138 1 1 1.73179e+09 1.73205e+09 1.73307e+09 1.73307e+09 0
000 139 2 0 1.74261e+09 1.74287e+09 1.74389e+09 1.74804e+09 0
000 140 1 0 1.75737e+09 1.75762e+09 1.75864e+09 1.75939e+09 0
001 141 1 0 1.76195e+09 1.76221e+09 1.76323e+09 1.76518e+09 0
001 142 2 0 1.76802e+09 1.76827e+09 1.76929e+09 1.77086e+09 0
000 143 2 0 1.78384e+09 1.7841e+09 1.78512e+09 1.78585e+09 1
000 144 2 0 1.7953e+09 1.79555e+09 1.79657e+09 1.7971e+09 1
000 145 2 0 1.80424e+09 1.8045e+09 1.80552e+09 1.8076e+09 1
000 146 2 1 1.81569e+09 1.81594e+09 1.81696e+09 1.81715e+09 0
001 147 2 0 1.81979e+09 1.82005e+09 1.82107e+09 1.82123e+09 0
000 148 2 0 1.8315e+09 1.83176e+09 1.83278e+09 1.83562e+09 1
000 149 2 0 1.843e+09 1.84325e+09 1.84427e+09 1.84662e+09 1
000 150 2 0 1.85443e+09 1.85468e+09 1.8557e+09 1.85572e+09 1
000 151 1 1 1.86443e+09 1.86469e+09 1.86571e+09 1.86702e+09 0
000 152 1 0 1.87592e+09 1.87617e+09 1.87719e+09 1.87783e+09 0
001 153 1 0 1.88041e+09 1.88066e+09 1.88168e+09 1.8819e+09 0
001 154 1 1 1.8847e+09 1.88496e+09 1.88598e+09 1.88606e+09 0
000 155 1 0 1.89698e+09 1.89724e+09 1.89826e+09 1.89827e+09 1
001 156 1 0 1.90719e+09 1.90745e+09 1.90847e+09 1.90897e+09 0
001 157 1 1 1.91207e+09 1.91233e+09 1.91335e+09 1.91419e+09 0
000 158 1 0 1.92148e+09 1.92173e+09 1.92275e+09 1.9229e+09 1
001 159 1 0 1.9262e+09 1.92644e+09 1.92747e+09 1.93068e+09 0
001 160 1 0 1.93601e+09 1.93627e+09 1.93729e+09 1.9373e+09 0
001 161 2 0 1.94034e+09 1.94061e+09 1.94163e+09 1.94375e+09 0
000 162 2 0 1.95079e+09 1.95103e+09 1.95205e+09 1.95206e+09 1
000 163 2 0 1.9594e+09 1.95967e+09 1.96069e+09 1.96091e+09 1
000 164 2 1 1.96915e+09 1.96941e+09 1.97043e+09 1.97423e+09 1
001 165 2 0 1.97759e+09 1.97784e+09 1.97886e+09 1.98119e+09 0
000 166 2 0 1.98832e+09 1.98858e+09 1.9896e+09 1.99388e+09 1
000 167 2 0 2.00114e+09 2.00139e+09 2.00241e+09 2.00242e+09 1
000 168 2 0 2.01359e+09 2.01385e+09 2.01487e+09 2.02005e+09 1
000 169 1 0 2.02839e+09 2.02864e+09 2.02966e+09 2.03027e+09 0
001 170 2 0 2.03281e+09 2.03306e+09 2.03408e+09 2.0341e+09 0
000 171 2 0 2.04135e+09 2.0416e+09 2.04263e+09 2.04273e+09 1
000 172 2 0 2.05269e+09 2.05294e+09 2.05396e+09 2.05904e+09 1
000 173 2 0 2.06645e+09 2.06669e+09 2.06771e+09 2.07087e+09 1
000 174 1 1 2.07887e+09 2.07912e+09 2.08014e+09 2.08117e+09 0
000 175 1 1 2.08913e+09 2.08938e+09 2.0904e+09 2.09117e+09 0
000 176 1 0 2.09836e+09 2.09861e+09 2.09963e+09 2.09974e+09 0
001 177 2 1 2.10381e+09 2.10407e+09 2.10509e+09 2.10569e+09 0
001 178 1 0 2.10835e+09 2.1086e+09 2.10962e+09 2.11301e+09 0
001 179 1 0 2.11563e+09 2.11588e+09 2.1169e+09 2.11691e+09 0
001 180 2 1 2.11985e+09 2.12011e+09 2.12113e+09 2.12129e+09 0
001 181 2 0 2.12416e+09 2.12443e+09 2.12545e+09 2.12546e+09 0
000 182 2 0 2.13271e+09 2.13297e+09 2.13399e+09 2.13646e+09 1
000 183 2 0 2.14526e+09 2.14551e+09 2.14653e+09 2.1467e+09 1
000 184 2 0 2.15376e+09 2.15402e+09 2.15504e+09 2.15509e+09 1
000 185 2 1 2.16442e+09 2.16467e+09 2.16569e+09 2.16575e+09 0
001 186 2 0 2.16863e+09 2.16889e+09 2.16991e+09 2.17089e+09 0
000 187 2 0 2.17843e+09 2.17868e+09 2.1797e+09 2.17973e+09 1
000 188 2 0 2.19182e+09 2.19208e+09 2.1931e+09 2.19332e+09 1
000 189 2 0 2.20168e+09 2.20193e+09 2.20295e+09 2.20656e+09 1
000 190 2 1 2.21418e+09 2.21443e+09 2.21545e+09 2.21566e+09 0
001 191 1 0 2.21926e+09 2.21951e+09 2.22053e+09 2.22059e+09 0
001 192 1 0 2.22355e+09 2.2238e+09 2.22482e+09 2.22738e+09 0
001 193 2 0 2.23011e+09 2.23037e+09 2.23139e+09 2.2314e+09 0
000 194 2 0 2.23907e+09 2.23932e+09 2.24034e+09 2.24334e+09 1
000 195 2 0 2.2505e+09 2.25075e+09 2.25177e+09 2.2518e+09 1
000 196 2 0 2.26247e+09 2.26273e+09 2.26375e+09 2.26392e+09 1
000 197 1 1 2.27316e+09 2.2734e+09 2.27442e+09 2.2745e+09 0
000 198 1 1 2.28162e+09 2.28187e+09 2.28289e+09 2.28291e+09 0
000 199 2 0 2.29018e+09 2.29043e+09 2.29145e+09 2.29146e+09 0
000 200 1 0 2.29917e+09 2.29942e+09 2.30044e+09 2.30052e+09 0
001 201 2 0 2.30589e+09 2.30614e+09 2.30716e+09 2.31058e+09 0
000 202 2 1 2.32106e+09 2.32133e+09 2.32235e+09 2.32337e+09 1
001 203 1 0 2.32656e+09 2.32682e+09 2.32784e+09 2.32801e+09 0
001 204 2 0 2.3309e+09 2.33115e+09 2.33217e+09 2.33516e+09 0
000 205 2 1 2.34238e+09 2.34263e+09 2.34365e+09 2.34372e+09 1
001 206 2 0 2.34705e+09 2.3473e+09 2.34832e+09 2.35002e+09 0
000 207 2 0 2.35754e+09 2.35779e+09 2.35881e+09 2.36157e+09 1
000 208 2 1 2.37022e+09 2.37046e+09 2.37149e+09 2.37153e+09 1
001 209 1 1 2.37807e+09 2.37832e+09 2.37934e+09 2.38051e+09 0
000 210 1 0 2.39277e+09 2.39302e+09 2.39404e+09 2.39415e+09 1
001 211 2 1 2.39862e+09 2.39888e+09 2.3999e+09 2.40043e+09 0
001 212 1 0 2.40297e+09 2.40323e+09 2.40425e+09 2.40741e+09 0
001 213 1 0 2.41022e+09 2.41049e+09 2.41151e+09 2.41152e+09 0
001 214 2 1 2.41453e+09 2.41478e+09 2.4158e+09 2.41884e+09 0
001 215 2 1 2.42151e+09 2.42177e+09 2.42279e+09 2.42281e+09 0
001 216 2 0 2.42551e+09 2.42577e+09 2.42679e+09 2.42693e+09 0
000 217 2 0 2.43542e+09 2.43568e+09 2.4367e+09 2.43716e+09 1
000 218 2 0 2.44672e+09 2.44697e+09 2.44799e+09 2.44833e+09 1
000 219 2 0 2.45564e+09 2.4559e+09 2.45692e+09 2.45693e+09 1
000 220 1 1 2.46414e+09 2.4644e+09 2.46542e+09 2.46762e+09 0
000 221 1 0 2.47504e+09 2.47529e+09 2.47631e+09 2.47642e+09 0
001 222 2 0 2.48688e+09 2.48714e+09 2.48816e+09 2.48865e+09 0
000 223 2 0 2.49618e+09 2.49644e+09 2.49746e+09 2.50005e+09 1
000 224 2 1 2.50994e+09 2.51019e+09 2.51121e+09 2.51768e+09 1
001 225 1 1 2.52048e+09 2.52074e+09 2.52176e+09 2.52177e+09 0
000 226 1 0 2.53004e+09 2.53029e+09 2.53131e+09 2.53146e+09 1
001 227 2 0 2.53582e+09 2.53608e+09 2.5371e+09 2.54096e+09 0
000 228 2 1 2.54833e+09 2.54859e+09 2.54961e+09 2.55039e+09 1
001 229 2 1 2.56e+09 2.56026e+09 2.56128e+09 2.56455e+09 0
001 230 2 1 2.56735e+09 2.56761e+09 2.56863e+09 2.57782e+09 0
001 231 1 0 2.58104e+09 2.58128e+09 2.5823e+09 2.58293e+09 0
001 232 1 1 2.58548e+09 2.58573e+09 2.58675e+09 2.58919e+09 0
000 233 1 0 2.59631e+09 2.59657e+09 2.59759e+09 2.60223e+09 1
001 234 1 0 2.60555e+09 2.60581e+09 2.60683e+09 2.60684e+09 0
001 235 2 1 2.61169e+09 2.61194e+09 2.61296e+09 2.61656e+09 0
001 236 1 0 2.62067e+09 2.62092e+09 2.62194e+09 2.6221e+09 0
001 237 2 1 2.63662e+09 2.63687e+09 2.63789e+09 3.12791e+09 0
001 238 2 0 3.1384e+09 3.13866e+09 3.13968e+09 3.14053e+09 0
000 239 2 0 3.1524e+09 3.15266e+09 3.15368e+09 3.15479e+09 1
000 240 2 1 3.16232e+09 3.16257e+09 3.16359e+09 3.16423e+09 1
001 241 2 1 3.16763e+09 3.16789e+09 3.16891e+09 3.16892e+09 0
001 242 1 1 3.17698e+09 3.17722e+09 3.17824e+09 3.17826e+09 0
000 243 1 1 3.18564e+09 3.1859e+09 3.18692e+09 3.19163e+09 1
000 244 1 1 3.19965e+09 3.1999e+09 3.20092e+09 3.20478e+09 1
000 245 1 1 3.21227e+09 3.21252e+09 3.21354e+09 3.21361e+09 1
000 246 2 0 3.22071e+09 3.22096e+09 3.22198e+09 3.23193e+09 0
000 247 2 0 3.2392e+09 3.23945e+09 3.24047e+09 3.26467e+09 0
000 248 2 1 3.27233e+09 3.27259e+09 3.27361e+09 3.29768e+09 0
001 249 1 1 3.30678e+09 3.30704e+09 3.30806e+09 3.30808e+09 0
000 250 1 1 3.31545e+09 3.31571e+09 3.31673e+09 3.31674e+09 1
000 251 1 1 3.32411e+09 3.32437e+09 3.32539e+09 3.3896e+09 1
000 252 1 1 3.39678e+09 3.39703e+09 3.39805e+09 3.39879e+09 1
000 253 1 1 3.40618e+09 3.40644e+09 3.40746e+09 3.42997e+09 0
000 254 1 1 3.4383e+09 3.43857e+09 3.43959e+09 3.4408e+09 0
000 255 1 1 3.44804e+09 3.4483e+09 3.44932e+09 3.4626e+09 0
000 256 2 1 3.47212e+09 3.47238e+09 3.4734e+09 3.48037e+09 0
001 257 2 1 3.48495e+09 3.4852e+09 3.48622e+09 3.48623e+09 0
001 258 2 1 3.48906e+09 3.48931e+09 3.49033e+09 3.49033e+09 0
001 259 1 1 3.49766e+09 3.49791e+09 3.49893e+09 3.50058e+09 0
000 260 1 1 3.50936e+09 3.50961e+09 3.51063e+09 3.51066e+09 1
000 261 1 0 3.5215e+09 3.52174e+09 3.52276e+09 3.52289e+09 1
001 262 2 1 3.52567e+09 3.52592e+09 3.52694e+09 3.52884e+09 0
001 263 1 1 3.53368e+09 3.53393e+09 3.53495e+09 3.53903e+09 0
000 264 1 0 3.54646e+09 3.54671e+09 3.54773e+09 3.5554e+09 1
001 265 2 1 3.55917e+09 3.55943e+09 3.56045e+09 3.56046e+09 0
001 266 1 1 3.56318e+09 3.56345e+09 3.56447e+09 3.56544e+09 0
000 267 1 1 3.57871e+09 3.57897e+09 3.57999e+09 3.58326e+09 1
000 268 1 1 3.59137e+09 3.59162e+09 3.59264e+09 3.59266e+09 1
000 269 1 1 3.59994e+09 3.60019e+09 3.60121e+09 3.60576e+09 1
000 270 2 1 3.6129e+09 3.61314e+09 3.61416e+09 3.62765e+09 0
001 271 2 1 3.63048e+09 3.63074e+09 3.63176e+09 3.63176e+09 0
001 272 2 1 3.63432e+09 3.63457e+09 3.63559e+09 3.63697e+09 0
001 273 1 1 3.64684e+09 3.6471e+09 3.64812e+09 3.65271e+09 0
000 274 1 1 3.66111e+09 3.66136e+09 3.66238e+09 3.78598e+09 1
000 275 1 1 3.79308e+09 3.79333e+09 3.79435e+09 3.79621e+09 1
000 276 1 1 3.80335e+09 3.8036e+09 3.80462e+09 3.8058e+09 1
000 277 2 1 3.81305e+09 3.8133e+09 3.81432e+09 3.85357e+09 0
001 278 2 0 3.85829e+09 3.85855e+09 3.85957e+09 3.85984e+09 0
000 279 2 1 3.86693e+09 3.86719e+09 3.86821e+09 3.89359e+09 1
001 280 1 1 3.90132e+09 3.90157e+09 3.90259e+09 3.90488e+09 0
000 281 1 1 3.91295e+09 3.9132e+09 3.91422e+09 3.93926e+09 1
000 282 1 1 3.9467e+09 3.94696e+09 3.94798e+09 3.94827e+09 1
000 283 1 0 3.95536e+09 3.95561e+09 3.95663e+09 3.95677e+09 1
001 284 1 1 3.95958e+09 3.95983e+09 3.96085e+09 3.96086e+09 0
000 285 1 1 3.97799e+09 3.97824e+09 3.97926e+09 3.98057e+09 1
000 286 1 1 3.98799e+09 3.98824e+09 3.98926e+09 4.05837e+09 1
000 287 1 1 4.06663e+09 4.06689e+09 4.06791e+09 4.06824e+09 1
000 288 2 1 4.07539e+09 4.07564e+09 4.07666e+09 4.08757e+09 0
001 289 1 1 4.09956e+09 4.09982e+09 4.10084e+09 4.10085e+09 0
000 290 1 1 4.11003e+09 4.11028e+09 4.1113e+09 4.11142e+09 1
000 291 1 1 4.12087e+09 4.12112e+09 4.12214e+09 4.13496e+09 1
000 292 1 1 4.14213e+09 4.14238e+09 4.1434e+09 4.15636e+09 1
000 293 2 1 4.16353e+09 4.16379e+09 4.16481e+09 4.22106e+09 0
001 294 2 1 4.23286e+09 4.23311e+09 4.23413e+09 4.23417e+09 0
001 295 1 1 4.2537e+09 4.25394e+09 4.25496e+09 4.25539e+09 0
000 296 1 0 4.26254e+09 4.26279e+09 4.26381e+09 4.27884e+09 1
001 297 2 1 4.28162e+09 4.28188e+09 4.2829e+09 4.28313e+09 0
001 298 2 1 4.28726e+09 4.28752e+09 4.28854e+09 4.28855e+09 0
001 299 1 1 4.29137e+09 4.29162e+09 4.29264e+09 4.2927e+09 0
000 300 1 1 4.94798e+06 5.19556e+06 6.21584e+06 6.84077e+06 1
000 301 1 0 1.50252e+07 1.52679e+07 1.62882e+07 1.64867e+07 1
001 302 2 1 1.99137e+07 2.01674e+07 2.11877e+07 2.16034e+07 0
001 303 1 1 2.43487e+07 2.45973e+07 2.56175e+07 2.70422e+07 0
000 304 1 1 3.72767e+07 3.75381e+07 3.85584e+07 4.1379e+07 1
000 305 1 1 5.83998e+07 5.86475e+07 5.96678e+07 5.99784e+07 1
000 306 1 1 6.97078e+07 6.99648e+07 7.09851e+07 7.53008e+07 1
000 307 1 1 8.41564e+07 8.44012e+07 8.54215e+07 1.27035e+08 0
000 308 1 0 1.34443e+08 1.34694e+08 1.35714e+08 1.36224e+08 0
001 309 1 0 1.47371e+08 1.47632e+08 1.48652e+08 1.48811e+08 0
001 310 1 1 1.53174e+08 1.53435e+08 1.54456e+08 1.54489e+08 0
000 311 1 0 1.67508e+08 1.67771e+08 1.68791e+08 1.6939e+08 1
001 312 2 1 1.72861e+08 1.73115e+08 1.74135e+08 1.74153e+08 0
001 313 1 1 1.76719e+08 1.76972e+08 1.77992e+08 1.8026e+08 0
000 314 1 1 1.88312e+08 1.88568e+08 1.89589e+08 1.91896e+08 1
000 315 1 1 1.99125e+08 1.99385e+08 2.00406e+08 2.02431e+08 1
000 316 1 1 2.15447e+08 2.157e+08 2.1672e+08 2.17471e+08 1
000 317 1 1 2.29713e+08 2.29966e+08 2.30987e+08 2.30991e+08 0
000 318 2 0 2.40201e+08 2.40455e+08 2.41475e+08 2.41763e+08 0
000 319 2 1 2.50476e+08 2.50734e+08 2.51754e+08 2.51863e+08 0
001 320 2 1 2.71845e+08 2.72093e+08 2.73114e+08 2.73129e+08 0
001 321 2 1 2.76062e+08 2.76324e+08 2.77345e+08 2.78052e+08 0
001 322 2 1 2.808e+08 2.81049e+08 2.82069e+08 2.8289e+08 0
001 323 1 1 2.88285e+08 2.88533e+08 2.89553e+08 3.83418e+08 0
000 324 1 1 3.92004e+08 3.92259e+08 3.9328e+08 3.96608e+08 1
000 325 1 1 4.03859e+08 4.04111e+08 4.05131e+08 4.35433e+08 1
000 326 1 1 4.45085e+08 4.45343e+08 4.46363e+08 4.47227e+08 1
000 327 1 1 4.54629e+08 4.54881e+08 4.55901e+08 4.56909e+08 0
000 328 1 1 4.64192e+08 4.64445e+08 4.65465e+08 4.70688e+08 0
000 329 1 1 4.77812e+08 4.78064e+08 4.79085e+08 4.81084e+08 0
000 330 1 1 4.88254e+08 4.88501e+08 4.89522e+08 4.92717e+08 0
000 331 1 1 5.0049e+08 5.00747e+08 5.01767e+08 5.11349e+08 0
000 332 1 1 5.22776e+08 5.23022e+08 5.24042e+08 5.28016e+08 0
000 333 2 1 5.36365e+08 5.36613e+08 5.37633e+08 5.49129e+08 0
001 334 1 1 5.52339e+08 5.52584e+08 5.53604e+08 5.53609e+08 0
000 335 1 0 5.67712e+08 5.67974e+08 5.68995e+08 5.70843e+08 1
001 336 1 1 5.73564e+08 5.73822e+08 5.74842e+08 5.76034e+08 0
000 337 1 1 5.85983e+08 5.86238e+08 5.87258e+08 5.87879e+08 1
000 338 1 1 5.96332e+08 5.96582e+08 5.97603e+08 6.01141e+08 1
000 339 1 1 6.09666e+08 6.09919e+08 6.1094e+08 6.14584e+08 1
000 340 2 1 6.27382e+08 6.2763e+08 6.28651e+08 6.29086e+08 0
001 341 2 1 6.32075e+08 6.32324e+08 6.33344e+08 6.3348e+08 0
001 342 2 1 6.47072e+08 6.4732e+08 6.48341e+08 6.48356e+08 0
001 343 1 1 6.51311e+08 6.51573e+08 6.52593e+08 6.54357e+08 0
000 344 1 1 6.67238e+08 6.67497e+08 6.68517e+08 6.69932e+08 1
000 345 1 1 6.77759e+08 6.78011e+08 6.79031e+08 6.94208e+08 1
000 346 1 1 7.0323e+08 7.03483e+08 7.04503e+08 7.04752e+08 1
000 347 2 1 7.13501e+08 7.13763e+08 7.14784e+08 7.14888e+08 0
001 348 2 1 7.22434e+08 7.22699e+08 7.23719e+08 7.23724e+08 0
001 349 2 1 7.26288e+08 7.26543e+08 7.27563e+08 7.27653e+08 0
001 350 1 1 7.30791e+08 7.31043e+08 7.32063e+08 7.32138e+08 0
000 351 1 1 7.417e+08 7.41947e+08 7.42968e+08 7.42973e+08 1
000 352 1 1 7.52145e+08 7.52398e+08 7.53418e+08 7.56357e+08 1
000 353 1 1 7.63489e+08 7.63739e+08 7.64759e+08 7.86121e+08 1
000 354 1 1 7.96162e+08 7.96421e+08 7.97441e+08 8.08486e+08 0
000 355 1 1 8.18471e+08 8.18723e+08 8.19743e+08 8.68797e+08 0
000 356 1 1 8.87132e+08 8.87389e+08 8.88409e+08 8.88773e+08 0
000 357 2 1 8.97737e+08 8.97998e+08 8.99018e+08 9.00913e+08 0
001 358 2 1 9.05763e+08 9.06019e+08 9.07039e+08 9.07248e+08 0
001 359 2 1 9.09996e+08 9.10255e+08 9.11275e+08 9.12823e+08 0
001 360 2 1 9.16317e+08 9.1658e+08 9.17601e+08 9.22147e+08 0
001 361 2 1 9.29217e+08 9.29479e+08 9.30499e+08 9.31371e+08 0
001 362 1 1 9.39644e+08 9.39892e+08 9.40912e+08 9.4154e+08 0
000 363 1 1 9.50747e+08 9.51014e+08 9.52034e+08 9.52055e+08 1
000 364 1 1 9.62601e+08 9.62861e+08 9.63882e+08 9.64841e+08 1
000 365 1 1 9.73432e+08 9.73677e+08 9.74697e+08 9.7555e+08 1
000 366 1 1 9.85862e+08 9.8612e+08 9.8714e+08 9.91489e+08 0
000 367 1 1 1.00058e+09 1.00083e+09 1.00185e+09 1.00332e+09 0
000 368 2 1 1.01223e+09 1.01249e+09 1.01351e+09 1.01375e+09 0
001 369 2 1 1.01665e+09 1.01691e+09 1.01793e+09 1.018e+09 0
001 370 2 1 1.02118e+09 1.02144e+09 1.02246e+09 1.03833e+09 0
001 371 2 1 1.04132e+09 1.04157e+09 1.04259e+09 1.04375e+09 0
001 372 1 1 1.04637e+09 1.04663e+09 1.04765e+09 1.05634e+09 0
000 373 1 1 1.06466e+09 1.06492e+09 1.06594e+09 1.06778e+09 1
000 374 1 1 1.07655e+09 1.07681e+09 1.07783e+09 1.08155e+09 1
000 375 1 1 1.08875e+09 1.08901e+09 1.09003e+09 1.11385e+09 1
000 376 1 1 1.1214e+09 1.12166e+09 1.12268e+09 1.12996e+09 0
000 377 2 0 1.14239e+09 1.14264e+09 1.14366e+09 1.14404e+09 0
000 378 2 1 1.1557e+09 1.15595e+09 1.15697e+09 1.18646e+09 0
001 379 2 1 1.19946e+09 1.19971e+09 1.20073e+09 1.20174e+09 0
001 380 1 1 1.20529e+09 1.20555e+09 1.20657e+09 1.20661e+09 0
000 381 1 1 1.21757e+09 1.21784e+09 1.21886e+09 1.22244e+09 1
000 382 1 1 1.23591e+09 1.23617e+09 1.23719e+09 1.23757e+09 1
000 383 1 1 1.25231e+09 1.25257e+09 1.25359e+09 1.25423e+09 1
000 384 1 1 1.26446e+09 1.26472e+09 1.26575e+09 1.26622e+09 0
000 385 2 1 1.27586e+09 1.27612e+09 1.27714e+09 1.28002e+09 0
001 386 1 1 1.2845e+09 1.28476e+09 1.28578e+09 1.28967e+09 0
000 387 1 1 1.29927e+09 1.29953e+09 1.30055e+09 1.30187e+09 1
000 388 1 1 1.30911e+09 1.30937e+09 1.31039e+09 1.31119e+09 1
000 389 1 1 1.31863e+09 1.31888e+09 1.3199e+09 1.32233e+09 1
000 390 1 1 1.32944e+09 1.32971e+09 1.33073e+09 1.33098e+09 0
000 391 1 1 1.33811e+09 1.33838e+09 1.3394e+09 1.34015e+09 0
000 392 1 1 1.3475e+09 1.34776e+09 1.34878e+09 1.3525e+09 0
000 393 1 1 1.36087e+09 1.36113e+09 1.36215e+09 1.36337e+09 0
000 394 2 1 1.37073e+09 1.371e+09 1.37202e+09 1.37468e+09 0
001 395 1 0 1.379e+09 1.37926e+09 1.38028e+09 1.38039e+09 0
001 396 1 1 1.38334e+09 1.38361e+09 1.38463e+09 1.38774e+09 0
000 397 1 1 1.39579e+09 1.39606e+09 1.39708e+09 1.39745e+09 1
000 398 1 1 1.41037e+09 1.41063e+09 1.41165e+09 1.41382e+09 1
000 399 1 1 1.42136e+09 1.42164e+09 1.42266e+09 1.42405e+09 1
000 400 1 1 1.43122e+09 1.43147e+09 1.43249e+09 1.43369e+09 0
000 401 2 1 1.44153e+09 1.44178e+09 1.4428e+09 1.46964e+09 0
001 402 1 1 1.4734e+09 1.47365e+09 1.47467e+09 1.47763e+09 0
000 403 1 1 1.48657e+09 1.48684e+09 1.48786e+09 1.48793e+09 1
000 404 1 1 1.49632e+09 1.49659e+09 1.49761e+09 1.50069e+09 1
000 405 1 1 1.50838e+09 1.50864e+09 1.50966e+09 1.51408e+09 1
000 406 1 1 1.52156e+09 1.52181e+09 1.52283e+09 1.52369e+09 0
000 407 1 1 1.55187e+09 1.55213e+09 1.55315e+09 1.55399e+09 0
000 408 1 1 1.56623e+09 1.56649e+09 1.56751e+09 1.5679e+09 0
000 409 2 1 1.57504e+09 1.57531e+09 1.57633e+09 1.58141e+09 0
001 410 1 1 1.58417e+09 1.58443e+09 1.58545e+09 1.59929e+09 0
000 411 1 1 1.60872e+09 1.60897e+09 1.60999e+09 1.61071e+09 1
000 412 1 1 1.62834e+09 1.62861e+09 1.62963e+09 1.62965e+09 1
000 413 1 1 1.63804e+09 1.6383e+09 1.63932e+09 1.64114e+09 1
000 414 2 1 1.64994e+09 1.65019e+09 1.65121e+09 1.65412e+09 0
001 415 1 1 1.65997e+09 1.66023e+09 1.66125e+09 1.66387e+09 0
000 416 1 0 1.68045e+09 1.68069e+09 1.68171e+09 1.68336e+09 1
001 417 1 1 1.68646e+09 1.68672e+09 1.68775e+09 1.68775e+09 0
000 418 1 1 1.6949e+09 1.69516e+09 1.69618e+09 1.70531e+09 1
000 419 1 1 1.71263e+09 1.71288e+09 1.7139e+09 1.71392e+09 1
000 420 1 1 1.7286e+09 1.72886e+09 1.72988e+09 1.73375e+09 1
000 421 2 1 1.74147e+09 1.74173e+09 1.74275e+09 1.74396e+09 0
001 422 1 1 1.75033e+09 1.75059e+09 1.75161e+09 1.7519e+09 0
000 423 1 1 1.76162e+09 1.76188e+09 1.7629e+09 1.76633e+09 1
000 424 1 1 1.77364e+09 1.77388e+09 1.7749e+09 1.77731e+09 1
000 425 1 1 1.78628e+09 1.78654e+09 1.78756e+09 1.79141e+09 1
000 426 1 1 1.80416e+09 1.80442e+09 1.80544e+09 1.80773e+09 0
000 427 2 1 1.81551e+09 1.81577e+09 1.81679e+09 1.82052e+09 0
001 428 1 1 1.82841e+09 1.82868e+09 1.8297e+09 1.82971e+09 0
000 429 1 0 1.8372e+09 1.83746e+09 1.83848e+09 1.85756e+09 1
001 430 2 1 1.86118e+09 1.86144e+09 1.86246e+09 1.86269e+09 0
001 431 1 1 1.86526e+09 1.86551e+09 1.86653e+09 1.86654e+09 0
000 432 1 1 1.88345e+09 1.8837e+09 1.88472e+09 1.88564e+09 1
000 433 1 1 1.89434e+09 1.8946e+09 1.89562e+09 1.89649e+09 1
000 434 1 1 1.9056e+09 1.90586e+09 1.90688e+09 1.90725e+09 1
000 435 2 1 1.91538e+09 1.91565e+09 1.91667e+09 1.92721e+09 0
001 436 2 1 1.93223e+09 1.93248e+09 1.9335e+09 1.93357e+09 0
001 437 2 1 1.93662e+09 1.93687e+09 1.93789e+09 1.93868e+09 0
001 438 2 0 1.94163e+09 1.94188e+09 1.9429e+09 1.96194e+09 0
000 439 2 1 1.97099e+09 1.97125e+09 1.97227e+09 1.97236e+09 1
001 440 2 1 1.97492e+09 1.97519e+09 1.97621e+09 1.97621e+09 0
001 441 1 1 1.9801e+09 1.98036e+09 1.98138e+09 1.98239e+09 0
000 442 1 1 1.98971e+09 1.98997e+09 1.99099e+09 1.99212e+09 1
000 443 1 1 2.005e+09 2.00526e+09 2.00628e+09 2.0079e+09 1
000 444 1 1 2.01598e+09 2.01623e+09 2.01725e+09 2.02086e+09 1
000 445 2 1 2.02912e+09 2.02938e+09 2.0304e+09 2.03211e+09 0
001 446 1 1 2.03563e+09 2.03588e+09 2.0369e+09 2.03789e+09 0
000 447 1 1 2.04601e+09 2.04626e+09 2.04728e+09 2.04968e+09 1
000 448 1 1 2.05726e+09 2.05751e+09 2.05853e+09 2.05909e+09 1
000 449 1 1 2.06638e+09 2.06664e+09 2.06766e+09 2.0682e+09 1
000 450 2 1 2.08101e+09 2.08128e+09 2.0823e+09 2.08254e+09 0
001 451 2 1 2.08525e+09 2.08551e+09 2.08653e+09 2.08808e+09 0
001 452 1 1 2.09077e+09 2.09102e+09 2.09204e+09 2.09234e+09 0
000 453 1 1 2.11244e+09 2.11269e+09 2.11371e+09 2.11508e+09 1
000 454 1 1 2.12269e+09 2.12295e+09 2.12397e+09 2.12487e+09 1
000 455 1 1 2.13223e+09 2.13249e+09 2.13351e+09 2.13429e+09 1
000 456 2 1 2.14589e+09 2.14614e+09 2.14716e+09 2.1501e+09 0
001 457 2 1 2.15914e+09 2.15939e+09 2.16042e+09 2.16206e+09 0
001 458 1 1 2.16909e+09 2.16935e+09 2.17037e+09 2.17127e+09 0
000 459 1 0 2.1832e+09 2.18346e+09 2.18448e+09 2.18459e+09 1
001 460 1 1 2.18746e+09 2.18771e+09 2.18873e+09 2.18893e+09 0
000 461 1 1 2.20167e+09 2.20193e+09 2.20295e+09 2.20457e+09 1
000 462 1 1 2.21367e+09 2.21392e+09 2.21494e+09 2.21681e+09 1
000 463 1 1 2.23114e+09 2.2314e+09 2.23242e+09 2.23485e+09 1
000 464 1 0 2.24828e+09 2.24856e+09 2.24958e+09 2.24961e+09 0
001 465 2 1 2.25421e+09 2.25446e+09 2.25548e+09 2.25551e+09 0
001 466 2 1 2.25901e+09 2.25926e+09 2.26028e+09 2.27224e+09 0
001 467 1 1 2.277e+09 2.27725e+09 2.27827e+09 2.27927e+09 0
000 468 1 1 2.28936e+09 2.28963e+09 2.29065e+09 2.29141e+09 1
000 469 1 1 2.30011e+09 2.30037e+09 2.30139e+09 2.30325e+09 1
000 470 1 1 2.31146e+09 2.31171e+09 2.31273e+09 2.32002e+09 1
000 471 2 1 2.32728e+09 2.32753e+09 2.32855e+09 2.32881e+09 0
001 472 2 0 2.33135e+09 2.33161e+09 2.33263e+09 2.33264e+09 0
000 473 2 1 2.34223e+09 2.34248e+09 2.3435e+09 2.34356e+09 1
001 474 1 1 2.34708e+09 2.34733e+09 2.34835e+09 2.37172e+09 0
000 475 1 1 2.3828e+09 2.38305e+09 2.38407e+09 2.38766e+09 1
000 476 1 1 2.39618e+09 2.39643e+09 2.39745e+09 2.40372e+09 1
000 477 1 1 2.4125e+09 2.41275e+09 2.41377e+09 2.41539e+09 1
000 478 1 1 2.42954e+09 2.42979e+09 2.43081e+09 2.44814e+09 0
000 479 2 1 2.45547e+09 2.45571e+09 2.45673e+09 2.45886e+09 0
001 480 2 1 2.47406e+09 2.47433e+09 2.47535e+09 2.47848e+09 0
001 481 1 1 2.48992e+09 2.49018e+09 2.4912e+09 2.49126e+09 0
000 482 1 1 2.50402e+09 2.50427e+09 2.50529e+09 2.50532e+09 1
000 483 1 1 2.51278e+09 2.51303e+09 2.51405e+09 2.51486e+09 1
000 484 1 1 2.52552e+09 2.52579e+09 2.52681e+09 2.52722e+09 1
000 485 1 0 2.53458e+09 2.53483e+09 2.53586e+09 2.53602e+09 0
001 486 2 1 2.55297e+09 2.55322e+09 2.55424e+09 2.55494e+09 0
001 487 2 0 2.55893e+09 2.55919e+09 2.56021e+09 2.5603e+09 0
000 488 2 1 2.57749e+09 2.57776e+09 2.57878e+09 2.57984e+09 1
001 489 2 1 2.58295e+09 2.5832e+09 2.58422e+09 2.58581e+09 0
001 490 1 1 2.603e+09 2.60325e+09 2.60427e+09 2.6069e+09 0
000 491 1 1 2.61906e+09 2.61932e+09 2.62035e+09 2.62423e+09 1
000 492 1 1 2.63196e+09 2.63222e+09 2.63325e+09 2.63433e+09 1
000 493 1 1 2.65049e+09 2.65076e+09 2.65178e+09 2.65386e+09 1
000 494 1 1 2.66109e+09 2.66133e+09 2.66236e+09 2.66356e+09 0
000 495 1 1 2.67275e+09 2.673e+09 2.67402e+09 2.68889e+09 0
000 496 2 1 2.69943e+09 2.69968e+09 2.7007e+09 2.70073e+09 0
001 497 2 0 2.70363e+09 2.70388e+09 2.7049e+09 2.70493e+09 0
000 498 2 0 2.71887e+09 2.71913e+09 2.72015e+09 2.72254e+09 1
000 499 2 1 2.72976e+09 2.73002e+09 2.73104e+09 2.73149e+09 1
001 500 1 1 2.73443e+09 2.7347e+09 2.73572e+09 2.73573e+09 0
000 501 1 1 2.74308e+09 2.74335e+09 2.74437e+09 2.74438e+09 1
000 502 1 1 2.75353e+09 2.7538e+09 2.75482e+09 2.75938e+09 1
000 503 1 1 2.76681e+09 2.76708e+09 2.7681e+09 3.09631e+09 1
000 