trial trialType response stillTime stimOnset stimOffset respTime correctionTrial correct
001 1 0 3.05768e+06 3.32135e+06 4.34163e+06 3.25825e+08 0
001 002 1 0 4.08499e+08 4.08763e+08 4.09783e+08 4.09815e+08 0
001 003 1 1 4.28901e+08 4.29162e+08 4.30182e+08 4.30303e+08 0
000 004 1 1 4.40446e+08 4.40698e+08 4.41718e+08 4.42195e+08 1
000 005 1 1 4.60806e+08 4.61055e+08 4.62076e+08 4.63188e+08 1
000 006 1 1 4.70502e+08 4.70754e+08 4.71774e+08 4.71787e+08 1
000 007 1 0 4.7972e+08 4.79968e+08 4.80989e+08 4.81019e+08 0
001 008 1 0 4.997e+08 4.99951e+08 5.00972e+08 5.00977e+08 0
001 009 1 0 5.13619e+08 5.13877e+08 5.14897e+08 5.149e+08 0
001 010 1 1 5.21338e+08 5.21601e+08 5.22621e+08 5.23147e+08 0
000 011 1 1 5.41291e+08 5.41544e+08 5.42565e+08 5.42605e+08 1
000 012 1 1 5.57652e+08 5.57906e+08 5.58927e+08 5.60679e+08 1
000 013 1 1 5.75611e+08 5.75871e+08 5.76891e+08 5.76922e+08 1
000 014 2 1 5.87962e+08 5.8822e+08 5.8924e+08 5.90846e+08 0
001 015 1 0 6.0712e+08 6.07366e+08 6.08386e+08 6.0841e+08 0
001 016 2 1 6.1714e+08 6.17396e+08 6.18417e+08 6.18487e+08 0
001 017 1 0 6.51755e+08 6.52002e+08 6.53022e+08 6.53096e+08 0
001 018 2 1 6.58779e+08 6.59033e+08 6.60053e+08 6.60069e+08 0
001 019 2 0 6.69911e+08 6.70167e+08 6.71187e+08 6.71243e+08 0
000 020 2 1 6.8229e+08 6.82545e+08 6.83565e+08 6.83572e+08 1
001 021 1 1 6.87454e+08 6.87705e+08 6.88726e+08 6.8876e+08 0
000 022 1 1 7.00349e+08 7.00596e+08 7.01616e+08 7.01654e+08 1
000 023 1 0 7.11543e+08 7.11797e+08 7.12818e+08 7.12822e+08 1
001 024 1 1 7.22978e+08 7.23226e+08 7.24246e+08 7.24489e+08 0
000 025 1 1 7.31592e+08 7.31837e+08 7.32858e+08 7.32891e+08 1
000 026 1 0 7.48909e+08 7.49154e+08 7.50174e+08 7.5064e+08 1
001 027 2 1 7.64461e+08 7.64712e+08 7.65732e+08 7.65755e+08 0
001 028 2 0 7.73107e+08 7.73362e+08 7.74382e+08 7.74473e+08 0
000 029 2 1 7.86375e+08 7.86621e+08 7.87641e+08 7.87646e+08 1
001 030 1 1 8.02769e+08 8.03017e+08 8.04038e+08 8.04075e+08 0
000 031 1 1 8.13672e+08 8.13919e+08 8.14939e+08 8.14993e+08 1
000 032 1 0 8.49083e+08 8.49334e+08 8.50355e+08 8.50382e+08 1
001 033 2 0 8.67474e+08 8.67734e+08 8.68754e+08 8.68784e+08 0
000 034 2 0 8.77601e+08 8.77851e+08 8.78871e+08 8.79175e+08 1
000 035 2 1 9.00264e+08 9.00519e+08 9.01539e+08 9.01963e+08 1
001 036 1 1 9.06878e+08 9.0713e+08 9.08151e+08 9.08393e+08 0
000 037 1 1 9.22683e+08 9.2293e+08 9.2395e+08 9.24162e+08 1
000 038 1 0 9.39647e+08 9.399e+08 9.40921e+08 9.40961e+08 1
001 039 1 0 9.46162e+08 9.46414e+08 9.47434e+08 9.47456e+08 0
001 040 2 1 9.55208e+08 9.55465e+08 9.56486e+08 9.56508e+08 0
001 041 2 1 9.66106e+08 9.66358e+08 9.67379e+08 9.67386e+08 0
001 042 2 0 9.88364e+08 9.88613e+08 9.89634e+08 9.89648e+08 0
000 043 2 0 1.00307e+09 1.00332e+09 1.00434e+09 1.0049e+09 1
000 044 2 1 1.01523e+09 1.01549e+09 1.01651e+09 1.01724e+09 1
001 045 1 0 1.02874e+09 1.02901e+09 1.03003e+09 1.03005e+09 0
001 046 1 0 1.03445e+09 1.0347e+09 1.03572e+09 1.03575e+09 0
001 047 2 1 1.0437e+09 1.04397e+09 1.04499e+09 1.04537e+09 0
001 048 1 1 1.054e+09 1.05425e+09 1.05527e+09 1.05534e+09 0
000 049 1 1 1.06289e+09 1.06315e+09 1.06418e+09 1.06422e+09 1
000 050 1 1 1.07439e+09 1.07464e+09 1.07566e+09 1.07567e+09 1
000 051 1 1 1.0887e+09 1.08896e+09 1.08998e+09 1.09018e+09 1
000 052 1 1 1.10331e+09 1.10357e+09 1.10459e+09 1.10461e+09 0
000 053 2 1 1.11791e+09 1.11816e+09 1.11918e+09 1.11919e+09 0
001 054 2 1 1.13282e+09 1.13308e+09 1.1341e+09 1.13436e+09 0
001 055 1 1 1.14329e+09 1.14354e+09 1.14456e+09 1.14471e+09 0
000 056 1 0 1.17048e+09 1.17073e+09 1.17175e+09 1.17195e+09 1
001 057 1 1 1.17832e+09 1.17858e+09 1.1796e+09 1.17965e+09 0
000 058 1 1 1.19299e+09 1.19324e+09 1.19426e+09 1.19528e+09 1
000 059 1 0 1.20233e+09 1.20258e+09 1.2036e+09 1.2036e+09 1
001 060 2 1 1.22234e+09 1.22259e+09 1.22361e+09 1.22372e+09 0
001 061 1 0 1.2279e+09 1.22815e+09 1.22917e+09 1.22918e+09 0
001 062 2 0 1.23414e+09 1.23439e+09 1.23541e+09 1.23546e+09 0
000 063 2 0 1.26348e+09 1.26374e+09 1.26476e+09 1.26493e+09 1
000 064 2 0 1.27436e+09 1.27461e+09 1.27563e+09 1.27578e+09 1
000 065 2 1 1.30693e+09 1.30718e+09 1.3082e+09 1.30825e+09 1
001 066 2 1 1.31852e+09 1.31877e+09 1.31979e+09 1.32009e+09 0
001 067 2 0 1.33556e+09 1.33582e+09 1.33684e+09 1.33687e+09 0
000 068 2 0 1.36196e+09 1.36221e+09 1.36323e+09 1.36324e+09 1
000 069 2 0 1.3927e+09 1.39295e+09 1.39398e+09 1.39426e+09 1
000 070 2 0 1.40174e+09 1.40199e+09 1.40301e+09 1.40302e+09 1
000 071 1 1 1.41365e+09 1.41391e+09 1.41493e+09 1.41494e+09 0
000 072 1 0 1.43306e+09 1.4333e+09 1.43432e+09 1.43447e+09 0
001 073 2 1 1.4449e+09 1.44515e+09 1.44617e+09 1.4463e+09 0
001 074 1 0 1.45679e+09 1.45704e+09 1.45806e+09 1.45839e+09 0
001 075 1 0 1.49402e+09 1.49428e+09 1.4953e+09 1.49556e+09 0
001 076 1 1 1.51709e+09 1.51734e+09 1.51836e+09 1.51849e+09 0
000 077 1 1 1.52611e+09 1.52636e+09 1.52738e+09 1.52827e+09 1
000 078 1 1 1.53752e+09 1.53776e+09 1.53878e+09 1.53879e+09 1
000 079 1 0 1.56688e+09 1.56714e+09 1.56816e+09 1.56816e+09 1
001 080 1 1 1.57343e+09 1.57368e+09 1.5747e+09 1.57478e+09 0
000 081 1 0 1.58326e+09 1.5835e+09 1.58452e+09 1.58473e+09 1
001 082 2 1 1.58955e+09 1.58981e+09 1.59083e+09 1.59092e+09 0
001 083 2 1 1.60332e+09 1.60357e+09 1.60459e+09 1.60506e+09 0
001 084 2 0 1.61084e+09 1.6111e+09 1.61212e+09 1.61214e+09 0
000 085 2 1 1.62948e+09 1.62975e+09 1.63077e+09 1.63132e+09 1
001 086 2 1 1.6397e+09 1.63995e+09 1.64097e+09 1.64097e+09 0
001 087 1 1 1.64356e+09 1.64381e+09 1.64483e+09 1.64502e+09 0
000 088 1 1 1.6568e+09 1.65705e+09 1.65807e+09 1.65809e+09 1
000 089 1 1 1.67219e+09 1.67244e+09 1.67346e+09 1.67397e+09 1
000 090 1 1 1.69869e+09 1.69895e+09 1.69997e+09 1.70019e+09 1
000 091 1 1 1.71376e+09 1.71401e+09 1.71503e+09 1.71566e+09 0
000 092 2 1 1.7287e+09 1.72895e+09 1.72997e+09 1.73018e+09 0
001 093 1 1 1.74251e+09 1.74276e+09 1.74378e+09 1.7438e+09 0
000 094 1 1 1.7569e+09 1.75714e+09 1.75816e+09 1.75826e+09 1
000 095 1 1 1.76767e+09 1.76792e+09 1.76894e+09 1.76903e+09 1
000 096 1 1 1.78601e+09 1.78627e+09 1.78729e+09 1.78733e+09 1
000 097 2 1 1.79464e+09 1.79489e+09 1.79591e+09 1.79592e+09 0
001 098 1 0 1.80747e+09 1.80772e+09 1.80874e+09 1.80875e+09 0
001 099 2 1 1.83763e+09 1.83788e+09 1.8389e+09 1.83913e+09 0
001 100 2 0 1.84824e+09 1.84849e+09 1.84951e+09 1.84951e+09 0
000 101 2 0 1.86004e+09 1.86029e+09 1.86131e+09 1.86213e+09 1
000 102 2 0 1.873e+09 1.87326e+09 1.87428e+09 1.87465e+09 1
000 103 2 0 1.88308e+09 1.88334e+09 1.88436e+09 1.88505e+09 1
000 104 1 0 1.89399e+09 1.89426e+09 1.89528e+09 1.89589e+09 0
001 105 1 1 1.8995e+09 1.89975e+09 1.90077e+09 1.9008e+09 0
000 106 1 0 1.90881e+09 1.90908e+09 1.9101e+09 1.91397e+09 1
001 107 2 1 1.92567e+09 1.92593e+09 1.92695e+09 1.92696e+09 0
001 108 1 1 1.93425e+09 1.93449e+09 1.93551e+09 1.93633e+09 0
000 109 1 1 1.94374e+09 1.944e+09 1.94502e+09 1.94503e+09 1
000 110 1 1 1.95379e+09 1.95404e+09 1.95506e+09 1.95561e+09 1
000 111 1 1 1.96276e+09 1.96302e+09 1.96404e+09 1.96456e+09 1
000 112 2 0 1.97641e+09 1.97667e+09 1.97769e+09 1.98721e+09 0
000 113 2 0 1.99934e+09 1.9996e+09 2.00062e+09 2.00671e+09 0
000 114 1 0 2.01425e+09 2.0145e+09 2.01552e+09 2.0158e+09 0
001 115 1 1 2.01983e+09 2.02009e+09 2.02111e+09 2.02132e+09 0
000 116 1 0 2.03419e+09 2.03443e+09 2.03545e+09 2.03645e+09 1
001 117 1 0 2.04076e+09 2.04102e+09 2.04204e+09 2.04258e+09 0
001 118 1 0 2.05026e+09 2.05051e+09 2.05153e+09 2.05168e+09 0
001 119 2 0 2.05693e+09 2.05718e+09 2.0582e+09 2.05899e+09 0
000 120 2 1 2.06679e+09 2.06705e+09 2.06807e+09 2.06922e+09 1
001 121 2 0 2.07622e+09 2.07648e+09 2.0775e+09 2.07765e+09 0
000 122 2 0 2.08474e+09 2.08499e+09 2.08601e+09 2.08609e+09 1
000 123 2 1 2.09382e+09 2.09408e+09 2.0951e+09 2.09534e+09 1
001 124 2 1 2.10354e+09 2.1038e+09 2.10482e+09 2.10484e+09 0
001 125 1 0 2.12447e+09 2.12472e+09 2.12574e+09 2.12577e+09 0
001 126 1 0 2.14487e+09 2.14513e+09 2.14615e+09 2.14689e+09 0
001 127 2 0 2.15508e+09 2.15534e+09 2.15636e+09 2.15656e+09 0
000 128 2 1 2.16389e+09 2.16414e+09 2.16516e+09 2.16529e+09 1
001 129 1 1 2.17838e+09 2.17863e+09 2.17965e+09 2.1803e+09 0
000 130 1 0 2.18967e+09 2.18993e+09 2.19095e+09 2.1911e+09 1
001 131 1 1 2.19898e+09 2.19922e+09 2.20024e+09 2.2006e+09 0
000 132 1 0 2.21948e+09 2.21974e+09 2.22076e+09 2.22078e+09 1
001 133 1 1 2.22532e+09 2.22558e+09 2.2266e+09 2.22666e+09 0
000 134 1 0 2.23641e+09 2.23666e+09 2.23768e+09 2.23889e+09 1
001 135 1 1 2.25089e+09 2.25116e+09 2.25218e+09 2.25534e+09 0
000 136 1 1 2.26389e+09 2.26414e+09 2.26516e+09 2.26524e+09 1
000 137 1 0 2.27562e+09 2.27588e+09 2.2769e+09 2.2769e+09 1
001 138 2 0 2.28176e+09 2.28202e+09 2.28304e+09 2.28305e+09 0
000 139 2 0 2.294e+09 2.29426e+09 2.29529e+09 2.2953e+09 1
000 140 2 1 2.31521e+09 2.31548e+09 2.3165e+09 2.31699e+09 1
001 141 2 1 2.32677e+09 2.32703e+09 2.32805e+09 2.33031e+09 0
001 142 2 1 2.33402e+09 2.33428e+09 2.3353e+09 2.336e+09 0
001 143 1 0 2.34447e+09 2.34472e+09 2.34574e+09 2.34597e+09 0
001 144 2 1 2.35132e+09 2.35157e+09 2.35259e+09 2.3526e+09 0
001 145 1 0 2.35523e+09 2.35548e+09 2.3565e+09 2.35694e+09 0
001 146 2 0 2.37399e+09 2.37425e+09 2.37527e+09 2.37534e+09 0
000 147 2 0 2.38678e+09 2.38704e+09 2.38806e+09 2.38808e+09 1
000 148 2 0 2.39992e+09 2.40017e+09 2.40119e+09 2.40121e+09 1
000 149 2 1 2.4168e+09 2.41706e+09 2.41808e+09 2.4181e+09 1
001 150 2 0 2.42821e+09 2.42846e+09 2.42948e+09 2.42959e+09 0
000 151 2 0 2.44356e+09 2.44382e+09 2.44484e+09 2.445e+09 1
000 152 2 1 2.45213e+09 2.45239e+09 2.45341e+09 2.45413e+09 1
001 153 1 0 2.46482e+09 2.46507e+09 2.46609e+09 2.46611e+09 0
001 154 2 1 2.47007e+09 2.47033e+09 2.47135e+09 2.47171e+09 0
001 155 2 0 2.48047e+09 2.48072e+09 2.48174e+09 2.48291e+09 0
000 156 2 1 2.49318e+09 2.49343e+09 2.49445e+09 2.49488e+09 1
001 157 2 0 2.50022e+09 2.50048e+09 2.5015e+09 2.50198e+09 0
000 158 2 0 2.51165e+09 2.51192e+09 2.51294e+09 2.51297e+09 1
000 159 2 0 2.52123e+09 2.5215e+09 2.52252e+09 2.5232e+09 1
000 160 2 1 2.53037e+09 2.53063e+09 2.53165e+09 2.53177e+09 1
001 161 2 1 2.53684e+09 2.53711e+09 2.53813e+09 2.54004e+09 0
001 162 1 1 2.54255e+09 2.5428e+09 2.54382e+09 2.54385e+09 0
000 163 1 0 2.55624e+09 2.55649e+09 2.55751e+09 2.55806e+09 1
001 164 2 0 2.5641e+09 2.56436e+09 2.56538e+09 2.56544e+09 0
000 165 2 0 2.57375e+09 2.574e+09 2.57502e+09 2.57538e+09 1
000 166 2 0 2.58251e+09 2.58277e+09 2.58379e+09 2.58381e+09 1
000 167 2 1 2.59782e+09 2.59807e+09 2.59909e+09 2.59923e+09 1
001 168 2 1 2.60353e+09 2.60379e+09 2.60481e+09 2.60484e+09 0
001 169 2 0 2.62139e+09 2.62165e+09 2.62267e+09 2.62325e+09 0
000 170 2 1 2.63032e+09 2.63058e+09 2.6316e+09 2.63202e+09 1
001 171 1 0 2.64006e+09 2.64032e+09 2.64134e+09 2.64138e+09 0
001 172 2 0 2.6449e+09 2.64517e+09 2.64619e+09 2.64621e+09 0
000 173 2 1 2.65718e+09 2.65743e+09 2.65845e+09 2.6585e+09 1
001 174 2 1 2.66184e+09 2.66209e+09 2.66311e+09 2.66366e+09 0
001 175 2 1 2.674e+09 2.67426e+09 2.67528e+09 2.67578e+09 0
001 176 1 0 2.68209e+09 2.68234e+09 2.68336e+09 2.68395e+09 0
001 177 2 0 2.68648e+09 2.68673e+09 2.68775e+09 2.68778e+09 0
000 178 2 1 2.69689e+09 2.69714e+09 2.69816e+09 2.70092e+09 1
001 179 1 0 2.71108e+09 2.71134e+09 2.71236e+09 2.71247e+09 0
001 180 1 0 2.72101e+09 2.72127e+09 2.72229e+09 2.72263e+09 0
001 181 2 0 2.72566e+09 2.72592e+09 2.72694e+09 2.72813e+09 0
000 182 2 1 2.74006e+09 2.74031e+09 2.74133e+09 2.74152e+09 1
001 183 1 1 2.74759e+09 2.74785e+09 2.74887e+09 2.74888e+09 0
000 184 1 0 2.76086e+09 2.76111e+09 2.76213e+09 2.76267e+09 1
001 185 2 1 2.77016e+09 2.77041e+09 2.77143e+09 2.77161e+09 0
001 186 1 0 2.78492e+09 2.78517e+09 2.78619e+09 2.78622e+09 0
001 187 1 0 2.80596e+09 2.80622e+09 2.80724e+09 2.80735e+09 0
001 188 2 1 2.81022e+09 2.81048e+09 2.8115e+09 2.81252e+09 0
001 189 2 1 2.81909e+09 2.81935e+09 2.82037e+09 2.82049e+09 0
001 190 1 0 2.83678e+09 2.83704e+09 2.83807e+09 2.83827e+09 0
001 191 2 0 2.84921e+09 2.84946e+09 2.85048e+09 2.85061e+09 0
000 192 2 0 2.86782e+09 2.86807e+09 2.86909e+09 2.86938e+09 1
000 193 2 0 2.88261e+09 2.88287e+09 2.88389e+09 2.8839e+09 1
000 194 2 1 2.89136e+09 2.89161e+09 2.89263e+09 2.89356e+09 1
001 195 2 1 2.90416e+09 2.90441e+09 2.90543e+09 2.90544e+09 0
001 196 2 0 2.92011e+09 2.92037e+09 2.92139e+09 2.92162e+09 0
000 197 2 1 2.92876e+09 2.92901e+09 2.93003e+09 2.93011e+09 1
001 198 2 0 2.93567e+09 2.93593e+09 2.93695e+09 2.93697e+09 0
000 199 2 0 2.95133e+09 2.95159e+09 2.95261e+09 2.9532e+09 1
000 200 2 0 2.96074e+09 2.96099e+09 2.96201e+09 2.96212e+09 1
000 201 2 0 2.97046e+09 2.97071e+09 2.97173e+09 2.97198e+09 1
000 202 1 1 2.98013e+09 2.98038e+09 2.9814e+09 2.98204e+09 0
000 203 2 1 2.99319e+09 2.99344e+09 2.99446e+09 2.99484e+09 0
001 204 2 0 2.99861e+09 2.99887e+09 2.99989e+09 2.99993e+09 0
000 205 2 1 3.01618e+09 3.01644e+09 3.01746e+09 3.0195e+09 1
001 206 2 0 3.02929e+09 3.02954e+09 3.03056e+09 3.03062e+09 0
000 207 2 1 3.04747e+09 3.04771e+09 3.04873e+09 3.04957e+09 1
001 208 2 1 3.06005e+09 3.06031e+09 3.06133e+09 3.06135e+09 0
001 209 1 1 3.07061e+09 3.07087e+09 3.07189e+09 3.07202e+09 0
000 210 1 1 3.10719e+09 3.10744e+09 3.10846e+09 3.10847e+09 1
000 211 1 0 3.11557e+09 3.11582e+09 3.11684e+09 3.11916e+09 1
001 212 2 1 3.12538e+09 3.12564e+09 3.12666e+09 3.12721e+09 0
001 213 1 1 3.14888e+09 3.14913e+09 3.15015e+09 3.15018e+09 0
000 214 1 0 3.15748e+09 3.15773e+09 3.15875e+09 3.1601e+09 1
001 215 2 0 3.17021e+09 3.17047e+09 3.17149e+09 3.17151e+09 0
000 216 2 0 3.18157e+09 3.18182e+09 3.18284e+09 3.18286e+09 1
000 217 2 0 3.19117e+09 3.19144e+09 3.19246e+09 3.20432e+09 1
000 218 2 0 3.21617e+09 3.21642e+09 3.21744e+09 3.21847e+09 1
000 219 2 0 3.22582e+09 3.22608e+09 3.2271e+09 3.22713e+09 0
000 220 1 1 3.23433e+09 3.23459e+09 3.23561e+09 3.23561e+09 0
000 221 1 1 3.24868e+09 3.24893e+09 3.24995e+09 3.25353e+09 0
000 222 1 1 3.26178e+09 3.26203e+09 3.26305e+09 3.26377e+09 0
000 223 2 1 3.27948e+09 3.27974e+09 3.28076e+09 3.28097e+09 0
001 224 1 1 3.28546e+09 3.28572e+09 3.28674e+09 3.28699e+09 0
000 225 1 1 3.29469e+09 3.29494e+09 3.29596e+09 3.29878e+09 1
000 226 1 1 3.30626e+09 3.30651e+09 3.30753e+09 3.30776e+09 1
000 227 1 1 3.31517e+09 3.31542e+09 3.31644e+09 3.31645e+09 1
000 228 1 1 3.32387e+09 3.32413e+09 3.32515e+09 3.32516e+09 0
000 229 2 1 3.33771e+09 3.33797e+09 3.33899e+09 3.33903e+09 0
001 230 1 0 3.34626e+09 3.34652e+09 3.34755e+09 3.34757e+09 0
001 231 2 0 3.3539e+09 3.35415e+09 3.35517e+09 3.35589e+09 0
000 232 2 0 3.36522e+09 3.36547e+09 3.36649e+09 3.36721e+09 1
000 233 2 1 3.37433e+09 3.37459e+09 3.37561e+09 3.37719e+09 1
001 234 1 1 3.40028e+09 3.40053e+09 3.40156e+09 3.40157e+09 0
000 235 1 0 3.41221e+09 3.41246e+09 3.41348e+09 3.4135e+09 1
001 236 2 1 3.42371e+09 3.42397e+09 3.425e+09 3.42501e+09 0
001 237 2 1 3.43672e+09 3.43698e+09 3.438e+09 3.44088e+09 0
001 238 1 0 3.44773e+09 3.44798e+09 3.449e+09 3.44903e+09 0
001 239 2 0 3.4611e+09 3.46135e+09 3.46237e+09 3.46239e+09 0
000 240 2 0 3.47287e+09 3.47311e+09 3.47413e+09 3.47443e+09 1
000 241 2 1 3.48293e+09 3.48318e+09 3.4842e+09 3.48423e+09 1
001 242 2 0 3.49255e+09 3.49281e+09 3.49383e+09 3.49388e+09 0
000 243 2 0 3.50128e+09 3.50153e+09 3.50255e+09 3.50293e+09 1
000 244 2 1 3.51224e+09 3.51251e+09 3.51353e+09 3.51378e+09 1
001 245 1 1 3.5246e+09 3.52486e+09 3.52588e+09 3.52657e+09 0
000 246 1 1 3.53706e+09 3.53733e+09 3.53835e+09 3.53895e+09 1
000 247 1 0 3.55364e+09 3.5539e+09 3.55492e+09 3.55494e+09 1
001 248 1 0 3.55818e+09 3.55844e+09 3.55946e+09 3.55947e+09 0
001 249 1 0 3.56281e+09 3.56308e+09 3.5641e+09 3.56454e+09 0
001 250 2 0 3.57504e+09 3.57529e+09 3.57631e+09 3.57691e+09 0
000 251 2 0 3.58783e+09 3.58808e+09 3.5891e+09 3.58912e+09 1
000 252 2 0 3.59636e+09 3.59661e+09 3.59763e+09 3.5978e+09 1
000 253 2 1 3.60677e+09 3.60703e+09 3.60805e+09 3.60889e+09 1
001 254 1 1 3.62623e+09 3.6265e+09 3.62752e+09 3.6277e+09 0
000 255 1 1 3.63903e+09 3.63929e+09 3.64031e+09 3.64034e+09 1
000 256 1 1 3.64909e+09 3.64935e+09 3.65037e+09 3.65042e+09 1
000 257 1 0 3.66094e+09 3.66119e+09 3.66221e+09 3.66298e+09 1
001 258 2 0 3.67127e+09 3.67153e+09 3.67255e+09 3.67256e+09 0
000 259 2 1 3.67963e+09 3.67989e+09 3.68091e+09 3.68298e+09 1
001 260 2 0 3.68664e+09 3.6869e+09 3.68792e+09 3.68932e+09 0
000 261 2 1 3.69794e+09 3.6982e+09 3.69922e+09 3.70197e+09 1
001 262 2 1 3.70655e+09 3.70681e+09 3.70783e+09 3.71067e+09 0
001 263 1 0 3.71854e+09 3.71879e+09 3.71981e+09 3.71984e+09 0
001 264 2 0 3.72322e+09 3.72349e+09 3.72451e+09 3.72517e+09 0
000 265 2 1 3.73513e+09 3.73538e+09 3.7364e+09 3.73673e+09 1
001 266 1 0 3.74194e+09 3.7422e+09 3.74322e+09 3.74325e+09 0
001 267 1 1 3.75167e+09 3.75193e+09 3.75295e+09 3.75296e+09 0
000 268 1 1 3.76024e+09 3.7605e+09 3.76152e+09 3.76369e+09 1
000 269 1 0 3.77128e+09 3.77154e+09 3.77256e+09 3.77266e+09 1
001 270 1 1 3.77937e+09 3.77964e+09 3.78066e+09 3.78103e+09 0
000 271 1 0 3.79226e+09 3.7925e+09 3.79352e+09 3.7941e+09 1
001 272 1 0 3.80191e+09 3.80216e+09 3.80318e+09 3.80367e+09 0
001 273 1 1 3.8205e+09 3.82075e+09 3.82178e+09 3.82224e+09 0
000 274 1 0 3.83249e+09 3.83274e+09 3.83376e+09 3.83421e+09 1
001 275 1 1 3.83853e+09 3.83878e+09 3.8398e+09 3.84006e+09 0
000 276 1 0 3.84719e+09 3.84744e+09 3.84846e+09 3.84862e+09 1
001 277 2 0 3.85285e+09 3.85311e+09 3.85413e+09 3.85418e+09 0
000 278 2 0 3.86752e+09 3.86776e+09 3.86878e+09 3.86913e+09 1
000 279 2 0 3.87621e+09 3.87647e+09 3.87749e+09 3.87786e+09 1
000 280 2 1 3.88504e+09 3.88531e+09 3.88633e+09 3.88638e+09 1
001 281 1 1 3.89197e+09 3.89223e+09 3.89325e+09 3.89356e+09 0
000 282 1 0 3.90575e+09 3.906e+09 3.90702e+09 3.91194e+09 1
001 283 2 0 3.91971e+09 3.91996e+09 3.92098e+09 3.92116e+09 0
000 284 2 0 3.93129e+09 3.93155e+09 3.93257e+09 3.93289e+09 1
000 285 2 1 3.94123e+09 3.94149e+09 3.94251e+09 3.94283e+09 1
001 286 2 0 3.95047e+09 3.95072e+09 3.95174e+09 3.95241e+09 0
000 287 2 1 3.95968e+09 3.95994e+09 3.96096e+09 3.9633e+09 1
001 288 2 0 3.9676e+09 3.96785e+09 3.96887e+09 3.96889e+09 0
000 289 2 0 3.9795e+09 3.97976e+09 3.98078e+09 3.98079e+09 1
000 290 2 1 3.99435e+09 3.99461e+09 3.99563e+09 3.99603e+09 1
001 291 2 1 3.9998e+09 4.00006e+09 4.00108e+09 4.00187e+09 0
001 292 2 0 4.00547e+09 4.00572e+09 4.00674e+09 4.00678e+09 0
000 293 2 1 4.01386e+09 4.01412e+09 4.01514e+09 4.01601e+09 1
001 294 2 0 4.02371e+09 4.02396e+09 4.02498e+09 4.02598e+09 0
000 295 2 1 4.04085e+09 4.0411e+09 4.04212e+09 4.04284e+09 1
001 296 2 1 4.0493e+09 4.04955e+09 4.05057e+09 4.05058e+09 0
001 297 1 1 4.06797e+09 4.06823e+09 4.06925e+09 4.07122e+09 0
000 298 1 0 4.08752e+09 4.08778e+09 4.0888e+09 4.08909e+09 1
001 299 1 1 4.09835e+09 4.09861e+09 4.09963e+09 4.09991e+09 0
000 300 1 0 4.10713e+09 4.10739e+09 4.10841e+09 4.11016e+09 1
001 301 1 1 4.1137e+09 4.11396e+09 4.11498e+09 4.11504e+09 0
000 302 1 0 4.1223e+09 4.12256e+09 4.12358e+09 4.12375e+09 1
001 303 1 1 4.13783e+09 4.13809e+09 4.13911e+09 4.13944e+09 0
000 304 1 1 4.14686e+09 4.14712e+09 4.14814e+09 4.1483e+09 1
000 305 1 1 4.158e+09 4.15824e+09 4.15926e+09 4.15968e+09 1
000 306 1 1 4.16989e+09 4.17014e+09 4.17116e+09 4.17117e+09 1
000 307 1 1 4.18097e+09 4.18123e+09 4.18225e+09 4.18251e+09 0
000 308 2 1 4.19136e+09 4.19161e+09 4.19263e+09 4.19292e+09 0
001 309 1 1 4.19673e+09 4.19698e+09 4.198e+09 4.19814e+09 0
000 310 1 0 4.20866e+09 4.20891e+09 4.20993e+09 4.20996e+09 1
001 311 2 0 4.21599e+09 4.21626e+09 4.21728e+09 4.21729e+09 0
000 312 2 0 4.22713e+09 4.22738e+09 4.2284e+09 4.22909e+09 1
000 313 2 1 4.24021e+09 4.24047e+09 4.24149e+09 4.24155e+09 1
001 314 1 0 4.24761e+09 4.24787e+09 4.24889e+09 4.24889e+09 0
001 315 1 0 4.26687e+09 4.26713e+09 4.26815e+09 4.27009e+09 0
001 316 1 1 4.27404e+09 4.2743e+09 4.27532e+09 4.27562e+09 0
000 317 1 1 4.28657e+09 4.28682e+09 4.28784e+09 4.28786e+09 1
000 318 1 1 250896 503264 1.52355e+06 1.61494e+06 1
000 319 1 0 9.03681e+06 9.30206e+06 1.03224e+07 1.03843e+07 1
001 320 1 0 1.45367e+07 1.47924e+07 1.58127e+07 1.61247e+07 0
001 321 2 1 2.32571e+07 2.35214e+07 2.45417e+07 2.51401e+07 0
001 322 2 1 3.36149e+07 3.38656e+07 3.48859e+07 3.88078e+07 0
001 323 2 1 4.25523e+07 4.28097e+07 4.383e+07 4.42374e+07 0
001 324 1 1 4.75751e+07 4.7822e+07 4.88423e+07 4.91478e+07 0
000 325 1 0 6.0332e+07 6.05881e+07 6.16084e+07 6.18359e+07 1
001 326 2 1 7.09079e+07 7.11711e+07 7.21914e+07 7.28305e+07 0
001 327 1 0 7.5519e+07 7.57758e+07 7.67961e+07 7.68302e+07 0
001 328 1 0 8.1876e+07 8.21277e+07 8.3148e+07 8.3158e+07 0
001 329 2 0 8.74066e+07 8.76499e+07 8.86702e+07 8.92726e+07 0
000 330 2 0 9.64362e+07 9.66843e+07 9.77046e+07 9.83889e+07 1
000 331 2 0 1.05518e+08 1.05776e+08 1.06796e+08 1.07475e+08 1
000 332 2 1 1.14883e+08 1.15142e+08 1.16163e+08 1.16422e+08 1
001 333 1 0 1.24393e+08 1.2464e+08 1.2566e+08 1.25706e+08 0
001 334 2 1 1.37161e+08 1.37421e+08 1.38441e+08 1.38681e+08 0
001 335 1 0 1.45981e+08 1.46239e+08 1.47259e+08 1.47508e+08 0
001 336 2 0 1.5028e+08 1.50528e+08 1.51549e+08 1.52699e+08 0
000 337 2 0 1.63842e+08 1.64095e+08 1.65115e+08 1.65149e+08 1
000 338 2 1 1.73366e+08 1.73618e+08 1.74638e+08 1.76376e+08 1
001 339 1 0 1.92029e+08 1.92291e+08 1.93311e+08 1.93354e+08 0
001 340 2 1 1.99373e+08 1.99623e+08 2.00643e+08 2.054e+08 0
001 341 1 1 2.11485e+08 2.11738e+08 2.12758e+08 2.12971e+08 0
000 342 1 0 2.22617e+08 2.22874e+08 2.23894e+08 2.28342e+08 1
001 343 1 0 2.35743e+08 2.35998e+08 2.37018e+08 2.37958e+08 0
001 344 2 0 2.41423e+08 2.41681e+08 2.42701e+08 2.42724e+08 0
000 345 2 1 2.51737e+08 2.51997e+08 2.53017e+08 2.53449e+08 1
001 346 1 0 2.5876e+08 2.59007e+08 2.60028e+08 2.60183e+08 0
001 347 2 0 2.63042e+08 2.63288e+08 2.64308e+08 2.64316e+08 0
000 348 2 0 2.73104e+08 2.73362e+08 2.74382e+08 2.74397e+08 1
000 349 2 1 2.84105e+08 2.84361e+08 2.85381e+08 2.8556e+08 1
001 350 1 0 2.89052e+08 2.89306e+08 2.90326e+08 2.9052e+08 0
001 351 2 0 2.97938e+08 2.98193e+08 2.99213e+08 2.99384e+08 0
000 352 2 1 3.16599e+08 3.16856e+08 3.17876e+08 3.18123e+08 1
001 353 2 0 3.26252e+08 3.26504e+08 3.27525e+08 3.27533e+08 0
000 354 2 0 3.48962e+08 3.49222e+08 3.50242e+08 3.50405e+08 1
000 355 2 1 3.57785e+08 3.58028e+08 3.59048e+08 3.61198e+08 1
001 356 1 0 3.69361e+08 3.69624e+08 3.70644e+08 3.71676e+08 0
001 357 2 0 3.7753e+08 3.77793e+08 3.78814e+08 3.79255e+08 0
000 358 2 1 3.87175e+08 3.87423e+08 3.88443e+08 3.88549e+08 1
001 359 2 1 3.93477e+08 3.9374e+08 3.9476e+08 3.95336e+08 0
001 360 1 0 3.97865e+08 3.98116e+08 3.99137e+08 3.99169e+08 0
001 361 2 0 4.03546e+08 4.03793e+08 4.04813e+08 4.0494e+08 0
000 362 2 1 4.14918e+08 4.15175e+08 4.16195e+08 4.17276e+08 1
001 363 1 0 4.29902e+08 4.30153e+08 4.31173e+08 4.3486e+08 0
001 364 2 0 4.4069e+08 4.40944e+08 4.41964e+08 4.42491e+08 0
000 365 2 0 4.5177e+08 4.52031e+08 4.53052e+08 4.53595e+08 1
000 366 2 0 4.68599e+08 4.68847e+08 4.69867e+08 4.72505e+08 1
000 367 2 0 4.80282e+08 4.80536e+08 4.81556e+08 4.82457e+08 1
000 368 1 1 4.94706e+08 4.94964e+08 4.95984e+08 4.96815e+08 0
000 369 1 1 5.0431e+08 5.04565e+08 5.05586e+08 5.06659e+08 0
000 370 2 1 5.14049e+08 5.14313e+08 5.15333e+08 5.15369e+08 0
001 371 1 0 5.24717e+08 5.24975e+08 5.25995e+08 5.26145e+08 0
001 372 2 0 5.29747e+08 5.30008e+08 5.31028e+08 5.31463e+08 0
000 373 2 1 5.41346e+08 5.41597e+08 5.42618e+08 5.43042e+08 1
001 374 2 1 5.49915e+08 5.50175e+08 5.51195e+08 5.51818e+08 0
001 375 2 0 5.54534e+08 5.54794e+08 5.55814e+08 5.55958e+08 0
000 376 2 1 5.63458e+08 5.6371e+08 5.6473e+08 5.66601e+08 1
001 377 2 1 5.73531e+08 5.73796e+08 5.74817e+08 5.7515e+08 0
001 378 2 0 5.78274e+08 5.78524e+08 5.79545e+08 5.86054e+08 0
000 379 2 1 5.99553e+08 5.99805e+08 6.00826e+08 6.01772e+08 1
001 380 2 0 6.05937e+08 6.06201e+08 6.07221e+08 6.07238e+08 0
000 381 2 0 6.22094e+08 6.2235e+08 6.2337e+08 6.24612e+08 1
000 382 2 0 6.31739e+08 6.31988e+08 6.33008e+08 6.33708e+08 1
000 383 2 0 6.44263e+08 6.44519e+08 6.4554e+08 6.45579e+08 1
000 384 2 1 6.55571e+08 6.55833e+08 6.56853e+08 6.58017e+08 0
001 385 2 0 6.67668e+08 6.6793e+08 6.68951e+08 6.69424e+08 0
000 386 2 1 6.80881e+08 6.81132e+08 6.82152e+08 6.82365e+08 1
001 387 1 0 6.86215e+08 6.86476e+08 6.87496e+08 6.87891e+08 0
001 388 2 0 6.92294e+08 6.92553e+08 6.93574e+08 6.93972e+08 0
000 389 2 0 7.04054e+08 7.04311e+08 7.05331e+08 7.0635e+08 1
000 390 2 1 7.14767e+08 7.15022e+08 7.16042e+08 7.19577e+08 1
001 391 2 1 7.24179e+08 7.24439e+08 7.2546e+08 7.25818e+08 0
001 392 2 0 7.30918e+08 7.3119e+08 7.3221e+08 7.32508e+08 0
000 393 2 1 7.40773e+08 7.41034e+08 7.42054e+08 7.42209e+08 1
001 394 1 1 7.45118e+08 7.45364e+08 7.46384e+08 7.46548e+08 0
000 395 1 0 7.54023e+08 7.54271e+08 7.55291e+08 7.56287e+08 1
001 396 2 1 7.61895e+08 7.62154e+08 7.63174e+08 7.69012e+08 0
001 397 1 0 7.72359e+08 7.72617e+08 7.73637e+08 7.73648e+08 0
001 398 1 1 7.77438e+08 7.77687e+08 7.78707e+08 7.81646e+08 0
000 399 1 1 7.89023e+08 7.89277e+08 7.90298e+08 7.90557e+08 1
000 400 1 0 7.97663e+08 7.97926e+08 7.98946e+08 7.99695e+08 1
001 401 1 0 8.0317e+08 8.03431e+08 8.04452e+08 8.04532e+08 0
001 402 1 0 8.10973e+08 8.11227e+08 8.12247e+08 8.12668e+08 0
001 403 2 0 8.16876e+08 8.17122e+08 8.18142e+08 8.19727e+08 0
000 404 2 0 8.31042e+08 8.31303e+08 8.32324e+08 8.33397e+08 1
000 405 2 0 8.42996e+08 8.43249e+08 8.4427e+08 8.47238e+08 1
000 406 2 0 8.58258e+08 8.58521e+08 8.59542e+08 8.62656e+08 1
000 407 2 0 8.71979e+08 8.72235e+08 8.73256e+08 8.76284e+08 0
000 408 1 0 8.84228e+08 8.84477e+08 8.85498e+08 8.91473e+08 0
001 409 2 0 8.94193e+08 8.94438e+08 8.95458e+08 8.97007e+08 0
000 410 2 1 9.04256e+08 9.04513e+08 9.05533e+08 9.05733e+08 1
001 411 1 0 9.08874e+08 9.09118e+08 9.10138e+08 9.10227e+08 0
001 412 1 0 9.20534e+08 9.20795e+08 9.21816e+08 9.22842e+08 0
001 413 1 1 9.27042e+08 9.27303e+08 9.28324e+08 9.28472e+08 0
000 414 1 0 9.46533e+08 9.46784e+08 9.47805e+08 9.47862e+08 1
001 415 2 1 9.56055e+08 9.56316e+08 9.57336e+08 9.63163e+08 0
001 416 2 0 9.72031e+08 9.72282e+08 9.73303e+08 9.74194e+08 0
000 417 2 1 9.86279e+08 9.86525e+08 9.87546e+08 9.87818e+08 1
001 418 1 0 9.90461e+08 9.90725e+08 9.91746e+08 9.92721e+08 0
001 419 1 0 9.95515e+08 9.95763e+08 9.96784e+08 9.9729e+08 0
001 420 2 1 9.99943e+08 1.0002e+09 1.00122e+09 1.00281e+09 0
001 421 1 0 1.00562e+09 1.00587e+09 1.00689e+09 1.00743e+09 0
001 422 1 0 1.02057e+09 1.02082e+09 1.02185e+09 1.02591e+09 0
001 423 1 0 1.03e+09 1.03026e+09 1.03129e+09 1.03242e+09 0
001 424 1 0 1.03594e+09 1.03619e+09 1.03721e+09 1.03723e+09 0
001 425 1 0 1.04618e+09 1.04643e+09 1.04745e+09 1.04955e+09 0
001 426 1 0 1.05409e+09 1.05434e+09 1.05536e+09 1.05539e+09 0
001 427 1 0 1.06136e+09 1.06162e+09 1.06264e+09 1.06265e+09 0
001 428 1 1 1.06819e+09 1.06844e+09 1.06946e+09 1.06952e+09 0
000 429 1 0 1.07698e+09 1.07724e+09 1.07826e+09 1.08089e+09 1
001 430 2 0 1.08534e+09 1.08559e+09 1.08661e+09 1.09975e+09 0
000 431 2 1 1.11092e+09 1.11118e+09 1.1122e+09 1.11225e+09 1
001 432 2 1 1.12031e+09 1.12056e+09 1.12158e+09 1.12193e+09 0
001 433 1 0 1.12659e+09 1.12684e+09 1.12786e+09 1.12833e+09 0
001 434 1 0 1.13219e+09 1.13245e+09 1.13348e+09 1.13994e+09 0
001 435 2 0 1.14465e+09 1.14491e+09 1.14593e+09 1.14646e+09 0
000 436 2 1 1.15458e+09 1.15484e+09 1.15586e+09 1.15587e+09 1
001 437 2 1 1.15945e+09 1.15971e+09 1.16073e+09 1.1615e+09 0
001 438 2 0 1.16508e+09 1.16534e+09 1.16636e+09 1.16679e+09 0
000 439 2 0 1.1747e+09 1.17495e+09 1.17597e+09 1.17652e+09 1
000 440 2 0 1.18733e+09 1.18759e+09 1.18861e+09 1.18911e+09 1
000 441 2 0 1.19615e+09 1.1964e+09 1.19742e+09 1.19851e+09 1
000 442 2 0 1.20621e+09 1.20646e+09 1.20748e+09 1.20978e+09 0
000 443 2 0 1.22016e+09 1.22042e+09 1.22144e+09 1.22152e+09 0
000 444 1 1 1.22914e+09 1.2294e+09 1.23042e+09 1.23065e+09 0
000 445 1 0 1.23799e+09 1.23824e+09 1.23926e+09 1.24022e+09 0
001 446 1 0 1.24704e+09 1.24729e+09 1.24831e+09 1.24837e+09 0
001 447 1 0 1.25256e+09 1.25282e+09 1.25384e+09 1.25465e+09 0
001 448 2 1 1.25995e+09 1.2602e+09 1.26122e+09 1.26167e+09 0
001 449 1 1 1.26446e+09 1.26473e+09 1.26575e+09 1.26662e+09 0
000 450 1 0 1.27366e+09 1.2739e+09 1.27492e+09 1.27776e+09 1
001 451 2 0 1.28157e+09 1.28182e+09 1.28284e+09 1.28308e+09 0
000 452 2 0 1.29198e+09 1.29222e+09 1.29324e+09 1.29368e+09 1
000 453 2 1 1.30459e+09 1.30484e+09 1.30586e+09 1.30596e+09 1
001 454 2 0 1.30935e+09 1.30962e+09 1.31064e+09 1.31087e+09 0
000 455 2 0 1.31836e+09 1.31862e+09 1.31964e+09 1.32065e+09 1
000 456 2 0 1.32775e+09 1.32802e+09 1.32904e+09 1.3297e+09 1
000 457 2 0 1.33995e+09 1.34021e+09 1.34123e+09 1.34174e+09 1
000 458 1 1 1.34906e+09 1.34932e+09 1.35034e+09 1.35233e+09 0
000 459 2 1 1.36215e+09 1.36239e+09 1.36341e+09 1.36352e+09 0
001 460 2 0 1.36858e+09 1.36883e+09 1.36985e+09 1.37013e+09 0
000 461 2 0 1.37976e+09 1.38001e+09 1.38103e+09 1.39733e+09 1
000 462 2 0 1.4045e+09 1.40476e+09 1.40578e+09 1.40598e+09 1
000 463 2 0 1.41343e+09 1.41368e+09 1.4147e+09 1.41528e+09 1
000 464 1 0 1.42283e+09 1.42309e+09 1.42411e+09 1.42412e+09 0
001 465 1 0 1.42696e+09 1.42722e+09 1.42824e+09 1.42827e+09 0
001 466 2 0 1.43204e+09 1.4323e+09 1.43332e+09 1.43346e+09 0
000 467 2 0 1.44248e+09 1.44273e+09 1.44375e+09 1.44406e+09 1
000 468 2 0 1.45261e+09 1.45286e+09 1.45388e+09 1.45465e+09 1
000 469 2 0 1.4698e+09 1.47006e+09 1.47108e+09 1.47211e+09 1
000 470 1 0 1.47933e+09 1.47958e+09 1.4806e+09 1.49668e+09 0
001 471 1 0 1.50075e+09 1.501e+09 1.50202e+09 1.50235e+09 0
001 472 2 0 1.50767e+09 1.50792e+09 1.50894e+09 1.50962e+09 0
000 473 2 0 1.517e+09 1.51724e+09 1.51826e+09 1.51916e+09 1
000 474 2 1 1.52852e+09 1.52877e+09 1.52979e+09 1.53089e+09 1
001 475 1 0 1.53954e+09 1.53979e+09 1.54081e+09 1.54085e+09 0
001 476 2 0 1.54426e+09 1.54452e+09 1.54554e+09 1.54588e+09 0
000 477 2 1 1.55372e+09 1.55398e+09 1.555e+09 1.59927e+09 1
001 478 1 1 1.60626e+09 1.60653e+09 1.60755e+09 1.60797e+09 0
000 479 1 0 1.61523e+09 1.61549e+09 1.61651e+09 1.61739e+09 1
001 480 2 1 1.62327e+09 1.62353e+09 1.62455e+09 1.62813e+09 0
001 481 1 0 1.63143e+09 1.63167e+09 1.6327e+09 1.63298e+09 0
001 482 1 1 1.63557e+09 1.63582e+09 1.63684e+09 1.63704e+09 0
000 483 1 0 1.64742e+09 1.64769e+09 1.64871e+09 1.64872e+09 1
001 484 2 0 1.66503e+09 1.66529e+09 1.66631e+09 1.66718e+09 0
000 485 2 0 1.67446e+09 1.67472e+09 1.67574e+09 1.68091e+09 1
000 486 2 1 1.68829e+09 1.68854e+09 1.68956e+09 1.69222e+09 1
001 487 1 0 1.69649e+09 1.69675e+09 1.69777e+09 1.69778e+09 0
001 488 2 0 1.70109e+09 1.70134e+09 1.70236e+09 1.70237e+09 0
000 489 2 0 1.71146e+09 1.71172e+09 1.71274e+09 1.71386e+09 1
000 490 2 0 1.72554e+09 1.7258e+09 1.72682e+09 1.73064e+09 1
000 491 2 0 1.73988e+09 1.74014e+09 1.74116e+09 1.74202e+09 1
000 492 1 0 1.74921e+09 1.74948e+09 1.7505e+09 1.75188e+09 0
001 493 1 1 1.7561e+09 1.75636e+09 1.75738e+09 1.7574e+09 0
000 494 1 0 1.76632e+09 1.76658e+09 1.7676e+09 1.76776e+09 1
001 495 2 0 1.7716e+09 1.77186e+09 1.77288e+09 1.77319e+09 0
000 496 2 0 1.78059e+09 1.78085e+09 1.78187e+09 1.78251e+09 1
000 497 2 1 1.79045e+09 1.79071e+09 1.79173e+09 1.79487e+09 1
001 498 1 1 1.80084e+09 1.8011e+09 1.80212e+09 1.80247e+09 0
000 499 1 0 1.80969e+09 1.80995e+09 1.81097e+09 1.81207e+09 1
001 500 2 0 1.81968e+09 1.81995e+09 1.82097e+09 1.82134e+09 0
000 501 2 0 1.82869e+09 1.82894e+09 1.82996e+09 1.83228e+09 1
000 502 2 1 1.83943e+09 1.83968e+09 1.8407e+09 1.8537e+09 1
001 503 1 0 1.86299e+09 1.86325e+09 1.86427e+09 1.8647e+09 0
001 504 2 0 1.86815e+09 1.86839e+09 1.86941e+09 1.86963e+09 0
000 505 2 0 1.87689e+09 1.87715e+09 1.87817e+09 1.87818e+09 1
000 506 2 0 1.88657e+09 1.88681e+09 1.88783e+09 1.89785e+09 1
000 507 2 0 1.90544e+09 1.90569e+09 1.90671e+09 1.90912e+09 1
000 508 2 0 1.91626e+09 1.91652e+09 1.91754e+09 1.91872e+09 0
000 509 1 1 1.92593e+09 1.92618e+09 1.9272e+09 1.92818e+09 0
000 510 2 1 1.93908e+09 1.93934e+09 1.94036e+09 1.94039e+09 0
001 511 1 0 1.94694e+09 1.9472e+09 1.94822e+09 1.94853e+09 0
001 512 1 0 1.95216e+09 1.95241e+09 1.95344e+09 1.95766e+09 0
001 513 2 0 1.96061e+09 1.96086e+09 1.96188e+09 1.9619e+09 0
000 514 2 1 1.97085e+09 1.9711e+09 1.97212e+09 1.97241e+09 1
001 515 2 0 1.97643e+09 1.97668e+09 1.9777e+09 1.97781e+09 0
000 516 2 1 1.98763e+09 1.98789e+09 1.98891e+09 1.98937e+09 1
001 517 1 0 1.99358e+09 1.99383e+09 1.99485e+09 1.99495e+09 0
001 518 2 0 1.99865e+09 1.99891e+09 1.99993e+09 2.00024e+09 0
000 519 2 0 2.01801e+09 2.01826e+09 2.01928e+09 2.02461e+09 1
000 520 2 1 2.03299e+09 2.03324e+09 2.03426e+09 2.03707e+09 1
001 521 2 1 2.04515e+09 2.04541e+09 2.04643e+09 2.04658e+09 0
001 522 2 0 2.051e+09 2.05126e+09 2.05228e+09 2.05345e+09 0
000 523 2 0 2.06198e+09 2.06223e+09 2.06325e+09 2.06349e+09 1
000 524 2 0 2.07053e+09 2.07078e+09 2.0718e+09 2.07513e+09 1
000 525 2 0 2.08217e+09 2.08242e+09 2.08344e+09 2.08999e+09 1
000 526 1 0 2.0971e+09 2.09735e+09 2.09837e+09 2.1025e+09 0
001 527 2 0 2.1203e+09 2.12058e+09 2.1216e+09 2.12162e+09 0
000 528 2 0 2.13059e+09 2.13085e+09 2.13187e+09 2.15474e+09 1
000 529 2 1 2.16277e+09 2.16303e+09 2.16405e+09 2.168e+09 1
001 530 2 0 2.17146e+09 2.17172e+09 2.17274e+09 2.17279e+09 0
000 531 2 0 2.17994e+09 2.1802e+09 2.18122e+09 2.18222e+09 1
000 532 2 1 2.18958e+09 2.18983e+09 2.19085e+09 2.19469e+09 1
001 533 1 1 2.20732e+09 2.20756e+09 2.20858e+09 2.20971e+09 0
000 534 1 1 2.21836e+09 2.21862e+09 2.21964e+09 2.21966e+09 1
000 535 1 0 2.22697e+09 2.22723e+09 2.22825e+09 2.24148e+09 1
001 536 2 0 2.24404e+09 2.2443e+09 2.24532e+09 2.24806e+09 0
000 537 2 0 2.25841e+09 2.25866e+09 2.25968e+09 2.2597e+09 1
000 538 2 0 2.26885e+09 2.2691e+09 2.27012e+09 2.27062e+09 1
000 539 2 0 2.28063e+09 2.28087e+09 2.28189e+09 2.28409e+09 1
000 540 1 0 2.29561e+09 2.29586e+09 2.29688e+09 2.29699e+09 0
001 541 1 0 2.30456e+09 2.30482e+09 2.30584e+09 2.30621e+09 0
001 542 2 0 2.30965e+09 2.3099e+09 2.31092e+09 2.31138e+09 0
000 543 2 0 2.32141e+09 2.32166e+09 2.32268e+09 2.32334e+09 1
000 544 2 0 2.33379e+09 2.33404e+09 2.33506e+09 2.34074e+09 1
000 545 2 0 2.35029e+09 2.35055e+09 2.35157e+09 2.35448e+09 1
000 546 2 0 2.36397e+09 2.36421e+09 2.36523e+09 2.37495e+09 0
000 547 2 0 2.38208e+09 2.38233e+09 2.38335e+09 2.39536e+09 0
000 548 2 0 2.40268e+09 2.40293e+09 2.40395e+09 2.40397e+09 0
000 549 1 1 2.41816e+09 2.41841e+09 2.41943e+09 2.42507e+09 0
000 550 2 0 2.43356e+09 2.43382e+09 2.43484e+09 2.43534e+09 0
000 551 2 0 2.44299e+09 2.44324e+09 2.44426e+09 2.46169e+09 0
000 552 2 1 2.46922e+09 2.46949e+09 2.47051e+09 2.47224e+09 0
001 553 2 0 2.49129e+09 2.49154e+09 2.49256e+09 2.49305e+09 0
000 554 2 0 2.50072e+09 2.50099e+09 2.50201e+09 2.50212e+09 1
000 555 2 0 2.50923e+09 2.50948e+09 2.5105e+09 2.51188e+09 1
000 556 2 0 2.52197e+09 2.52223e+09 2.52325e+09 2.54451e+09 1
000 557 2 0 2.55602e+09 2.55627e+09 2.55729e+09 2.55765e+09 0
000 558 1 1 2.56494e+09 2.5652e+09 2.56622e+09 2.56714e+09 0
000 559 2 1 2.57479e+09 2.57504e+09 2.57606e+09 2.60366e+09 0
001 560 2 0 2.61089e+09 2.61115e+09 2.61217e+09 2.61262e+09 0
000 561 2 1 2.61985e+09 2.62012e+09 2.62114e+09 2.6384e+09 1
001 562 2 0 2.64553e+09 2.6458e+09 2.64682e+09 2.64684e+09 0
000 563 2 1 2.65409e+09 2.65435e+09 2.65537e+09 2.65718e+09 1
001 564 2 0 2.66363e+09 2.66388e+09 2.6649e+09 2.66631e+09 0
000 565 2 0 2.67337e+09 2.67363e+09 2.67465e+09 2.67516e+09 1
000 566 2 0 2.68342e+09 2.68368e+09 2.6847e+09 2.68883e+09 1
000 567 2 0 2.69876e+09 2.69901e+09 2.70003e+09 2.7002e+09 1
000 568 2 0 2.71905e+09 2.7193e+09 2.72033e+09 2.73265e+09 0
000 569 1 0 2.74121e+09 2.74146e+09 2.74249e+09 2.74259e+09 0
001 