trial trialType response stillTime stimOnset stimOffset respTime correctionTrial correct
001 2 1 8.7501e+06 9.08116e+06 1.01015e+07 4.53938e+07 0
001 002 1 1 4.85673e+07 4.88594e+07 4.98797e+07 3.32771e+08 0
000 003 1 1 3.39875e+08 3.40161e+08 3.41182e+08 4.09951e+08 1
000 004 1 1 4.17139e+08 4.17394e+08 4.18415e+08 8.78954e+08 1
000 005 1 0 8.88879e+08 8.89136e+08 8.90157e+08 8.90359e+08 1
001 006 1 1 8.93085e+08 8.93341e+08 8.94361e+08 8.94379e+08 0
000 007 1 1 9.15757e+08 9.16015e+08 9.17035e+08 9.1753e+08 1
000 008 1 1 9.28514e+08 9.28767e+08 9.29788e+08 9.30389e+08 1
000 009 1 1 9.417e+08 9.4195e+08 9.42971e+08 9.59491e+08 1
000 010 2 0 9.67762e+08 9.68015e+08 9.69036e+08 9.74168e+08 0
000 011 1 0 9.81719e+08 9.81964e+08 9.82985e+08 9.8321e+08 0
001 012 2 1 9.90297e+08 9.90547e+08 9.91567e+08 9.92101e+08 0
001 013 1 1 9.95238e+08 9.95484e+08 9.96504e+08 1.00965e+09 0
000 014 1 1 1.017e+09 1.01726e+09 1.01828e+09 1.02006e+09 1
000 015 1 0 1.02758e+09 1.02783e+09 1.02885e+09 1.02889e+09 1
001 016 1 1 1.03113e+09 1.03137e+09 1.03239e+09 1.04062e+09 0
000 017 1 1 1.0557e+09 1.05595e+09 1.05697e+09 1.05698e+09 1
000 018 1 0 1.06493e+09 1.06518e+09 1.0662e+09 1.06622e+09 1
001 019 2 1 1.07224e+09 1.07249e+09 1.07351e+09 1.0743e+09 0
001 020 2 0 1.08113e+09 1.08138e+09 1.0824e+09 1.08473e+09 0
000 021 2 0 1.09207e+09 1.09234e+09 1.09336e+09 1.09755e+09 1
000 022 2 0 1.1076e+09 1.10785e+09 1.10887e+09 1.11489e+09 1
000 023 2 0 1.12213e+09 1.12238e+09 1.1234e+09 1.12472e+09 1
000 024 2 1 1.13784e+09 1.13809e+09 1.13911e+09 1.15269e+09 0
001 025 2 1 1.15903e+09 1.15929e+09 1.16031e+09 1.16036e+09 0
001 026 1 0 1.16451e+09 1.16476e+09 1.16578e+09 1.18322e+09 0
001 027 2 0 1.1895e+09 1.18975e+09 1.19077e+09 1.19223e+09 0
000 028 2 0 1.20544e+09 1.20569e+09 1.20671e+09 1.21384e+09 1
000 029 2 0 1.22118e+09 1.22144e+09 1.22246e+09 1.23381e+09 1
000 030 2 1 1.25387e+09 1.25413e+09 1.25515e+09 1.25943e+09 1
001 031 2 0 1.2713e+09 1.27155e+09 1.27257e+09 1.27286e+09 0
000 032 2 1 1.28288e+09 1.28313e+09 1.28415e+09 1.28435e+09 1
001 033 2 1 1.29025e+09 1.29051e+09 1.29153e+09 1.29487e+09 0
001 034 1 1 1.30191e+09 1.30217e+09 1.30319e+09 1.30321e+09 0
000 035 1 0 1.31345e+09 1.31371e+09 1.31473e+09 1.31921e+09 1
001 036 1 1 1.32667e+09 1.32693e+09 1.32795e+09 1.33076e+09 0
000 037 1 0 1.33829e+09 1.33854e+09 1.33956e+09 1.34047e+09 1
001 038 1 0 1.34624e+09 1.3465e+09 1.34752e+09 1.34753e+09 0
001 039 1 1 1.3525e+09 1.35276e+09 1.35378e+09 1.35396e+09 0
000 040 1 1 1.36182e+09 1.36208e+09 1.3631e+09 1.36318e+09 1
000 041 1 1 1.37397e+09 1.37423e+09 1.37525e+09 1.37527e+09 1
000 042 1 0 1.38248e+09 1.38272e+09 1.38374e+09 1.38412e+09 1
001 043 1 0 1.396e+09 1.39625e+09 1.39727e+09 1.39732e+09 0
001 044 1 1 1.40254e+09 1.4028e+09 1.40382e+09 1.40709e+09 0
000 045 1 0 1.41531e+09 1.41557e+09 1.41659e+09 1.4166e+09 1
001 046 2 0 1.42676e+09 1.42701e+09 1.42803e+09 1.42917e+09 0
000 047 2 1 1.43644e+09 1.43669e+09 1.43771e+09 1.43812e+09 1
001 048 2 0 1.44806e+09 1.44832e+09 1.44934e+09 1.45319e+09 0
000 049 2 0 1.46042e+09 1.46067e+09 1.46169e+09 1.4617e+09 1
000 050 2 1 1.48028e+09 1.48054e+09 1.48156e+09 1.48215e+09 1
001 051 1 1 1.4858e+09 1.48606e+09 1.48708e+09 1.49601e+09 0
000 052 1 1 1.50458e+09 1.50484e+09 1.50586e+09 1.51119e+09 1
000 053 1 1 1.51843e+09 1.51868e+09 1.5197e+09 1.52973e+09 1
000 054 1 0 1.53733e+09 1.53758e+09 1.5386e+09 1.55118e+09 1
001 055 2 0 1.56245e+09 1.5627e+09 1.56372e+09 1.56375e+09 0
000 056 2 0 1.57309e+09 1.57334e+09 1.57436e+09 1.57456e+09 1
000 057 2 0 1.58193e+09 1.58218e+09 1.5832e+09 1.58414e+09 1
000 058 2 1 1.59174e+09 1.59199e+09 1.59301e+09 1.59643e+09 1
001 059 1 1 1.60401e+09 1.60427e+09 1.60529e+09 1.61326e+09 0
000 060 1 1 1.6222e+09 1.62246e+09 1.62348e+09 1.63327e+09 1
000 061 1 0 1.64053e+09 1.64078e+09 1.6418e+09 1.64285e+09 1
001 062 1 0 1.64641e+09 1.64666e+09 1.64768e+09 1.64775e+09 0
001 063 2 0 1.65158e+09 1.65183e+09 1.65285e+09 1.65402e+09 0
000 064 2 1 1.66499e+09 1.66525e+09 1.66627e+09 1.67014e+09 1
001 065 2 1 1.67989e+09 1.68015e+09 1.68117e+09 1.68145e+09 0
001 066 1 1 1.68718e+09 1.68745e+09 1.68847e+09 1.68852e+09 0
000 067 1 1 1.69941e+09 1.69968e+09 1.7007e+09 1.70885e+09 1
000 068 1 0 1.71798e+09 1.71823e+09 1.71925e+09 1.71933e+09 1
001 069 1 0 1.73136e+09 1.73162e+09 1.73264e+09 1.73423e+09 0
001 070 1 0 1.74332e+09 1.74358e+09 1.7446e+09 1.74461e+09 0
001 071 1 0 1.74857e+09 1.74882e+09 1.74984e+09 1.76068e+09 0
001 072 2 0 1.77302e+09 1.77329e+09 1.77431e+09 1.77624e+09 0
000 073 2 0 1.78341e+09 1.78367e+09 1.78469e+09 1.78471e+09 1
000 074 2 1 1.79566e+09 1.79591e+09 1.79694e+09 1.79803e+09 1
001 075 1 0 1.80363e+09 1.80388e+09 1.8049e+09 1.81455e+09 0
001 076 1 0 1.82345e+09 1.82371e+09 1.82473e+09 1.82473e+09 0
001 077 2 0 1.82837e+09 1.82862e+09 1.82964e+09 1.82965e+09 0
000 078 2 1 1.83894e+09 1.83919e+09 1.84021e+09 1.84051e+09 1
001 079 1 0 1.84515e+09 1.84541e+09 1.84643e+09 1.84652e+09 0
001 080 2 1 1.85485e+09 1.85511e+09 1.85613e+09 1.85615e+09 0
001 081 1 1 1.86044e+09 1.86071e+09 1.86173e+09 1.86199e+09 0
000 082 1 1 1.87256e+09 1.87284e+09 1.87386e+09 1.87388e+09 1
000 083 1 1 1.88105e+09 1.88131e+09 1.88233e+09 1.88291e+09 1
000 084 1 0 1.89187e+09 1.89212e+09 1.89314e+09 1.8941e+09 1
001 085 2 1 1.90158e+09 1.90183e+09 1.90285e+09 1.90288e+09 0
001 086 1 0 1.90633e+09 1.90659e+09 1.90761e+09 1.9077e+09 0
001 087 1 1 1.91661e+09 1.91687e+09 1.91789e+09 1.91797e+09 0
000 088 1 1 1.92571e+09 1.92596e+09 1.92698e+09 1.92797e+09 1
000 089 1 0 1.9366e+09 1.93686e+09 1.93788e+09 1.93908e+09 1
001 090 2 1 1.94753e+09 1.94778e+09 1.9488e+09 1.9516e+09 0
001 091 1 0 1.95928e+09 1.95953e+09 1.96055e+09 1.96815e+09 0
001 092 1 1 1.97273e+09 1.973e+09 1.97402e+09 1.97457e+09 0
000 093 1 0 1.98161e+09 1.98186e+09 1.98288e+09 1.98464e+09 1
001 094 2 0 1.98895e+09 1.98921e+09 1.99023e+09 1.99037e+09 0
000 095 2 0 1.99899e+09 1.99925e+09 2.00027e+09 2.00028e+09 1
000 096 2 1 2.00739e+09 2.00764e+09 2.00866e+09 2.00886e+09 1
001 097 1 0 2.01586e+09 2.01611e+09 2.01713e+09 2.01744e+09 0
001 098 1 0 2.02344e+09 2.0237e+09 2.02472e+09 2.02697e+09 0
001 099 1 0 2.03694e+09 2.03719e+09 2.03821e+09 2.03824e+09 0
001 100 2 1 2.05302e+09 2.05326e+09 2.05428e+09 2.05429e+09 0
001 101 1 1 2.06773e+09 2.068e+09 2.06902e+09 2.06918e+09 0
000 102 1 1 2.07757e+09 2.07783e+09 2.07885e+09 2.08048e+09 1
000 103 1 0 2.08879e+09 2.08905e+09 2.09007e+09 2.09011e+09 1
001 104 1 0 2.09367e+09 2.09392e+09 2.09494e+09 2.09522e+09 0
001 105 2 1 2.11994e+09 2.12019e+09 2.12121e+09 2.12154e+09 0
001 106 2 0 2.13301e+09 2.13326e+09 2.13428e+09 2.13434e+09 0
000 107 2 0 2.14926e+09 2.14951e+09 2.15053e+09 2.15058e+09 1
000 108 2 1 2.16063e+09 2.16088e+09 2.1619e+09 2.16223e+09 1
001 109 2 1 2.17222e+09 2.17247e+09 2.17349e+09 2.17374e+09 0
001 110 2 1 2.17726e+09 2.17751e+09 2.17853e+09 2.17854e+09 0
001 111 2 0 2.1823e+09 2.18255e+09 2.18357e+09 2.18358e+09 0
000 112 2 1 2.19344e+09 2.19371e+09 2.19473e+09 2.19507e+09 1
001 113 2 1 2.20711e+09 2.20736e+09 2.20838e+09 2.20866e+09 0
001 114 1 1 2.21737e+09 2.21761e+09 2.21863e+09 2.21865e+09 0
000 115 1 1 2.22583e+09 2.22608e+09 2.2271e+09 2.22711e+09 1
000 116 1 0 2.23681e+09 2.23707e+09 2.23809e+09 2.2392e+09 1
001 117 2 0 2.24485e+09 2.24511e+09 2.24613e+09 2.2462e+09 0
000 118 2 1 2.25969e+09 2.25995e+09 2.26097e+09 2.2649e+09 1
001 119 1 0 2.27812e+09 2.27837e+09 2.27939e+09 2.27961e+09 0
001 120 2 0 2.29043e+09 2.29067e+09 2.2917e+09 2.29988e+09 0
000 121 2 1 2.31311e+09 2.31337e+09 2.31439e+09 2.3147e+09 1
001 122 2 1 2.31824e+09 2.31849e+09 2.31951e+09 2.32001e+09 0
001 123 2 1 2.32652e+09 2.32678e+09 2.3278e+09 2.32783e+09 0
001 124 1 1 2.3333e+09 2.33356e+09 2.33458e+09 2.33459e+09 0
000 125 1 1 2.34325e+09 2.3435e+09 2.34452e+09 2.34455e+09 1
000 126 1 1 2.35205e+09 2.3523e+09 2.35332e+09 2.35333e+09 1
000 127 1 1 2.36122e+09 2.36147e+09 2.36249e+09 2.36257e+09 1
000 128 2 1 2.372e+09 2.37225e+09 2.37327e+09 2.37581e+09 0
001 129 2 1 2.38497e+09 2.38522e+09 2.38624e+09 2.38706e+09 0
001 130 2 1 2.39584e+09 2.3961e+09 2.39712e+09 2.39715e+09 0
001 131 2 0 2.41025e+09 2.4105e+09 2.41153e+09 2.41156e+09 0
000 132 2 1 2.42155e+09 2.4218e+09 2.42282e+09 2.4261e+09 1
001 133 1 1 2.43104e+09 2.4313e+09 2.43232e+09 2.43256e+09 0
000 134 1 1 2.44128e+09 2.44153e+09 2.44255e+09 2.44312e+09 1
000 135 1 1 2.45287e+09 2.45313e+09 2.45415e+09 2.45696e+09 1
000 136 1 0 2.4643e+09 2.46456e+09 2.46558e+09 2.46585e+09 1
001 137 1 1 2.47221e+09 2.47247e+09 2.47349e+09 2.47582e+09 0
000 138 1 1 2.48376e+09 2.48401e+09 2.48503e+09 2.49095e+09 1
000 139 1 1 2.50872e+09 2.50897e+09 2.50999e+09 2.51001e+09 1
000 140 1 0 2.51745e+09 2.51771e+09 2.51873e+09 2.51874e+09 1
001 141 2 0 2.52427e+09 2.52451e+09 2.52553e+09 2.52556e+09 0
000 142 2 1 2.53322e+09 2.53347e+09 2.53449e+09 2.53482e+09 1
001 143 2 1 2.54752e+09 2.54777e+09 2.54879e+09 2.5488e+09 0
001 144 1 0 2.55824e+09 2.5585e+09 2.55952e+09 2.55953e+09 0
001 145 1 0 2.57827e+09 2.57853e+09 2.57955e+09 2.57957e+09 0
001 146 2 0 2.58985e+09 2.5901e+09 2.59112e+09 2.59113e+09 0
000 147 2 0 2.60124e+09 2.60148e+09 2.6025e+09 2.60254e+09 1
000 148 2 0 2.61566e+09 2.61592e+09 2.61694e+09 2.61695e+09 1
000 149 2 1 2.63444e+09 2.63469e+09 2.63571e+09 2.64143e+09 1
001 150 2 1 2.64484e+09 2.64509e+09 2.64611e+09 2.6471e+09 0
001 151 1 1 2.65864e+09 2.6589e+09 2.65992e+09 2.65993e+09 0
000 152 1 0 2.669e+09 2.66926e+09 2.67028e+09 2.67407e+09 1
001 153 1 1 2.67736e+09 2.67762e+09 2.67864e+09 2.67865e+09 0
000 154 1 0 2.68896e+09 2.68921e+09 2.69023e+09 2.6906e+09 1
001 155 2 1 2.70121e+09 2.70146e+09 2.70248e+09 2.7026e+09 0
001 156 2 1 2.72344e+09 2.72369e+09 2.72471e+09 2.72523e+09 0
001 157 2 1 2.73537e+09 2.73561e+09 2.73663e+09 2.73672e+09 0
001 158 2 0 2.74339e+09 2.74365e+09 2.74467e+09 2.74469e+09 0
000 159 2 1 2.76558e+09 2.76583e+09 2.76685e+09 2.76729e+09 1
001 160 2 1 2.77394e+09 2.7742e+09 2.77522e+09 2.77529e+09 0
001 161 2 1 2.77998e+09 2.78023e+09 2.78125e+09 2.78144e+09 0
001 162 1 1 2.79099e+09 2.79124e+09 2.79226e+09 2.79227e+09 0
000 163 1 0 2.80224e+09 2.8025e+09 2.80352e+09 2.80468e+09 1
001 164 1 1 2.80734e+09 2.8076e+09 2.80862e+09 2.80865e+09 0
000 165 1 0 2.81722e+09 2.81747e+09 2.81849e+09 2.8192e+09 1
001 166 1 1 2.82239e+09 2.82265e+09 2.82367e+09 2.82371e+09 0
000 167 1 0 2.83097e+09 2.83123e+09 2.83225e+09 2.83228e+09 1
001 168 2 1 2.83979e+09 2.84005e+09 2.84107e+09 2.84112e+09 0
001 169 2 1 2.84466e+09 2.84492e+09 2.84594e+09 2.84594e+09 0
001 170 1 1 2.85064e+09 2.8509e+09 2.85192e+09 2.85194e+09 0
000 171 1 0 2.86301e+09 2.86326e+09 2.86428e+09 2.86434e+09 1
001 172 1 0 2.87524e+09 2.87549e+09 2.87651e+09 2.87652e+09 0
001 173 1 0 2.88658e+09 2.88684e+09 2.88786e+09 2.88797e+09 0
001 174 1 1 2.89734e+09 2.89759e+09 2.89861e+09 2.89943e+09 0
000 175 1 1 2.90785e+09 2.9081e+09 2.90912e+09 2.90915e+09 1
000 176 1 1 2.91645e+09 2.9167e+09 2.91772e+09 2.91809e+09 1
000 177 1 1 2.93034e+09 2.9306e+09 2.93162e+09 2.9325e+09 1
000 178 1 1 2.93974e+09 2.94e+09 2.94102e+09 2.94102e+09 0
000 179 2 1 2.94836e+09 2.94862e+09 2.94964e+09 2.95148e+09 0
001 180 2 0 2.95678e+09 2.95703e+09 2.95805e+09 2.95866e+09 0
000 181 2 1 2.96826e+09 2.9685e+09 2.96952e+09 2.97113e+09 1
001 182 1 0 2.97456e+09 2.97481e+09 2.97583e+09 2.97643e+09 0
001 183 1 0 2.97998e+09 2.98024e+09 2.98126e+09 2.98181e+09 0
001 184 1 1 2.98894e+09 2.9892e+09 2.99022e+09 2.99023e+09 0
000 185 1 1 2.99897e+09 2.99923e+09 3.00025e+09 3.00027e+09 1
000 186 1 1 3.00809e+09 3.00836e+09 3.00938e+09 3.00975e+09 1
000 187 1 0 3.02044e+09 3.02069e+09 3.02171e+09 3.02176e+09 1
001 188 2 1 3.02913e+09 3.02939e+09 3.03041e+09 3.03043e+09 0
001 189 2 1 3.04137e+09 3.04163e+09 3.04265e+09 3.04307e+09 0
001 190 2 0 3.04784e+09 3.0481e+09 3.04912e+09 3.04929e+09 0
000 191 2 1 3.05688e+09 3.05713e+09 3.05815e+09 3.06037e+09 1
001 192 2 1 3.06658e+09 3.06683e+09 3.06785e+09 3.07228e+09 0
001 193 1 1 3.07526e+09 3.07553e+09 3.07655e+09 3.089e+09 0
000 194 1 0 3.09738e+09 3.09763e+09 3.09865e+09 3.09874e+09 1
001 195 1 0 3.10983e+09 3.11009e+09 3.11111e+09 3.11112e+09 0
001 196 2 1 3.11376e+09 3.11402e+09 3.11504e+09 3.11584e+09 0
001 197 2 1 3.12607e+09 3.12633e+09 3.12735e+09 3.12736e+09 0
001 198 1 1 3.13098e+09 3.13124e+09 3.13226e+09 3.13324e+09 0
000 199 1 1 3.14074e+09 3.14099e+09 3.14201e+09 3.14209e+09 1
000 200 1 1 3.15066e+09 3.15092e+09 3.15194e+09 3.15207e+09 1
000 201 1 1 3.15934e+09 3.1596e+09 3.16062e+09 3.16071e+09 1
000 202 1 0 3.17651e+09 3.17677e+09 3.17779e+09 3.17779e+09 0
001 203 2 0 3.18472e+09 3.18497e+09 3.18599e+09 3.18601e+09 0
000 204 2 0 3.19344e+09 3.19369e+09 3.19471e+09 3.19477e+09 1
000 205 2 1 3.20349e+09 3.20376e+09 3.20478e+09 3.20518e+09 1
001 206 1 0 3.21418e+09 3.21443e+09 3.21545e+09 3.21546e+09 0
001 207 1 1 3.22453e+09 3.2248e+09 3.22582e+09 3.22585e+09 0
000 208 1 0 3.23291e+09 3.23318e+09 3.2342e+09 3.2342e+09 1
001 209 2 1 3.24198e+09 3.24224e+09 3.24326e+09 3.2433e+09 0
001 210 1 0 3.25392e+09 3.25417e+09 3.25519e+09 3.25521e+09 0
001 211 1 0 3.26161e+09 3.26186e+09 3.26289e+09 3.26289e+09 0
001 212 2 0 3.26629e+09 3.26656e+09 3.26758e+09 3.26758e+09 0
000 213 2 1 3.28028e+09 3.28054e+09 3.28156e+09 3.28157e+09 1
001 214 1 0 3.28491e+09 3.28518e+09 3.2862e+09 3.28621e+09 0
001 215 2 1 3.29316e+09 3.29341e+09 3.29443e+09 3.29455e+09 0
001 216 2 1 3.30036e+09 3.30061e+09 3.30163e+09 3.30335e+09 0
001 217 2 0 3.31158e+09 3.31183e+09 3.31285e+09 3.31302e+09 0
000 218 2 1 3.32115e+09 3.32142e+09 3.32244e+09 3.32248e+09 1
001 219 1 1 3.33032e+09 3.33057e+09 3.33159e+09 3.33159e+09 0
000 220 1 1 3.34034e+09 3.34061e+09 3.34163e+09 3.34189e+09 1
000 221 1 0 3.35208e+09 3.35233e+09 3.35335e+09 3.35336e+09 1
001 222 2 0 3.35893e+09 3.35919e+09 3.36021e+09 3.36093e+09 0
000 223 2 1 3.37082e+09 3.37108e+09 3.3721e+09 3.37212e+09 1
001 224 1 0 3.3812e+09 3.38146e+09 3.38248e+09 3.38258e+09 0
001 225 2 0 3.38629e+09 3.38655e+09 3.38757e+09 3.38762e+09 0
000 226 2 1 3.3954e+09 3.39564e+09 3.39666e+09 3.39726e+09 1
001 227 2 0 3.40143e+09 3.40169e+09 3.40271e+09 3.40276e+09 0
000 228 2 0 3.41046e+09 3.41072e+09 3.41174e+09 3.41246e+09 1
000 229 2 1 3.42031e+09 3.42058e+09 3.4216e+09 3.42271e+09 1
001 230 2 1 3.42595e+09 3.42619e+09 3.42721e+09 3.42722e+09 0
001 231 1 1 3.44114e+09 3.44138e+09 3.4424e+09 3.44342e+09 0
000 232 1 1 3.45172e+09 3.45198e+09 3.453e+09 3.4575e+09 1
000 233 1 1 3.46759e+09 3.46785e+09 3.46887e+09 3.47176e+09 1
000 234 1 1 3.4828e+09 3.48306e+09 3.48408e+09 3.4841e+09 1
000 235 1 1 3.49145e+09 3.49171e+09 3.49273e+09 3.49903e+09 0
000 236 1 0 3.50641e+09 3.50666e+09 3.50768e+09 3.50772e+09 0
001 237 2 1 3.5162e+09 3.51645e+09 3.51747e+09 3.51785e+09 0
001 238 1 1 3.52554e+09 3.5258e+09 3.52682e+09 3.52715e+09 0
000 239 1 1 3.53439e+09 3.53464e+09 3.53566e+09 3.53568e+09 1
000 240 1 1 3.54526e+09 3.5455e+09 3.54652e+09 3.54706e+09 1
000 241 1 1 3.56188e+09 3.56214e+09 3.56316e+09 3.56316e+09 1
000 242 1 1 3.57071e+09 3.57096e+09 3.57198e+09 3.57201e+09 0
000 243 1 0 3.5992e+09 3.59945e+09 3.60047e+09 3.6074e+09 0
001 244 2 1 3.61298e+09 3.61325e+09 3.61427e+09 3.61482e+09 0
001 245 1 1 3.62222e+09 3.62248e+09 3.6235e+09 3.62868e+09 0
000 246 1 1 3.63589e+09 3.63614e+09 3.63716e+09 3.63733e+09 1
000 247 1 1 3.64844e+09 3.64869e+09 3.64971e+09 3.65316e+09 1
000 248 1 1 3.6604e+09 3.66064e+09 3.66166e+09 3.66168e+09 1
000 249 2 1 3.66954e+09 3.66979e+09 3.67081e+09 3.67598e+09 0
001 250 2 1 3.67952e+09 3.67978e+09 3.6808e+09 3.68099e+09 0
001 251 1 1 3.6856e+09 3.68586e+09 3.68688e+09 3.69141e+09 0
000 252 1 1 3.69959e+09 3.69984e+09 3.70086e+09 3.70483e+09 1
000 253 1 1 3.71217e+09 3.71242e+09 3.71344e+09 3.71384e+09 1
000 254 1 1 3.72649e+09 3.72674e+09 3.72776e+09 3.7372e+09 1
000 255 1 1 3.74556e+09 3.74581e+09 3.74683e+09 3.74698e+09 0
000 256 1 1 3.76666e+09 3.76692e+09 3.76794e+09 3.77085e+09 0
000 257 2 1 3.78015e+09 3.7804e+09 3.78142e+09 3.78262e+09 0
001 258 2 1 3.78656e+09 3.78682e+09 3.78784e+09 3.78827e+09 0
001 259 2 1 3.79072e+09 3.79097e+09 3.79199e+09 3.79378e+09 0
001 260 2 1 3.79625e+09 3.7965e+09 3.79752e+09 3.79798e+09 0
001 261 2 1 3.80147e+09 3.80173e+09 3.80275e+09 3.80331e+09 0
001 262 1 0 3.80772e+09 3.80798e+09 3.809e+09 3.80919e+09 0
001 263 2 1 3.81136e+09 3.81162e+09 3.81264e+09 3.81677e+09 0
001 264 2 1 3.8221e+09 3.82236e+09 3.82338e+09 3.82404e+09 0
001 265 2 0 3.83173e+09 3.83199e+09 3.83301e+09 3.83708e+09 0
000 266 2 1 3.84673e+09 3.84699e+09 3.84801e+09 3.84824e+09 1
001 267 2 1 3.85145e+09 3.85169e+09 3.85271e+09 3.85803e+09 0
001 268 1 0 3.86624e+09 3.86648e+09 3.86751e+09 3.86755e+09 0
001 269 1 1 3.8721e+09 3.87235e+09 3.87337e+09 3.87339e+09 0
000 270 1 0 3.88214e+09 3.88241e+09 3.88343e+09 3.88346e+09 1
001 271 1 0 3.88678e+09 3.88704e+09 3.88806e+09 3.88921e+09 0
001 272 1 1 3.8971e+09 3.89734e+09 3.89836e+09 3.90464e+09 0
000 273 1 1 3.91186e+09 3.91211e+09 3.91313e+09 3.91622e+09 1
000 274 1 0 3.9235e+09 3.92375e+09 3.92477e+09 3.92482e+09 1
001 275 2 1 3.92704e+09 3.92728e+09 3.9283e+09 3.9286e+09 0
001 276 1 1 3.93316e+09 3.93341e+09 3.93443e+09 3.93842e+09 0
000 277 1 0 3.94817e+09 3.94842e+09 3.94944e+09 3.94945e+09 1
001 278 1 1 3.95316e+09 3.95342e+09 3.95444e+09 3.95536e+09 0
000 279 1 1 3.96277e+09 3.96302e+09 3.96404e+09 3.96586e+09 1
000 280 1 1 3.97393e+09 3.97418e+09 3.9752e+09 3.97522e+09 1
000 281 1 0 3.98568e+09 3.98594e+09 3.98696e+09 3.98697e+09 1
001 282 2 1 4.00179e+09 4.00203e+09 4.00306e+09 4.00982e+09 0
001 283 2 1 4.01295e+09 4.0132e+09 4.01422e+09 4.01775e+09 0
001 284 2 1 4.02178e+09 4.02203e+09 4.02305e+09 4.02404e+09 0
001 285 1 0 4.03354e+09 4.03381e+09 4.03483e+09 4.03501e+09 0
001 286 1 1 4.04166e+09 4.04192e+09 4.04294e+09 4.04304e+09 0
000 287 1 1 4.05266e+09 4.05292e+09 4.05394e+09 4.05394e+09 1
000 288 1 1 4.06195e+09 4.06221e+09 4.06323e+09 4.06323e+09 1
000 289 1 1 4.07089e+09 4.07114e+09 4.07216e+09 4.07277e+09 1
000 290 2 1 4.08108e+09 4.08133e+09 4.08235e+09 4.0859e+09 0
001 291 2 1 4.08969e+09 4.08995e+09 4.09097e+09 4.09228e+09 0
001 292 2 1 4.09553e+09 4.09578e+09 4.0968e+09 4.09712e+09 0
001 293 2 1 4.10025e+09 4.1005e+09 4.10152e+09 4.10188e+09 0
001 294 1 1 4.10512e+09 4.10538e+09 4.1064e+09 4.10643e+09 0
000 295 1 1 4.11465e+09 4.1149e+09 4.11592e+09 4.11595e+09 1
000 296 1 1 4.12339e+09 4.12364e+09 4.12466e+09 4.12819e+09 1
000 297 1 1 4.1375e+09 4.13776e+09 4.13878e+09 4.13889e+09 1
000 298 1 1 4.15294e+09 4.1532e+09 4.15422e+09 4.15758e+09 0
000 299 1 1 4.16637e+09 4.16664e+09 4.16766e+09 4.17141e+09 0
000 300 2 1 4.18741e+09 4.18766e+09 4.18868e+09 4.19703e+09 0
001 301 2 1 4.2e+09 4.20025e+09 4.20127e+09 4.20182e+09 0
001 302 2 1 4.20498e+09 4.20522e+09 4.20624e+09 4.20646e+09 0
001 303 1 0 4.20991e+09 4.21015e+09 4.21117e+09 4.21118e+09 0
001 304 2 1 4.21869e+09 4.21895e+09 4.21997e+09 4.22404e+09 0
001 305 2 1 4.2318e+09 4.23207e+09 4.23309e+09 4.23309e+09 0
001 306 2 1 4.23673e+09 4.23698e+09 4.238e+09 4.23981e+09 0
001 307 2 1 4.24252e+09 4.24277e+09 4.24379e+09 4.24391e+09 0
001 308 2 1 4.24731e+09 4.24757e+09 4.24859e+09 4.24891e+09 0
001 309 1 1 4.25253e+09 4.25279e+09 4.25381e+09 4.25642e+09 0
000 310 1 1 4.26384e+09 4.26409e+09 4.26511e+09 4.26528e+09 1
000 311 1 1 4.27279e+09 4.27305e+09 4.27407e+09 4.27409e+09 1
000 312 1 1 4.28126e+09 4.28152e+09 4.28254e+09 4.28262e+09 1
000 313 1 1 4.29167e+09 4.29193e+09 4.29295e+09 4.29434e+09 0
000 314 1 1 1.62253e+07 1.6487e+07 1.75073e+07 1.76212e+07 0
000 315 2 1 2.48965e+07 2.51598e+07 2.61801e+07 3.45806e+07 0
001 316 1 1 3.72408e+07 3.74981e+07 3.85184e+07 4.02257e+07 0
000 317 1 1 4.88929e+07 4.91417e+07 5.0162e+07 7.65609e+07 1
000 318 1 1 8.3797e+07 8.40636e+07 8.50839e+07 9.21535e+07 1
000 319 1 1 1.00209e+08 1.0047e+08 1.0149e+08 1.0344e+08 1
000 320 2 0 1.14685e+08 1.14936e+08 1.15956e+08 1.15971e+08 0
000 321 1 1 1.23738e+08 1.23995e+08 1.25016e+08 1.25265e+08 0
000 322 1 1 1.33612e+08 1.33865e+08 1.34885e+08 1.38171e+08 0
000 323 1 1 1.45401e+08 1.45659e+08 1.46679e+08 1.49364e+08 0
000 324 1 1 1.61724e+08 1.61985e+08 1.63005e+08 1.63016e+08 0
000 325 1 1 1.72133e+08 1.72394e+08 1.73414e+08 1.73601e+08 0
000 326 2 1 1.8095e+08 1.81209e+08 1.8223e+08 1.83142e+08 0
001 327 1 1 1.92371e+08 1.92615e+08 1.93635e+08 1.93667e+08 0
000 328 1 1 2.00891e+08 2.01158e+08 2.02178e+08 2.02668e+08 1
000 329 1 0 2.0974e+08 2.09997e+08 2.11017e+08 2.11034e+08 1
001 330 1 0 2.16436e+08 2.16694e+08 2.17715e+08 2.18132e+08 0
001 331 1 0 2.21643e+08 2.21898e+08 2.22919e+08 2.24173e+08 0
001 332 2 1 2.32753e+08 2.33007e+08 2.34028e+08 2.40496e+08 0
001 333 1 1 2.45275e+08 2.45527e+08 2.46547e+08 2.47287e+08 0
000 334 1 1 2.54635e+08 2.549e+08 2.5592e+08 2.60648e+08 1
000 335 1 0 2.71472e+08 2.71734e+08 2.72755e+08 2.72874e+08 1
001 336 1 1 2.75787e+08 2.76055e+08 2.77075e+08 2.79169e+08 0
000 337 1 1 2.86452e+08 2.86714e+08 2.87734e+08 2.87942e+08 1
000 338 1 1 2.95427e+08 2.95685e+08 2.96706e+08 2.97026e+08 1
000 339 1 1 3.09601e+08 3.09865e+08 3.10885e+08 3.10896e+08 1
000 340 2 1 3.19795e+08 3.20053e+08 3.21074e+08 3.236e+08 0
001 341 2 1 3.38644e+08 3.38905e+08 3.39925e+08 3.43597e+08 0
001 342 1 1 3.46435e+08 3.46696e+08 3.47717e+08 3.533e+08 0
000 343 1 1 3.63056e+08 3.63315e+08 3.64336e+08 3.65686e+08 1
000 344 1 1 3.76882e+08 3.77131e+08 3.78151e+08 3.83921e+08 1
000 345 1 0 3.96312e+08 3.96576e+08 3.97597e+08 3.97628e+08 1
001 346 2 1 4.01812e+08 4.02064e+08 4.03084e+08 4.0312e+08 0
001 347 1 1 4.06968e+08 4.07229e+08 4.08249e+08 4.08256e+08 0
000 348 1 1 4.16145e+08 4.16397e+08 4.17417e+08 4.17469e+08 1
000 349 1 1 4.2561e+08 4.25862e+08 4.26883e+08 4.26967e+08 1
000 350 1 1 4.3436e+08 4.34617e+08 4.35637e+08 4.36033e+08 1
000 351 1 1 4.4323e+08 4.43481e+08 4.44502e+08 4.44802e+08 0
000 352 1 1 4.52024e+08 4.52284e+08 4.53305e+08 4.56008e+08 0
000 353 1 0 4.63192e+08 4.63441e+08 4.64462e+08 4.64545e+08 0
001 354 1 1 4.68754e+08 4.69011e+08 4.70031e+08 4.71868e+08 0
000 355 1 1 4.82244e+08 4.82508e+08 4.83529e+08 4.98366e+08 1
000 356 1 1 5.11746e+08 5.11995e+08 5.13015e+08 5.1736e+08 1
000 357 1 0 5.2524e+08 5.25494e+08 5.26514e+08 5.27886e+08 1
001 358 1 1 5.36278e+08 5.36542e+08 5.37562e+08 5.39518e+08 0
000 359 1 0 5.46787e+08 5.47043e+08 5.48064e+08 5.59885e+08 1
001 360 2 1 5.6384e+08 5.64094e+08 5.65114e+08 5.68359e+08 0
001 361 1 1 5.76004e+08 5.76257e+08 5.77277e+08 5.81113e+08 0
000 362 1 1 5.88252e+08 5.885e+08 5.8952e+08 5.93429e+08 1
000 363 1 1 6.0089e+08 6.01144e+08 6.02164e+08 6.11239e+08 1
000 364 1 1 6.18419e+08 6.18676e+08 6.19696e+08 6.21902e+08 1
000 365 2 1 6.29407e+08 6.29658e+08 6.30678e+08 6.40524e+08 0
001 366 1 1 6.44512e+08 6.44768e+08 6.45788e+08 6.55484e+08 0
000 367 1 0 6.62765e+08 6.63015e+08 6.64036e+08 6.66845e+08 1
001 368 1 1 6.77132e+08 6.77395e+08 6.78415e+08 6.87264e+08 0
000 369 1 1 6.9577e+08 6.9602e+08 6.97041e+08 7.01241e+08 1
000 370 1 0 7.08585e+08 7.08851e+08 7.09871e+08 7.11006e+08 1
001 371 2 1 7.16664e+08 7.1692e+08 7.17941e+08 7.18376e+08 0
001 372 1 1 7.21419e+08 7.21678e+08 7.22698e+08 7.25078e+08 0
000 373 1 1 7.32349e+08 7.326e+08 7.3362e+08 7.37365e+08 1
000 374 1 1 7.44778e+08 7.45026e+08 7.46046e+08 7.48006e+08 1
000 375 1 1 7.55199e+08 7.55448e+08 7.56468e+08 7.60113e+08 1
000 376 1 0 7.68807e+08 7.69059e+08 7.7008e+08 7.73159e+08 0
001 377 2 1 7.83119e+08 7.83385e+08 7.84406e+08 7.93442e+08 0
001 378 2 1 7.99285e+08 7.99542e+08 8.00563e+08 8.00906e+08 0
001 379 1 0 8.06174e+08 8.06425e+08 8.07445e+08 8.11704e+08 0
001 380 1 1 8.14893e+08 8.15146e+08 8.16167e+08 8.16204e+08 0
000 381 1 1 8.24254e+08 8.24521e+08 8.25542e+08 8.3498e+08 1
000 382 1 0 8.44959e+08 8.45218e+08 8.46238e+08 8.46312e+08 1
001 383 2 0 8.53888e+08 8.54154e+08 8.55175e+08 8.59009e+08 0
000 384 2 1 8.66455e+08 8.66708e+08 8.67728e+08 8.70907e+08 1
001 385 1 1 8.76734e+08 8.76997e+08 8.78017e+08 8.81028e+08 0
000 386 1 1 8.89655e+08 8.89915e+08 8.90935e+08 8.93001e+08 1
000 387 1 1 9.01917e+08 9.02167e+08 9.03187e+08 9.12455e+08 1
000 388 1 0 9.21527e+08 9.21785e+08 9.22805e+08 9.25723e+08 1
001 389 1 1 9.38212e+08 9.38461e+08 9.39481e+08 9.49983e+08 0
000 390 1 0 9.59203e+08 9.59452e+08 9.60472e+08 9.60478e+08 1
001 391 2 1 9.66146e+08 9.66398e+08 9.67418e+08 9.68273e+08 0
001 392 1 1 9.73359e+08 9.73606e+08 9.74627e+08 9.78271e+08 0
000 393 1 1 9.85901e+08 9.86163e+08 9.87184e+08 9.88595e+08 1
000 394 1 1 9.95799e+08 9.96054e+08 9.97075e+08 9.99868e+08 1
000 395 1 1 1.00786e+09 1.00812e+09 1.00914e+09 1.01258e+09 1
000 396 2 1 1.02342e+09 1.02368e+09 1.0247e+09 1.02527e+09 0
001 397 1 1 1.03444e+09 1.03469e+09 1.03571e+09 1.03806e+09 0
000 398 1 1 1.0459e+09 1.04617e+09 1.04719e+09 1.0498e+09 1
000 399 1 1 1.05779e+09 1.05804e+09 1.05906e+09 1.0601e+09 1
000 400 1 1 1.06721e+09 1.06747e+09 1.06849e+09 1.06944e+09 1
000 401 1 1 1.07667e+09 1.07693e+09 1.07795e+09 1.08593e+09 0
000 402 2 1 1.09356e+09 1.09382e+09 1.09484e+09 1.09514e+09 0
001 403 1 1 1.10201e+09 1.10226e+09 1.10328e+09 1.11274e+09 0
000 404 1 1 1.12005e+09 1.12031e+09 1.12133e+09 1.13041e+09 1
000 405 1 0 1.13864e+09 1.1389e+09 1.13992e+09 1.14404e+09 1
001 406 2 1 1.14964e+09 1.14989e+09 1.15091e+09 1.15127e+09 0
001 407 2 0 1.16001e+09 1.16027e+09 1.16129e+09 1.16887e+09 0
000 408 2 1 1.17794e+09 1.1782e+09 1.17922e+09 1.18195e+09 1
001 409 2 1 1.1886e+09 1.18887e+09 1.18989e+09 1.19289e+09 0
001 410 1 1 1.19531e+09 1.19557e+09 1.19659e+09 1.20098e+09 0
000 411 1 1 1.20894e+09 1.20919e+09 1.21021e+09 1.21239e+09 1
000 412 1 1 1.21989e+09 1.22016e+09 1.22118e+09 1.22455e+09 1
000 413 1 1 1.23633e+09 1.23658e+09 1.2376e+09 1.24858e+09 1
000 414 1 1 1.25735e+09 1.25759e+09 1.25861e+09 1.26346e+09 0
000 415 1 1 1.27244e+09 1.2727e+09 1.27372e+09 1.27378e+09 0
000 416 2 1 1.28118e+09 1.28142e+09 1.28244e+09 1.28355e+09 0
001 417 2 1 1.28659e+09 1.28685e+09 1.28787e+09 1.28859e+09 0
001 418 1 1 1.29133e+09 1.29159e+09 1.29261e+09 1.29671e+09 0
000 419 1 1 1.30827e+09 1.30852e+09 1.30954e+09 1.31471e+09 1
000 420 1 1 1.32186e+09 1.32211e+09 1.32313e+09 1.3272e+09 1
000 421 1 1 1.33763e+09 1.3379e+09 1.33892e+09 1.33893e+09 1
000 422 2 1 1.34649e+09 1.34674e+09 1.34776e+09 1.34858e+09 0
001 423 1 1 1.35234e+09 1.35259e+09 1.35361e+09 1.36025e+09 0
000 424 1 1 1.36912e+09 1.36936e+09 1.37038e+09 1.37774e+09 1
000 425 1 1 1.38484e+09 1.38509e+09 1.38611e+09 1.38612e+09 1
000 426 1 0 1.39321e+09 1.39347e+09 1.39449e+09 1.39457e+09 1
001 427 2 1 1.39807e+09 1.39833e+09 1.39935e+09 1.39953e+09 0
001 428 1 1 1.40495e+09 1.40521e+09 1.40623e+09 1.40943e+09 0
000 429 1 1 1.4177e+09 1.41796e+09 1.41898e+09 1.42853e+09 1
000 430 1 1 1.43556e+09 1.43581e+09 1.43683e+09 1.44542e+09 1
000 431 1 0 1.4525e+09 1.45276e+09 1.45379e+09 1.45383e+09 1
001 432 1 0 1.45951e+09 1.45975e+09 1.46077e+09 1.46146e+09 0
001 433 2 1 1.46453e+09 1.46479e+09 1.46581e+09 1.46583e+09 0
001 434 2 1 1.47511e+09 1.47537e+09 1.47639e+09 1.47667e+09 0
001 435 1 0 1.48057e+09 1.48083e+09 1.48185e+09 1.48245e+09 0
001 436 1 1 1.49688e+09 1.49713e+09 1.49815e+09 1.49951e+09 0
000 437 1 1 1.50669e+09 1.50696e+09 1.50798e+09 1.50836e+09 1
000 438 1 1 1.51582e+09 1.51607e+09 1.51709e+09 1.52324e+09 1
000 439 1 1 1.53061e+09 1.53087e+09 1.53189e+09 1.53552e+09 1
000 440 2 1 1.54265e+09 1.54291e+09 1.54393e+09 1.54683e+09 0
001 441 2 1 1.55369e+09 1.55395e+09 1.55497e+09 1.55498e+09 0
001 442 1 0 1.56174e+09 1.56203e+09 1.56305e+09 1.56306e+09 0
001 443 2 1 1.57136e+09 1.57161e+09 1.57263e+09 1.62613e+09 0
001 