trial trialType response stillTime stimOnset stimOffset respTime correctionTrial correct
001 2 1 3.15496e+06 3.46388e+06 4.48416e+06 1.15084e+08 0
001 002 1 1 1.17591e+08 1.17859e+08 1.18879e+08 4.89434e+08 0
000 003 1 0 5.03265e+08 5.03522e+08 5.04542e+08 5.04551e+08 1
001 004 1 1 5.21363e+08 5.2163e+08 5.2265e+08 5.244e+08 0
000 005 1 0 5.47823e+08 5.4807e+08 5.49091e+08 5.49487e+08 1
001 006 1 1 5.51977e+08 5.52223e+08 5.53243e+08 5.53931e+08 0
000 007 1 0 5.64078e+08 5.64331e+08 5.65351e+08 5.65514e+08 1
001 008 2 0 5.69879e+08 5.70134e+08 5.71154e+08 5.72495e+08 0
000 009 2 0 5.86193e+08 5.86443e+08 5.87463e+08 5.8747e+08 1
000 010 2 0 5.99856e+08 6.00117e+08 6.01137e+08 6.01151e+08 1
000 011 2 1 6.12516e+08 6.12776e+08 6.13796e+08 6.14802e+08 1
001 012 1 1 6.18987e+08 6.19248e+08 6.20269e+08 6.20482e+08 0
000 013 1 0 6.33605e+08 6.33868e+08 6.34889e+08 6.3494e+08 1
001 014 2 1 6.41504e+08 6.41757e+08 6.42777e+08 6.42986e+08 0
001 015 1 1 6.48886e+08 6.49133e+08 6.50153e+08 6.50168e+08 0
000 016 1 1 6.66778e+08 6.67025e+08 6.68045e+08 6.68058e+08 1
000 017 1 1 6.75977e+08 6.76232e+08 6.77252e+08 6.77317e+08 1
000 018 1 1 6.8935e+08 6.89607e+08 6.90628e+08 6.90632e+08 1
000 019 1 0 7.02594e+08 7.02848e+08 7.03868e+08 7.04014e+08 0
001 020 2 1 7.09673e+08 7.09919e+08 7.10939e+08 7.11418e+08 0
001 021 2 1 7.17074e+08 7.17329e+08 7.1835e+08 7.18496e+08 0
001 022 1 0 7.30391e+08 7.30645e+08 7.31665e+08 7.31678e+08 0
001 023 2 0 7.49306e+08 7.49574e+08 7.50595e+08 7.50629e+08 0
000 024 2 1 7.58028e+08 7.58285e+08 7.59305e+08 7.59353e+08 1
001 025 1 1 7.65964e+08 7.6622e+08 7.6724e+08 7.67271e+08 0
000 026 1 1 7.81051e+08 7.81311e+08 7.82331e+08 7.82337e+08 1
000 027 1 1 7.90995e+08 7.91258e+08 7.92279e+08 7.92299e+08 1
000 028 1 1 8.0002e+08 8.00267e+08 8.01287e+08 8.02577e+08 1
000 029 2 1 8.11042e+08 8.11287e+08 8.12308e+08 8.12314e+08 0
001 030 2 0 8.2599e+08 8.2625e+08 8.2727e+08 8.27398e+08 0
000 031 2 1 8.35942e+08 8.36198e+08 8.37219e+08 8.38186e+08 1
001 032 1 1 8.44816e+08 8.45076e+08 8.46096e+08 8.4613e+08 0
000 033 1 0 8.53168e+08 8.53421e+08 8.54441e+08 8.54477e+08 1
001 034 2 1 8.58946e+08 8.59197e+08 8.60217e+08 8.60234e+08 0
001 035 2 0 8.69933e+08 8.70185e+08 8.71205e+08 8.7122e+08 0
000 036 2 1 8.78845e+08 8.79102e+08 8.80122e+08 8.80135e+08 1
001 037 2 1 8.87442e+08 8.87699e+08 8.88719e+08 8.88743e+08 0
001 038 1 1 8.92428e+08 8.92674e+08 8.93694e+08 8.93731e+08 0
000 039 1 1 9.02551e+08 9.028e+08 9.03821e+08 9.03828e+08 1
000 040 1 1 9.1923e+08 9.1949e+08 9.2051e+08 9.21939e+08 1
000 041 1 0 9.30045e+08 9.30301e+08 9.31321e+08 9.31359e+08 1
001 042 1 1 9.39571e+08 9.39836e+08 9.40856e+08 9.41149e+08 0
000 043 1 1 9.51802e+08 9.52056e+08 9.53076e+08 9.53121e+08 1
000 044 1 0 9.61991e+08 9.62247e+08 9.63267e+08 9.64241e+08 1
001 045 2 0 9.81347e+08 9.8161e+08 9.8263e+08 9.82641e+08 0
000 046 2 0 9.93447e+08 9.93698e+08 9.94718e+08 9.94732e+08 1
000 047 2 0 1.002e+09 1.00226e+09 1.00328e+09 1.0038e+09 1
000 048 2 1 1.01449e+09 1.01474e+09 1.01576e+09 1.01617e+09 1
001 049 2 1 1.02353e+09 1.02378e+09 1.0248e+09 1.02488e+09 0
001 050 2 0 1.03224e+09 1.0325e+09 1.03352e+09 1.03354e+09 0
000 051 2 0 1.04057e+09 1.04083e+09 1.04185e+09 1.04211e+09 1
000 052 2 0 1.06262e+09 1.06289e+09 1.06391e+09 1.06391e+09 1
000 053 2 1 1.07424e+09 1.0745e+09 1.07552e+09 1.07604e+09 1
001 054 1 1 1.08524e+09 1.08551e+09 1.08653e+09 1.08768e+09 0
000 055 1 1 1.095e+09 1.09526e+09 1.09628e+09 1.09654e+09 1
000 056 1 0 1.10562e+09 1.10588e+09 1.1069e+09 1.10692e+09 1
001 057 2 1 1.1182e+09 1.11846e+09 1.11948e+09 1.11949e+09 0
001 058 2 1 1.12447e+09 1.12473e+09 1.12575e+09 1.12578e+09 0
001 059 1 0 1.1327e+09 1.13296e+09 1.13398e+09 1.13428e+09 0
001 060 2 0 1.15822e+09 1.15847e+09 1.15949e+09 1.15952e+09 0
000 061 2 1 1.16677e+09 1.16702e+09 1.16804e+09 1.16887e+09 1
001 062 1 0 1.17117e+09 1.17143e+09 1.17245e+09 1.1725e+09 0
001 063 1 0 1.18463e+09 1.18488e+09 1.18591e+09 1.18592e+09 0
001 064 1 0 1.19096e+09 1.19122e+09 1.19224e+09 1.1926e+09 0
001 065 1 1 1.20685e+09 1.20711e+09 1.20813e+09 1.20868e+09 0
000 066 1 1 1.22524e+09 1.22549e+09 1.22651e+09 1.2268e+09 1
000 067 1 1 1.24762e+09 1.24787e+09 1.24889e+09 1.25126e+09 1
000 068 1 1 1.26611e+09 1.26637e+09 1.26739e+09 1.2674e+09 1
000 069 1 0 1.27564e+09 1.2759e+09 1.27692e+09 1.27697e+09 0
001 070 1 1 1.28359e+09 1.28385e+09 1.28487e+09 1.28587e+09 0
000 071 1 0 1.29424e+09 1.2945e+09 1.29552e+09 1.29556e+09 1
001 072 2 1 1.30422e+09 1.30447e+09 1.30549e+09 1.30559e+09 0
001 073 1 0 1.31496e+09 1.3152e+09 1.31622e+09 1.31636e+09 0
001 074 2 1 1.31996e+09 1.32022e+09 1.32124e+09 1.32127e+09 0
001 075 1 0 1.36455e+09 1.3648e+09 1.36582e+09 1.36583e+09 0
001 076 2 1 1.38961e+09 1.38986e+09 1.39088e+09 1.39114e+09 0
001 077 2 1 1.3942e+09 1.39445e+09 1.39547e+09 1.39711e+09 0
001 078 1 1 1.39965e+09 1.39992e+09 1.40094e+09 1.40105e+09 0
000 079 1 1 1.42657e+09 1.42683e+09 1.42785e+09 1.42836e+09 1
000 080 1 1 1.43557e+09 1.43583e+09 1.43685e+09 1.43877e+09 1
000 081 1 0 1.44821e+09 1.44847e+09 1.44949e+09 1.44962e+09 1
001 082 2 1 1.45317e+09 1.45342e+09 1.45444e+09 1.45588e+09 0
001 083 2 1 1.46217e+09 1.46243e+09 1.46345e+09 1.46594e+09 0
001 084 1 0 1.47403e+09 1.47429e+09 1.47531e+09 1.47532e+09 0
001 085 2 0 1.47768e+09 1.47795e+09 1.47897e+09 1.47899e+09 0
000 086 2 0 1.51229e+09 1.51254e+09 1.51356e+09 1.51358e+09 1
000 087 2 0 1.52611e+09 1.52637e+09 1.52739e+09 1.52742e+09 1
000 088 2 1 1.53804e+09 1.53828e+09 1.5393e+09 1.53931e+09 1
001 089 2 1 1.56407e+09 1.56433e+09 1.56535e+09 1.56536e+09 0
001 090 1 0 1.59216e+09 1.59241e+09 1.59343e+09 1.59353e+09 0
001 091 1 0 1.60506e+09 1.60531e+09 1.60633e+09 1.60638e+09 0
001 092 1 1 1.61598e+09 1.61624e+09 1.61726e+09 1.61728e+09 0
000 093 1 1 1.62431e+09 1.62457e+09 1.62559e+09 1.62559e+09 1
000 094 1 1 1.64163e+09 1.64188e+09 1.6429e+09 1.64492e+09 1
000 095 1 1 1.65221e+09 1.65247e+09 1.65349e+09 1.65582e+09 1
000 096 2 0 1.6656e+09 1.66586e+09 1.66688e+09 1.66702e+09 0
000 097 1 1 1.67621e+09 1.67647e+09 1.67749e+09 1.67783e+09 0
000 098 2 1 1.6878e+09 1.68807e+09 1.68909e+09 1.6913e+09 0
001 099 1 1 1.70797e+09 1.70822e+09 1.70924e+09 1.70938e+09 0
000 100 1 0 1.71678e+09 1.71705e+09 1.71807e+09 1.71841e+09 1
001 101 2 1 1.72778e+09 1.72804e+09 1.72906e+09 1.72953e+09 0
001 102 2 1 1.74199e+09 1.74224e+09 1.74326e+09 1.74866e+09 0
001 103 2 1 1.75898e+09 1.75923e+09 1.76025e+09 1.76215e+09 0
001 104 1 1 1.77221e+09 1.77245e+09 1.77347e+09 1.77378e+09 0
000 105 1 0 1.78513e+09 1.7854e+09 1.78642e+09 1.78647e+09 1
001 106 2 1 1.79831e+09 1.79856e+09 1.79958e+09 1.79995e+09 0
001 107 2 1 1.81256e+09 1.81282e+09 1.81384e+09 1.81448e+09 0
001 108 1 1 1.84027e+09 1.84053e+09 1.84155e+09 1.84155e+09 0
000 109 1 1 1.84888e+09 1.84914e+09 1.85016e+09 1.8502e+09 1
000 110 1 1 1.86703e+09 1.86729e+09 1.86831e+09 1.87137e+09 1
000 111 1 1 1.88044e+09 1.8807e+09 1.88172e+09 1.8821e+09 1
000 112 2 0 1.89874e+09 1.899e+09 1.90002e+09 1.90021e+09 0
000 113 1 0 1.91737e+09 1.91762e+09 1.91864e+09 1.9187e+09 0
001 114 2 1 1.93603e+09 1.93629e+09 1.93731e+09 1.93738e+09 0
001 115 1 1 1.94669e+09 1.94695e+09 1.94797e+09 1.9489e+09 0
000 116 1 0 1.96173e+09 1.96199e+09 1.96301e+09 1.96352e+09 1
001 117 2 1 2.00032e+09 2.00057e+09 2.00159e+09 2.00174e+09 0
001 118 1 1 2.03732e+09 2.03757e+09 2.03859e+09 2.0396e+09 0
000 119 1 1 2.05602e+09 2.05629e+09 2.05731e+09 2.05783e+09 1
000 120 1 0 2.0689e+09 2.06916e+09 2.07018e+09 2.07024e+09 1
001 121 1 0 2.10163e+09 2.10188e+09 2.1029e+09 2.10301e+09 0
001 122 2 1 2.11322e+09 2.11347e+09 2.11449e+09 2.11538e+09 0
001 123 2 0 2.12395e+09 2.1242e+09 2.12522e+09 2.12706e+09 0
000 124 2 0 2.13572e+09 2.13597e+09 2.13699e+09 2.13703e+09 1
000 125 2 1 2.1555e+09 2.15575e+09 2.15677e+09 2.15741e+09 1
001 126 2 1 2.1724e+09 2.17266e+09 2.17368e+09 2.17405e+09 0
001 127 2 1 2.19957e+09 2.19983e+09 2.20085e+09 2.20261e+09 0
001 128 1 1 2.20584e+09 2.2061e+09 2.20712e+09 2.20814e+09 0
000 129 1 0 2.22289e+09 2.22315e+09 2.22417e+09 2.22464e+09 1
001 130 2 1 2.24432e+09 2.24459e+09 2.24561e+09 2.24645e+09 0
001 131 1 1 2.28756e+09 2.28782e+09 2.28884e+09 2.289e+09 0
000 132 1 1 2.29813e+09 2.29838e+09 2.2994e+09 2.29952e+09 1
000 133 1 0 2.31729e+09 2.31755e+09 2.31857e+09 2.31976e+09 1
001 134 2 1 2.34469e+09 2.34495e+09 2.34597e+09 2.34598e+09 0
001 135 1 1 2.38634e+09 2.38661e+09 2.38763e+09 2.38773e+09 0
000 136 1 1 2.39643e+09 2.39669e+09 2.39771e+09 2.3978e+09 1
000 137 1 1 2.40701e+09 2.40727e+09 2.40829e+09 2.40886e+09 1
000 138 1 0 2.42452e+09 2.42477e+09 2.42579e+09 2.4258e+09 1
001 139 1 1 2.43155e+09 2.43181e+09 2.43283e+09 2.4339e+09 0
000 140 1 0 2.45158e+09 2.45184e+09 2.45286e+09 2.45297e+09 1
001 141 2 1 2.47072e+09 2.47098e+09 2.472e+09 2.47212e+09 0
001 142 1 1 2.48568e+09 2.48594e+09 2.48696e+09 2.48697e+09 0
000 143 1 0 2.50829e+09 2.50854e+09 2.50956e+09 2.50958e+09 1
001 144 1 1 2.53162e+09 2.53188e+09 2.5329e+09 2.5378e+09 0
000 145 1 1 2.5525e+09 2.55275e+09 2.55377e+09 2.55807e+09 1
000 146 1 1 2.5654e+09 2.56567e+09 2.56669e+09 2.56741e+09 1
000 147 1 0 2.57886e+09 2.57911e+09 2.58013e+09 2.5807e+09 1
001 148 1 1 2.59403e+09 2.59428e+09 2.5953e+09 2.59558e+09 0
000 149 1 1 2.60296e+09 2.60322e+09 2.60424e+09 2.60431e+09 1
000 150 1 1 2.61634e+09 2.61659e+09 2.61761e+09 2.61988e+09 1
000 151 1 1 2.62786e+09 2.62812e+09 2.62914e+09 2.63058e+09 1
000 152 2 1 2.63926e+09 2.63951e+09 2.64053e+09 2.64285e+09 0
001 153 2 1 2.6586e+09 2.65886e+09 2.65988e+09 2.65989e+09 0
001 154 1 0 2.67397e+09 2.67423e+09 2.67525e+09 2.67531e+09 0
001 155 2 0 2.67833e+09 2.67858e+09 2.6796e+09 2.67964e+09 0
000 156 2 1 2.69069e+09 2.69095e+09 2.69197e+09 2.69212e+09 1
001 157 1 1 2.69726e+09 2.69752e+09 2.69854e+09 2.69871e+09 0
000 158 1 1 2.706e+09 2.70626e+09 2.70728e+09 2.7097e+09 1
000 159 1 0 2.7224e+09 2.72266e+09 2.72368e+09 2.72572e+09 1
001 160 1 1 2.73901e+09 2.73927e+09 2.74029e+09 2.74031e+09 0
000 161 1 1 2.74748e+09 2.74773e+09 2.74875e+09 2.74899e+09 1
000 162 1 0 2.75612e+09 2.75638e+09 2.7574e+09 2.75824e+09 1
001 163 1 1 2.77363e+09 2.77388e+09 2.7749e+09 2.78205e+09 0
000 164 1 1 2.78971e+09 2.78996e+09 2.79098e+09 2.7921e+09 1
000 165 1 0 2.79937e+09 2.79963e+09 2.80065e+09 2.80298e+09 1
001 166 1 1 2.8126e+09 2.81286e+09 2.81388e+09 2.81492e+09 0
000 167 1 1 2.82246e+09 2.82271e+09 2.82373e+09 2.82383e+09 1
000 168 1 0 2.84056e+09 2.84081e+09 2.84183e+09 2.84318e+09 1
001 169 1 0 2.85686e+09 2.85712e+09 2.85814e+09 2.85818e+09 0
001 170 2 0 2.86231e+09 2.86257e+09 2.86359e+09 2.86361e+09 0
000 171 2 1 2.87087e+09 2.87112e+09 2.87214e+09 2.87508e+09 1
001 172 2 0 2.91262e+09 2.91288e+09 2.9139e+09 2.91408e+09 0
000 173 2 1 2.94268e+09 2.94293e+09 2.94395e+09 2.9444e+09 1
001 174 1 1 2.96866e+09 2.96893e+09 2.96995e+09 2.97035e+09 0
000 175 1 1 2.97802e+09 2.97828e+09 2.9793e+09 2.98111e+09 1
000 176 1 1 2.99081e+09 2.99107e+09 2.99209e+09 2.99307e+09 1
000 177 1 1 3.00206e+09 3.00231e+09 3.00333e+09 3.00545e+09 1
000 178 1 1 3.01458e+09 3.01483e+09 3.01585e+09 3.01636e+09 0
000 179 2 1 3.02522e+09 3.02548e+09 3.0265e+09 3.02666e+09 0
001 180 2 0 3.05494e+09 3.0552e+09 3.05622e+09 3.0563e+09 0
000 181 2 1 3.07006e+09 3.07031e+09 3.07133e+09 3.07195e+09 1
001 182 1 1 3.0815e+09 3.08175e+09 3.08277e+09 3.0839e+09 0
000 183 1 0 3.09215e+09 3.09239e+09 3.09341e+09 3.09342e+09 1
001 184 2 1 3.10204e+09 3.1023e+09 3.10332e+09 3.10351e+09 0
001 185 1 1 3.11983e+09 3.12008e+09 3.1211e+09 3.12233e+09 0
000 186 1 1 3.13544e+09 3.13571e+09 3.13673e+09 3.13673e+09 1
000 187 1 1 3.14826e+09 3.14852e+09 3.14954e+09 3.15e+09 1
000 188 1 1 3.15759e+09 3.15784e+09 3.15886e+09 3.15895e+09 1
000 189 1 1 3.17914e+09 3.1794e+09 3.18042e+09 3.18101e+09 0
000 190 1 1 3.18851e+09 3.18877e+09 3.18979e+09 3.19245e+09 0
000 191 1 1 3.20173e+09 3.20198e+09 3.203e+09 3.20374e+09 0
000 192 2 1 3.21436e+09 3.2146e+09 3.21562e+09 3.21625e+09 0
001 193 1 1 3.23765e+09 3.23792e+09 3.23894e+09 3.23895e+09 0
000 194 1 1 3.27625e+09 3.2765e+09 3.27752e+09 3.27847e+09 1
000 195 1 1 3.28603e+09 3.28629e+09 3.28731e+09 3.28883e+09 1
000 196 1 1 3.30937e+09 3.30962e+09 3.31064e+09 3.3107e+09 1
000 197 1 1 3.33572e+09 3.33597e+09 3.33699e+09 3.33989e+09 0
000 198 2 1 3.362e+09 3.36225e+09 3.36327e+09 3.3646e+09 0
001 199 2 0 3.37481e+09 3.37506e+09 3.37608e+09 3.37612e+09 0
000 200 2 1 3.3833e+09 3.38356e+09 3.38458e+09 3.38515e+09 1
001 201 2 1 3.4051e+09 3.40536e+09 3.40638e+09 3.40647e+09 0
001 202 1 1 3.42101e+09 3.42127e+09 3.42229e+09 3.42245e+09 0
000 203 1 1 3.43013e+09 3.43038e+09 3.4314e+09 3.43142e+09 1
000 204 1 1 3.44612e+09 3.44638e+09 3.4474e+09 3.44797e+09 1
000 205 1 0 3.45885e+09 3.4591e+09 3.46012e+09 3.46795e+09 1
001 206 1 1 3.48761e+09 3.48787e+09 3.48889e+09 3.49015e+09 0
000 207 1 1 3.49945e+09 3.49972e+09 3.50074e+09 3.50091e+09 1
000 208 1 1 3.50797e+09 3.50822e+09 3.50924e+09 3.51513e+09 1
000 209 1 1 3.53039e+09 3.53064e+09 3.53166e+09 3.53175e+09 1
000 210 2 1 3.53924e+09 3.5395e+09 3.54052e+09 3.54058e+09 0
001 211 2 0 3.55297e+09 3.55323e+09 3.55425e+09 3.55432e+09 0
000 212 2 1 3.56564e+09 3.5659e+09 3.56692e+09 3.56693e+09 1
001 213 2 1 3.58687e+09 3.58713e+09 3.58815e+09 3.59341e+09 0
001 214 1 1 3.6038e+09 3.60406e+09 3.60508e+09 3.60715e+09 0
000 215 1 0 3.6224e+09 3.62266e+09 3.62368e+09 3.62436e+09 1
001 216 2 0 3.63371e+09 3.63397e+09 3.63499e+09 3.63508e+09 0
000 217 2 1 3.65417e+09 3.65444e+09 3.65546e+09 3.65575e+09 1
001 218 2 1 3.66201e+09 3.66226e+09 3.66328e+09 3.66348e+09 0
001 219 1 0 3.67664e+09 3.67691e+09 3.67793e+09 3.67883e+09 0
001 220 1 0 3.6835e+09 3.68375e+09 3.68477e+09 3.68495e+09 0
001 221 2 0 3.69713e+09 3.69738e+09 3.6984e+09 3.69841e+09 0
000 222 2 1 3.70638e+09 3.70663e+09 3.70765e+09 3.70782e+09 1
001 223 2 0 3.72219e+09 3.72245e+09 3.72347e+09 3.72496e+09 0
000 224 2 0 3.73616e+09 3.73641e+09 3.73743e+09 3.73771e+09 1
000 225 2 0 3.74715e+09 3.74741e+09 3.74843e+09 3.74844e+09 1
000 226 2 1 3.76892e+09 3.76916e+09 3.77018e+09 3.77041e+09 1
001 227 1 1 3.77746e+09 3.77772e+09 3.77874e+09 3.7791e+09 0
000 228 1 1 3.78971e+09 3.78996e+09 3.79098e+09 3.79099e+09 1
000 229 1 1 3.79807e+09 3.79834e+09 3.79936e+09 3.80126e+09 1
000 230 1 1 3.82059e+09 3.82085e+09 3.82187e+09 3.82304e+09 1
000 231 2 1 3.83562e+09 3.83588e+09 3.8369e+09 3.83708e+09 0
001 232 2 0 3.8458e+09 3.84606e+09 3.84708e+09 3.84724e+09 0
000 233 2 0 3.86646e+09 3.86672e+09 3.86774e+09 3.868e+09 1
000 234 2 0 3.88358e+09 3.88383e+09 3.88485e+09 3.88491e+09 1
000 235 2 0 3.89301e+09 3.89325e+09 3.89427e+09 3.89438e+09 1
000 236 1 1 3.90528e+09 3.90554e+09 3.90656e+09 3.90802e+09 0
000 237 1 1 3.91944e+09 3.9197e+09 3.92072e+09 3.92198e+09 0
000 238 1 1 3.93353e+09 3.93379e+09 3.93481e+09 3.93567e+09 0
000 239 1 0 3.94297e+09 3.94322e+09 3.94424e+09 3.94619e+09 0
001 240 2 1 3.96643e+09 3.96667e+09 3.96769e+09 3.96795e+09 0
001 241 2 1 3.97306e+09 3.97332e+09 3.97434e+09 3.9744e+09 0
001 242 1 0 3.98418e+09 3.98444e+09 3.98546e+09 3.98547e+09 0
001 243 2 0 3.99643e+09 3.99668e+09 3.9977e+09 3.99775e+09 0
000 244 2 0 4.00802e+09 4.00828e+09 4.0093e+09 4.00932e+09 1
000 245 2 0 4.01699e+09 4.01724e+09 4.01826e+09 4.01827e+09 1
000 246 2 0 4.02808e+09 4.02833e+09 4.02935e+09 4.02981e+09 1
000 247 2 1 4.03813e+09 4.03837e+09 4.03939e+09 4.03949e+09 0
001 248 2 1 4.04339e+09 4.04364e+09 4.04466e+09 4.04493e+09 0
001 249 1 0 4.05045e+09 4.05071e+09 4.05173e+09 4.05204e+09 0
001 250 1 0 4.06057e+09 4.06082e+09 4.06184e+09 4.0619e+09 0
001 251 2 1 4.07322e+09 4.07347e+09 4.07449e+09 4.0745e+09 0
001 252 1 1 4.09885e+09 4.09911e+09 4.10013e+09 4.1016e+09 0
000 253 1 1 4.11961e+09 4.11986e+09 4.12088e+09 4.12283e+09 1
000 254 1 0 4.13647e+09 4.13674e+09 4.13776e+09 4.13791e+09 1
001 255 2 0 4.14681e+09 4.14706e+09 4.14808e+09 4.14809e+09 0
000 256 2 0 4.15546e+09 4.15572e+09 4.15674e+09 4.15681e+09 1
000 257 2 0 4.16635e+09 4.1666e+09 4.16762e+09 4.17071e+09 1
000 258 2 0 4.17846e+09 4.17872e+09 4.17974e+09 4.17997e+09 1
000 259 2 0 4.19365e+09 4.1939e+09 4.19492e+09 4.1954e+09 0
000 260 1 1 4.20544e+09 4.2057e+09 4.20672e+09 4.20672e+09 0
000 261 1 1 4.21441e+09 4.21466e+09 4.21568e+09 4.21621e+09 0
000 262 2 1 4.22684e+09 4.22711e+09 4.22813e+09 4.23187e+09 0
001 263 1 1 4.24981e+09 4.25007e+09 4.25109e+09 4.25363e+09 0
000 264 1 1 4.26914e+09 4.2694e+09 4.27042e+09 4.27084e+09 1
000 265 1 0 4.28194e+09 4.28219e+09 4.28321e+09 4.28332e+09 1
001 266 1 1 4.29249e+09 4.29274e+09 4.29376e+09 4.29404e+09 0
000 267 1 0 7.04923e+06 7.3101e+06 8.33038e+06 8.89053e+06 1
001 268 2 1 3.21198e+07 3.23698e+07 3.33901e+07 3.39422e+07 0
001 269 2 0 4.89974e+07 4.9255e+07 5.02753e+07 5.03041e+07 0
000 270 2 1 5.78703e+07 5.81238e+07 5.91441e+07 5.94764e+07 1
001 271 1 1 6.96412e+07 6.98869e+07 7.09071e+07 7.11823e+07 0
000 272 1 0 7.8252e+07 7.85154e+07 7.95357e+07 8.07494e+07 1
001 273 2 0 8.41359e+07 8.43946e+07 8.54149e+07 8.5546e+07 0
000 274 2 1 9.61383e+07 9.63876e+07 9.74079e+07 9.74139e+07 1
001 275 2 1 1.09984e+08 1.10228e+08 1.11248e+08 1.11313e+08 0
001 276 2 0 1.21094e+08 1.21347e+08 1.22367e+08 1.2239e+08 0
000 277 2 1 1.33706e+08 1.33967e+08 1.34988e+08 1.35157e+08 1
001 278 2 0 1.43623e+08 1.43876e+08 1.44896e+08 1.44941e+08 0
000 279 2 0 1.55108e+08 1.55357e+08 1.56377e+08 1.56414e+08 1
000 280 2 1 1.66808e+08 1.67068e+08 1.68089e+08 1.68207e+08 1
001 281 2 1 1.79755e+08 1.8001e+08 1.8103e+08 1.8393e+08 0
001 282 2 0 1.93981e+08 1.94234e+08 1.95254e+08 1.95325e+08 0
000 283 2 1 2.02477e+08 2.02735e+08 2.03755e+08 2.06182e+08 1
001 284 1 1 2.24797e+08 2.25051e+08 2.26072e+08 2.26235e+08 0
000 285 1 1 2.33539e+08 2.33783e+08 2.34803e+08 2.36472e+08 1
000 286 1 1 2.83206e+08 2.83465e+08 2.84485e+08 2.8613e+08 1
000 287 1 1 2.94373e+08 2.94627e+08 2.95647e+08 2.9571e+08 1
000 288 2 0 3.07121e+08 3.07376e+08 3.08396e+08 3.093e+08 0
000 289 1 0 3.18111e+08 3.18368e+08 3.19388e+08 3.19429e+08 0
001 290 2 1 3.35878e+08 3.36137e+08 3.37158e+08 3.41585e+08 0
001 291 1 1 3.52707e+08 3.52952e+08 3.53972e+08 3.53978e+08 0
000 292 1 0 3.65603e+08 3.65851e+08 3.66871e+08 3.66899e+08 1
001 293 2 0 3.77852e+08 3.78105e+08 3.79125e+08 3.79257e+08 0
000 294 2 1 4e+08 4.00254e+08 4.01275e+08 4.02664e+08 1
001 295 2 1 4.18187e+08 4.18447e+08 4.19467e+08 4.2056e+08 0
001 296 1 1 4.41678e+08 4.41926e+08 4.42946e+08 4.43035e+08 0
000 297 1 1 4.55674e+08 4.55926e+08 4.56946e+08 4.5855e+08 1
000 298 1 0 4.65904e+08 4.66152e+08 4.67173e+08 4.70772e+08 1
001 299 1 1 4.82511e+08 4.82762e+08 4.83782e+08 4.86045e+08 0
000 300 1 1 4.98252e+08 4.98503e+08 4.99524e+08 4.9997e+08 1
000 301 1 1 5.08508e+08 5.0876e+08 5.0978e+08 5.1226e+08 1
000 302 1 1 5.19511e+08 5.19758e+08 5.20778e+08 5.24555e+08 1
000 303 1 1 5.32346e+08 5.32598e+08 5.33618e+08 5.33679e+08 0
000 304 1 0 5.56874e+08 5.5712e+08 5.58141e+08 5.58209e+08 0
001 305 2 1 5.66773e+08 5.67025e+08 5.68045e+08 5.68072e+08 0
001 306 1 0 5.94616e+08 5.94863e+08 5.95883e+08 5.95972e+08 0
001 307 2 1 6.03492e+08 6.03744e+08 6.04764e+08 6.04951e+08 0
001 308 1 0 6.20491e+08 6.20747e+08 6.21767e+08 6.21817e+08 0
001 309 2 1 6.28065e+08 6.28322e+08 6.29342e+08 6.29359e+08 0
001 310 1 1 6.36228e+08 6.36482e+08 6.37502e+08 6.37512e+08 0
000 311 1 0 6.45964e+08 6.46221e+08 6.47241e+08 6.47321e+08 1
001 312 1 1 6.59576e+08 6.5982e+08 6.6084e+08 6.61464e+08 0
000 313 1 1 6.70222e+08 6.70478e+08 6.71499e+08 6.71544e+08 1
000 314 1 1 6.80154e+08 6.80413e+08 6.81433e+08 6.82068e+08 1
000 315 1 0 6.9306e+08 6.9332e+08 6.9434e+08 6.94391e+08 1
001 316 2 0 7.1078e+08 7.11058e+08 7.12078e+08 7.12091e+08 0
000 317 2 1 7.32921e+08 7.33172e+08 7.34193e+08 7.34237e+08 1
001 318 1 0 7.42742e+08 7.43004e+08 7.44024e+08 7.44116e+08 0
001 319 1 0 7.50896e+08 7.51151e+08 7.52171e+08 7.52193e+08 0
001 320 1 1 7.57701e+08 7.57956e+08 7.58976e+08 7.59106e+08 0
000 321 1 1 7.66529e+08 7.66774e+08 7.67794e+08 7.67814e+08 1
000 322 1 0 7.86927e+08 7.87183e+08 7.88203e+08 7.88216e+08 1
001 323 1 1 7.95618e+08 7.95884e+08 7.96905e+08 7.97004e+08 0
000 324 1 1 8.10654e+08 8.1091e+08 8.11931e+08 8.11974e+08 1
000 325 1 1 8.19236e+08 8.19497e+08 8.20517e+08 8.21671e+08 1
000 326 1 0 8.3034e+08 8.30589e+08 8.31609e+08 8.32058e+08 1
001 327 2 1 8.37743e+08 8.37993e+08 8.39014e+08 8.3965e+08 0
001 328 1 1 8.54382e+08 8.54636e+08 8.55656e+08 8.55757e+08 0
000 329 1 0 8.64344e+08 8.64592e+08 8.65612e+08 8.65622e+08 1
001 330 1 0 8.74152e+08 8.74399e+08 8.75419e+08 8.76419e+08 0
001 331 1 1 8.80192e+08 8.80442e+08 8.81463e+08 8.81972e+08 0
000 332 1 1 8.92243e+08 8.92502e+08 8.93522e+08 8.93614e+08 1
000 333 1 1 9.04066e+08 9.0431e+08 9.0533e+08 9.05539e+08 1
000 334 1 1 9.16821e+08 9.17068e+08 9.18088e+08 9.19213e+08 1
000 335 1 1 9.30983e+08 9.31228e+08 9.32248e+08 9.33201e+08 0
000 336 1 1 9.40503e+08 9.40751e+08 9.41771e+08 9.4421e+08 0
000 337 1 1 9.51553e+08 9.51811e+08 9.52831e+08 9.58115e+08 0
000 338 2 1 9.66831e+08 9.67086e+08 9.68107e+08 9.72197e+08 0
001 339 2 0 9.77784e+08 9.78034e+08 9.79054e+08 9.79379e+08 0
000 340 2 0 9.9516e+08 9.95411e+08 9.96431e+08 9.97624e+08 1
000 341 2 1 1.00573e+09 1.00599e+09 1.00701e+09 1.00738e+09 1
001 342 2 1 1.01675e+09 1.01701e+09 1.01803e+09 1.01815e+09 0
001 343 1 1 1.0329e+09 1.03316e+09 1.03418e+09 1.03438e+09 0
000 344 1 0 1.04339e+09 1.04365e+09 1.04467e+09 1.0447e+09 1
001 345 2 0 1.05415e+09 1.05441e+09 1.05543e+09 1.0555e+09 0
000 346 2 0 1.06318e+09 1.06343e+09 1.06445e+09 1.06447e+09 1
000 347 2 1 1.07198e+09 1.07223e+09 1.07325e+09 1.07344e+09 1
001 348 2 1 1.08195e+09 1.08221e+09 1.08323e+09 1.08671e+09 0
001 349 1 1 1.09147e+09 1.09173e+09 1.09275e+09 1.09282e+09 0
000 350 1 0 1.10024e+09 1.10051e+09 1.10153e+09 1.10236e+09 1
001 351 2 0 1.11397e+09 1.11421e+09 1.11523e+09 1.11526e+09 0
000 352 2 1 1.12908e+09 1.12934e+09 1.13036e+09 1.13116e+09 1
001 353 2 0 1.13612e+09 1.13637e+09 1.13739e+09 1.1374e+09 0
000 354 2 0 1.14666e+09 1.14692e+09 1.14794e+09 1.14866e+09 1
000 355 2 1 1.15604e+09 1.1563e+09 1.15732e+09 1.16245e+09 1
001 356 1 0 1.16931e+09 1.16957e+09 1.17059e+09 1.17059e+09 0
001 357 2 1 1.1807e+09 1.18096e+09 1.18198e+09 1.1824e+09 0
001 358 2 0 1.18681e+09 1.18707e+09 1.18809e+09 1.18814e+09 0
000 359 2 1 1.19824e+09 1.19849e+09 1.19952e+09 1.19968e+09 1
001 360 1 1 1.20601e+09 1.20626e+09 1.20728e+09 1.20728e+09 0
000 361 1 1 1.21508e+09 1.21534e+09 1.21636e+09 1.21739e+09 1
000 362 1 1 1.22614e+09 1.2264e+09 1.22742e+09 1.22754e+09 1
000 363 1 1 1.235e+09 1.23524e+09 1.23626e+09 1.23942e+09 1
000 364 2 0 1.24667e+09 1.24691e+09 1.24793e+09 1.24848e+09 0
000 365 2 0 1.25598e+09 1.25623e+09 1.25725e+09 1.25751e+09 0
000 366 1 1 1.26509e+09 1.26534e+09 1.26636e+09 1.26859e+09 0
000 367 2 0 1.27613e+09 1.27639e+09 1.27741e+09 1.28524e+09 0
000 368 2 1 1.30459e+09 1.30485e+09 1.30587e+09 1.32911e+09 0
001 369 1 1 1.33911e+09 1.33937e+09 1.34039e+09 1.34258e+09 0
000 370 1 1 1.35041e+09 1.35066e+09 1.35168e+09 1.35178e+09 1
000 371 1 0 1.36588e+09 1.36614e+09 1.36716e+09 1.36733e+09 1
001 372 1 0 1.37112e+09 1.37138e+09 1.3724e+09 1.3724e+09 0
001 373 2 1 1.38386e+09 1.38412e+09 1.38514e+09 1.38601e+09 0
001 374 1 1 1.39945e+09 1.39971e+09 1.40073e+09 1.40214e+09 0
000 375 1 1 1.41019e+09 1.41044e+09 1.41146e+09 1.41195e+09 1
000 376 1 0 1.42108e+09 1.42134e+09 1.42236e+09 1.42238e+09 1
001 377 1 1 1.4344e+09 1.43466e+09 1.43569e+09 1.43751e+09 0
000 378 1 1 1.4452e+09 1.44546e+09 1.44648e+09 1.44699e+09 1
000 379 1 1 1.45464e+09 1.45489e+09 1.45591e+09 1.4624e+09 1
000 380 1 1 1.46956e+09 1.46981e+09 1.47083e+09 1.47103e+09 1
000 381 1 1 1.47972e+09 1.47998e+09 1.481e+09 1.48603e+09 0
000 382 2 1 1.49322e+09 1.49349e+09 1.49451e+09 1.49453e+09 0
001 383 2 0 1.50733e+09 1.50757e+09 1.50859e+09 1.51161e+09 0
000 384 2 0 1.51906e+09 1.51931e+09 1.52033e+09 1.52086e+09 1
000 385 2 1 1.531e+09 1.53126e+09 1.53228e+09 1.53594e+09 1
001 386 1 0 1.54037e+09 1.54062e+09 1.54164e+09 1.54166e+09 0
001 387 1 0 1.54964e+09 1.54989e+09 1.55092e+09 1.55104e+09 0
001 388 2 0 1.55631e+09 1.55657e+09 1.55759e+09 1.55777e+09 0
000 389 2 0 1.57024e+09 1.5705e+09 1.57152e+09 1.57153e+09 1
000 390 2 1 1.57864e+09 1.57889e+09 1.57991e+09 1.58265e+09 1
001 391 1 0 1.58993e+09 1.59017e+09 1.59119e+09 1.59148e+09 0
001 392 2 1 1.59649e+09 1.59676e+09 1.59778e+09 1.59805e+09 0
001 393 2 1 1.60489e+09 1.60513e+09 1.60615e+09 1.60616e+09 0
001 394 1 0 1.61108e+09 1.61134e+09 1.61236e+09 1.61357e+09 0
001 395 1 0 1.62004e+09 1.62028e+09 1.6213e+09 1.62137e+09 0
001 396 1 1 1.6321e+09 1.63237e+09 1.63339e+09 1.6334e+09 0
000 397 1 1 1.64071e+09 1.64097e+09 1.64199e+09 1.64203e+09 1
000 398 1 0 1.65242e+09 1.65267e+09 1.65369e+09 1.65383e+09 1
001 399 1 1 1.65665e+09 1.65691e+09 1.65793e+09 1.65797e+09 0
000 400 1 1 1.66688e+09 1.66713e+09 1.66815e+09 1.66986e+09 1
000 401 1 1 1.67762e+09 1.67787e+09 1.67889e+09 1.67892e+09 1
000 402 1 0 1.686e+09 1.68625e+09 1.68727e+09 1.68729e+09 1
001 403 1 0 1.70444e+09 1.7047e+09 1.70572e+09 1.70828e+09 0
001 404 2 1 1.71653e+09 1.71678e+09 1.7178e+09 1.7214e+09 0
001 405 2 0 1.73182e+09 1.73207e+09 1.73309e+09 1.7335e+09 0
000 406 2 1 1.74491e+09 1.74517e+09 1.74619e+09 1.74784e+09 1
001 407 2 0 1.75447e+09 1.75473e+09 1.75575e+09 1.75577e+09 0
000 408 2 1 1.766e+09 1.76625e+09 1.76727e+09 1.77056e+09 1
001 409 1 1 1.77988e+09 1.78015e+09 1.78117e+09 1.78173e+09 0
000 410 1 0 1.78959e+09 1.78984e+09 1.79086e+09 1.79225e+09 1
001 411 2 1 1.80511e+09 1.80536e+09 1.80638e+09 1.80756e+09 0
001 412 2 1 1.81521e+09 1.81546e+09 1.81648e+09 1.81731e+09 0
001 413 2 1 1.82199e+09 1.82225e+09 1.82327e+09 1.82347e+09 0
001 414 2 1 1.82915e+09 1.8294e+09 1.83042e+09 1.83089e+09 0
001 415 2 1 1.84134e+09 1.84159e+09 1.84261e+09 1.84367e+09 0
001 416 1 0 1.85305e+09 1.85331e+09 1.85433e+09 1.85441e+09 0
001 417 2 1 1.85911e+09 1.85937e+09 1.86039e+09 1.86051e+09 0
001 418 1 1 1.86371e+09 1.86396e+09 1.86498e+09 1.86607e+09 0
000 419 1 0 1.87641e+09 1.87665e+09 1.87767e+09 1.87803e+09 1
001 420 1 1 1.88233e+09 1.88258e+09 1.8836e+09 1.88365e+09 0
000 421 1 0 1.89092e+09 1.89118e+09 1.8922e+09 1.89233e+09 1
001 422 1 1 1.90392e+09 1.90418e+09 1.9052e+09 1.90522e+09 0
000 423 1 1 1.91341e+09 1.91367e+09 1.91469e+09 1.91556e+09 1
000 424 1 1 1.92496e+09 1.9252e+09 1.92622e+09 1.92661e+09 1
000 425 1 1 1.93551e+09 1.93576e+09 1.93678e+09 1.93731e+09 1
000 426 1 1 1.94607e+09 1.94633e+09 1.94735e+09 1.95076e+09 0
000 427 1 1 1.95846e+09 1.95871e+09 1.95973e+09 1.96352e+09 0
000 428 2 0 1.97202e+09 1.97228e+09 1.9733e+09 1.97779e+09 0
000 429 2 1 1.99267e+09 1.99292e+09 1.99394e+09 1.99741e+09 0
001 430 2 0 1.99998e+09 2.00023e+09 2.00125e+09 2.00126e+09 0
000 431 2 1 2.01322e+09 2.01347e+09 2.01449e+09 2.01661e+09 1
001 432 2 1 2.02273e+09 2.02298e+09 2.024e+09 2.02475e+09 0
001 433 1 1 2.02924e+09 2.02948e+09 2.0305e+09 2.03194e+09 0
000 434 1 1 2.03906e+09 2.03931e+09 2.04033e+09 2.05225e+09 1
000 435 1 0 2.05971e+09 2.05996e+09 2.06099e+09 2.061e+09 1
001 436 2 1 2.06636e+09 2.06661e+09 2.06764e+09 2.06818e+09 0
001 