trial trialType response stillTime stimOnset stimOffset respTime correctionTrial correct
001 1 0 1.40124e+07 1.43441e+07 1.53644e+07 2.14625e+07 0 1
002 1 0 3.41105e+07 3.43844e+07 3.54047e+07 3.54938e+07 0 1
003 2 0 4.03282e+07 4.06249e+07 4.16452e+07 4.19761e+07 0 0
004 2 1 5.98354e+07 6.00946e+07 6.11149e+07 6.11338e+07 1 1
005 1 0 7.08373e+07 7.10925e+07 7.21128e+07 7.25806e+07 0 1
006 1 0 7.54494e+07 7.57127e+07 7.6733e+07 7.74866e+07 0 1
007 1 1 8.13302e+07 8.15829e+07 8.26032e+07 8.66088e+07 0 0
008 1 1 1.13328e+08 1.13593e+08 1.14613e+08 1.21033e+08 1 0
009 1 0 1.28498e+08 1.28772e+08 1.29792e+08 1.30126e+08 1 1
010 1 0 1.32921e+08 1.3318e+08 1.342e+08 1.41997e+08 0 1
011 1 1 1.48575e+08 1.48827e+08 1.49847e+08 1.50855e+08 0 0
012 1 1 1.58233e+08 1.58483e+08 1.59503e+08 1.71767e+08 1 0
013 1 1 1.87523e+08 1.87781e+08 1.88801e+08 1.89487e+08 1 0
014 1 1 2.04354e+08 2.04611e+08 2.05632e+08 2.0616e+08 1 0
015 1 1 2.13745e+08 2.1401e+08 2.1503e+08 2.1608e+08 0 0
016 1 1 2.2328e+08 2.23539e+08 2.24559e+08 2.24789e+08 0 0
017 1 0 2.35256e+08 2.3551e+08 2.3653e+08 2.38037e+08 0 1
018 1 1 2.40859e+08 2.4112e+08 2.4214e+08 2.48805e+08 0 0
019 1 1 2.56177e+08 2.56435e+08 2.57455e+08 2.69477e+08 1 0
020 1 1 2.76635e+08 2.76888e+08 2.77908e+08 2.79013e+08 1 0
021 1 1 2.86962e+08 2.87227e+08 2.88247e+08 2.88958e+08 1 0
022 2 1 2.96241e+08 2.96503e+08 2.97523e+08 3.11958e+08 0 1
023 1 0 3.17848e+08 3.18108e+08 3.19128e+08 3.25866e+08 0 1
024 2 0 3.28595e+08 3.28858e+08 3.29878e+08 3.38724e+08 0 0
025 2 1 3.4582e+08 3.46071e+08 3.47091e+08 3.50685e+08 1 1
026 1 0 3.5455e+08 3.54811e+08 3.55832e+08 3.56004e+08 0 1
027 2 1 3.64084e+08 3.64352e+08 3.65372e+08 3.68118e+08 0 1
028 1 1 3.74983e+08 3.75244e+08 3.76264e+08 3.77158e+08 0 0
029 1 1 3.84501e+08 3.84756e+08 3.85776e+08 3.8782e+08 1 0
030 1 1 3.95555e+08 3.95805e+08 3.96825e+08 3.97289e+08 1 0
031 1 1 4.05771e+08 4.06023e+08 4.07044e+08 4.07098e+08 1 0
032 2 1 4.18484e+08 4.18739e+08 4.1976e+08 4.22263e+08 0 1
033 2 1 4.27687e+08 4.27971e+08 4.28992e+08 4.35765e+08 0 1
034 2 1 4.40176e+08 4.40428e+08 4.41448e+08 4.45765e+08 0 1
035 2 1 4.59442e+08 4.5971e+08 4.6073e+08 4.61377e+08 0 1
036 1 1 4.70157e+08 4.70416e+08 4.71436e+08 4.76306e+08 0 0
037 1 1 4.90545e+08 4.908e+08 4.91821e+08 4.92591e+08 1 0
038 1 1 4.99773e+08 5.00021e+08 5.01041e+08 5.01058e+08 1 0
039 1 1 5.08171e+08 5.08428e+08 5.09448e+08 5.09919e+08 1 0
040 2 1 5.17333e+08 5.17582e+08 5.18602e+08 5.18655e+08 0 1
041 2 1 5.25184e+08 5.25446e+08 5.26466e+08 5.3511e+08 0 1
042 2 1 5.40603e+08 5.40856e+08 5.41876e+08 5.49337e+08 0 1
043 2 1 5.57611e+08 5.57875e+08 5.58895e+08 5.623e+08 0 1
044 1 0 5.7135e+08 5.7161e+08 5.7263e+08 5.72643e+08 0 1
045 1 0 5.76033e+08 5.76288e+08 5.77309e+08 5.78248e+08 0 1
046 1 1 5.8179e+08 5.82045e+08 5.83065e+08 5.85953e+08 0 0
047 1 1 5.96639e+08 5.96892e+08 5.97913e+08 6.07834e+08 1 0
048 1 1 6.17494e+08 6.17753e+08 6.18773e+08 6.28244e+08 1 0
049 1 1 6.41295e+08 6.41554e+08 6.42575e+08 6.42592e+08 1 0
050 2 1 6.51823e+08 6.52078e+08 6.53099e+08 6.53121e+08 0 1
051 2 1 6.56099e+08 6.5636e+08 6.5738e+08 6.67835e+08 0 1
052 2 1 6.74698e+08 6.74957e+08 6.75977e+08 6.77938e+08 0 1
053 1 1 6.82221e+08 6.82466e+08 6.83486e+08 6.87805e+08 0 0
054 1 1 7.01015e+08 7.0127e+08 7.0229e+08 7.02316e+08 1 0
055 1 1 7.14984e+08 7.15239e+08 7.16259e+08 7.22181e+08 1 0
056 1 1 7.40993e+08 7.41256e+08 7.42277e+08 7.46922e+08 1 0
057 1 1 7.54144e+08 7.54408e+08 7.55428e+08 7.60998e+08 0 0
058 2 0 7.68289e+08 7.68542e+08 7.69562e+08 7.69578e+08 0 0
059 2 1 7.767e+08 7.76956e+08 7.77976e+08 7.91101e+08 0 1
060 1 1 8.05459e+08 8.05711e+08 8.06732e+08 8.08705e+08 0 0
061 1 1 8.15953e+08 8.16204e+08 8.17225e+08 8.17434e+08 1 0
062 1 1 8.24631e+08 8.24884e+08 8.25904e+08 8.28722e+08 1 0
063 1 0 8.35814e+08 8.3607e+08 8.3709e+08 8.38812e+08 1 1
064 2 1 8.42214e+08 8.42478e+08 8.43498e+08 8.45659e+08 0 1
065 2 1 8.49048e+08 8.493e+08 8.50321e+08 8.58733e+08 0 1
066 1 1 8.74003e+08 8.7426e+08 8.7528e+08 8.75594e+08 0 0
067 1 1 8.83109e+08 8.83368e+08 8.84388e+08 8.85279e+08 1 0
068 1 1 8.93946e+08 8.9421e+08 8.95231e+08 8.974e+08 1 0
069 1 1 9.04665e+08 9.04923e+08 9.05943e+08 9.09274e+08 1 0
070 1 1 9.16792e+08 9.17048e+08 9.18069e+08 9.18429e+08 0 0
071 2 1 9.33128e+08 9.33394e+08 9.34415e+08 9.34512e+08 0 1
072 1 1 9.44255e+08 9.44517e+08 9.45538e+08 9.46385e+08 0 0
073 1 0 9.57822e+08 9.58074e+08 9.59094e+08 9.59209e+08 1 1
074 1 1 9.67613e+08 9.67868e+08 9.68889e+08 9.70796e+08 0 0
075 1 1 9.81818e+08 9.82073e+08 9.83093e+08 9.84952e+08 1 0
076 1 1 9.92299e+08 9.92562e+08 9.93583e+08 9.94138e+08 1 0
077 1 1 1.00381e+09 1.00406e+09 1.00508e+09 1.00573e+09 1 0
078 2 1 1.01285e+09 1.01311e+09 1.01413e+09 1.01909e+09 0 1
079 2 1 1.02809e+09 1.02836e+09 1.02938e+09 1.02965e+09 0 1
080 1 1 1.04191e+09 1.04216e+09 1.04318e+09 1.04469e+09 0 0
081 1 1 1.0608e+09 1.06105e+09 1.06207e+09 1.06519e+09 1 0
082 1 1 1.07232e+09 1.07258e+09 1.0736e+09 1.07413e+09 1 0
083 1 1 1.08952e+09 1.08978e+09 1.0908e+09 1.09396e+09 1 0
084 2 1 1.10106e+09 1.10132e+09 1.10234e+09 1.10353e+09 0 1
085 1 1 1.11709e+09 1.11734e+09 1.11836e+09 1.11915e+09 0 0
086 1 1 1.12663e+09 1.12688e+09 1.1279e+09 1.12994e+09 1 0
087 1 1 1.13908e+09 1.13933e+09 1.14035e+09 1.14674e+09 1 0
088 1 1 1.15732e+09 1.15757e+09 1.15859e+09 1.1586e+09 1 0
089 2 0 1.16896e+09 1.1692e+09 1.17022e+09 1.17038e+09 0 0
090 2 1 1.17777e+09 1.17802e+09 1.17904e+09 1.18658e+09 0 1
091 2 1 1.19416e+09 1.19441e+09 1.19543e+09 1.19549e+09 0 1
092 1 0 1.1987e+09 1.19896e+09 1.19998e+09 1.20058e+09 0 1
093 1 1 1.21293e+09 1.21319e+09 1.21421e+09 1.22063e+09 0 0
094 1 1 1.22806e+09 1.22832e+09 1.22934e+09 1.23093e+09 1 0
095 1 1 1.24673e+09 1.24699e+09 1.24801e+09 1.24952e+09 1 0
096 1 1 1.25825e+09 1.25852e+09 1.25954e+09 1.26657e+09 1 0
097 2 1 1.27389e+09 1.27415e+09 1.27517e+09 1.27613e+09 0 1
098 1 1 1.27936e+09 1.27963e+09 1.28065e+09 1.28419e+09 0 0
099 1 1 1.29294e+09 1.29321e+09 1.29423e+09 1.29437e+09 1 0
100 1 1 1.30156e+09 1.30182e+09 1.30284e+09 1.30568e+09 1 0
101 1 1 1.31503e+09 1.31529e+09 1.31631e+09 1.31842e+09 1 0
102 2 1 1.3259e+09 1.32616e+09 1.32718e+09 1.32727e+09 0 1
103 2 1 1.33065e+09 1.33092e+09 1.33194e+09 1.33773e+09 0 1
104 2 0 1.34055e+09 1.34081e+09 1.34183e+09 1.34198e+09 0 0
105 2 1 1.35446e+09 1.35472e+09 1.35574e+09 1.35951e+09 1 1
106 2 1 1.36353e+09 1.36379e+09 1.36481e+09 1.36621e+09 0 1
107 1 1 1.36976e+09 1.37002e+09 1.37104e+09 1.37624e+09 0 0
108 1 1 1.38367e+09 1.38392e+09 1.38494e+09 1.38564e+09 1 0
109 1 0 1.39297e+09 1.39322e+09 1.39424e+09 1.3943e+09 1 1
110 2 1 1.3995e+09 1.39977e+09 1.40079e+09 1.40167e+09 0 1
111 1 0 1.40576e+09 1.40601e+09 1.40703e+09 1.40729e+09 0 1
112 2 1 1.41935e+09 1.4196e+09 1.42062e+09 1.42063e+09 0 1
113 1 1 1.43934e+09 1.4396e+09 1.44062e+09 1.44289e+09 0 0
114 1 1 1.45095e+09 1.45122e+09 1.45224e+09 1.45643e+09 1 0
115 1 0 1.46361e+09 1.46386e+09 1.46488e+09 1.46511e+09 1 1
116 1 0 1.47017e+09 1.47042e+09 1.47144e+09 1.47152e+09 0 1
117 2 1 1.48025e+09 1.4805e+09 1.48152e+09 1.48158e+09 0 1
118 1 1 1.48599e+09 1.48623e+09 1.48726e+09 1.48727e+09 0 0
119 1 1 1.49478e+09 1.49503e+09 1.49605e+09 1.49605e+09 1 0
120 1 1 1.50389e+09 1.50415e+09 1.50517e+09 1.51062e+09 1 0
121 1 1 1.51823e+09 1.51849e+09 1.51951e+09 1.51983e+09 1 0
122 2 1 1.52697e+09 1.52721e+09 1.52823e+09 1.53094e+09 0 1
123 2 1 1.54211e+09 1.54238e+09 1.5434e+09 1.54652e+09 0 1
124 1 1 1.55812e+09 1.55838e+09 1.5594e+09 1.56166e+09 0 0
125 1 1 1.56908e+09 1.56934e+09 1.57036e+09 1.57039e+09 1 0
126 1 1 1.58115e+09 1.5814e+09 1.58242e+09 1.58437e+09 1 0
127 1 1 1.5938e+09 1.59405e+09 1.59507e+09 1.59657e+09 1 0
128 2 1 1.60448e+09 1.60475e+09 1.60577e+09 1.60578e+09 0 1
129 2 1 1.61095e+09 1.6112e+09 1.61222e+09 1.61342e+09 0 1
130 1 1 1.63933e+09 1.63958e+09 1.6406e+09 1.6406e+09 0 0
131 1 1 1.64807e+09 1.64833e+09 1.64935e+09 1.64981e+09 1 0
132 1 1 1.6572e+09 1.65745e+09 1.65847e+09 1.66214e+09 1 0
133 1 1 1.67367e+09 1.67392e+09 1.67494e+09 1.67879e+09 1 0
134 1 1 1.68814e+09 1.6884e+09 1.68942e+09 1.68976e+09 0 0
135 2 1 1.69712e+09 1.69738e+09 1.6984e+09 1.70518e+09 0 1
136 1 1 1.71354e+09 1.71378e+09 1.7148e+09 1.7166e+09 0 0
137 1 1 1.72383e+09 1.72407e+09 1.72509e+09 1.73108e+09 1 0
138 1 1 1.74101e+09 1.74127e+09 1.74229e+09 1.74531e+09 1 0
139 1 1 1.75764e+09 1.7579e+09 1.75892e+09 1.75922e+09 1 0
140 2 0 1.7667e+09 1.76697e+09 1.76799e+09 1.76864e+09 0 0
141 1 1 1.77582e+09 1.77608e+09 1.7771e+09 1.778e+09 0 0
142 2 1 1.78549e+09 1.78574e+09 1.78676e+09 1.78677e+09 0 1
143 1 1 1.79198e+09 1.79223e+09 1.79325e+09 1.80152e+09 0 0
144 1 1 1.81979e+09 1.82004e+09 1.82106e+09 1.82359e+09 1 0
145 1 1 1.83585e+09 1.83609e+09 1.83711e+09 1.83816e+09 1 0
146 1 1 1.85346e+09 1.8537e+09 1.85472e+09 1.85722e+09 1 0
147 1 1 1.8684e+09 1.86865e+09 1.86967e+09 1.87022e+09 0 0
148 1 1 1.87749e+09 1.87774e+09 1.87876e+09 1.87901e+09 0 0
149 2 1 1.88644e+09 1.88669e+09 1.88771e+09 1.88958e+09 0 1
150 1 0 1.8949e+09 1.89515e+09 1.89617e+09 1.89784e+09 0 1
151 2 1 1.91122e+09 1.91148e+09 1.9125e+09 1.91385e+09 0 1
152 2 1 1.9173e+09 1.91756e+09 1.91858e+09 1.92241e+09 0 1
153 2 1 1.92504e+09 1.92529e+09 1.92631e+09 1.93059e+09 0 1
154 2 0 1.93732e+09 1.93757e+09 1.93859e+09 1.93865e+09 0 0
155 2 0 1.94959e+09 1.94985e+09 1.95087e+09 1.95457e+09 1 0
156 2 1 1.9775e+09 1.97775e+09 1.97877e+09 1.98148e+09 1 1
157 1 0 1.98592e+09 1.98619e+09 1.98721e+09 1.98804e+09 0 1
158 2 1 1.99572e+09 1.99598e+09 1.997e+09 1.99796e+09 0 1
159 1 1 2.01188e+09 2.01214e+09 2.01316e+09 2.0151e+09 0 0
160 1 1 2.02307e+09 2.02332e+09 2.02434e+09 2.02501e+09 1 0
161 1 0 2.03321e+09 2.03346e+09 2.03448e+09 2.03462e+09 1 1
162 1 1 2.03718e+09 2.03744e+09 2.03846e+09 2.04127e+09 0 0
163 1 1 2.04863e+09 2.04889e+09 2.04991e+09 2.05244e+09 1 0
164 1 1 2.0729e+09 2.07315e+09 2.07417e+09 2.07427e+09 1 0
165 1 1 2.08271e+09 2.08296e+09 2.08398e+09 2.08398e+09 1 0
166 1 1 2.09372e+09 2.09397e+09 2.09499e+09 2.09678e+09 0 0
167 1 1 2.10815e+09 2.10841e+09 2.10943e+09 2.11215e+09 0 0
168 1 1 2.12427e+09 2.12452e+09 2.12554e+09 2.13512e+09 0 0
169 2 0 2.14259e+09 2.14284e+09 2.14386e+09 2.14389e+09 0 0
170 2 1 2.15164e+09 2.15189e+09 2.15291e+09 2.15332e+09 0 1
171 2 1 2.17116e+09 2.1714e+09 2.17242e+09 2.17349e+09 0 1
172 2 1 2.18269e+09 2.18296e+09 2.18398e+09 2.18822e+09 0 1
173 2 0 2.20052e+09 2.20079e+09 2.20181e+09 2.20515e+09 0 0
174 2 0 2.2125e+09 2.21276e+09 2.21378e+09 2.21501e+09 1 0
175 2 1 2.22478e+09 2.22504e+09 2.22606e+09 2.22642e+09 1 1
176 1 1 2.23729e+09 2.23755e+09 2.23857e+09 2.23956e+09 0 0
177 1 1 2.24665e+09 2.24691e+09 2.24793e+09 2.25217e+09 1 0
178 1 1 2.25935e+09 2.25961e+09 2.26063e+09 2.26075e+09 1 0
179 1 1 2.26791e+09 2.26816e+09 2.26918e+09 2.26919e+09 1 0
180 2 1 2.27776e+09 2.27802e+09 2.27904e+09 2.28211e+09 0 1
181 2 1 2.29368e+09 2.29392e+09 2.29494e+09 2.29679e+09 0 1
182 1 1 2.30495e+09 2.30519e+09 2.30621e+09 2.30991e+09 0 0
183 1 1 2.32441e+09 2.32466e+09 2.32568e+09 2.32612e+09 1 0
184 1 1 2.33319e+09 2.33345e+09 2.33447e+09 2.33491e+09 1 0
185 1 1 2.35625e+09 2.35651e+09 2.35753e+09 2.36114e+09 1 0
186 1 1 2.36995e+09 2.3702e+09 2.37123e+09 2.37611e+09 0 0
187 2 1 2.38789e+09 2.38815e+09 2.38917e+09 2.39367e+09 0 1
188 1 0 2.3988e+09 2.39906e+09 2.40008e+09 2.40168e+09 0 1
189 1 1 2.40432e+09 2.40457e+09 2.40559e+09 2.4176e+09 0 0
190 1 1 2.42612e+09 2.42637e+09 2.42739e+09 2.42984e+09 1 0
191 1 1 2.44188e+09 2.44213e+09 2.44316e+09 2.44784e+09 1 0
192 1 1 2.45535e+09 2.45561e+09 2.45663e+09 2.45663e+09 1 0
193 2 1 2.46604e+09 2.4663e+09 2.46732e+09 2.47033e+09 0 1
194 2 1 2.48213e+09 2.48239e+09 2.48341e+09 2.48434e+09 0 1
195 2 0 2.50655e+09 2.5068e+09 2.50782e+09 2.50796e+09 0 0
196 2 0 2.51653e+09 2.51679e+09 2.51781e+09 2.51961e+09 1 0
197 2 1 2.5267e+09 2.52696e+09 2.52798e+09 2.52808e+09 1 1
198 2 1 2.53334e+09 2.53359e+09 2.53461e+09 2.5353e+09 0 1
199 2 1 2.54077e+09 2.54103e+09 2.54205e+09 2.54369e+09 0 1
200 1 0 2.57185e+09 2.57211e+09 2.57313e+09 2.57368e+09 0 1
201 1 0 2.57647e+09 2.57672e+09 2.57774e+09 2.57871e+09 0 1
202 2 1 2.58159e+09 2.58183e+09 2.58285e+09 2.58474e+09 0 1
203 2 1 2.59137e+09 2.59163e+09 2.59265e+09 2.59582e+09 0 1
204 1 0 2.59943e+09 2.59967e+09 2.60069e+09 2.60109e+09 0 1
205 2 0 2.61092e+09 2.61119e+09 2.61221e+09 2.62627e+09 0 0
206 2 1 2.6371e+09 2.63735e+09 2.63837e+09 2.64799e+09 1 1
207 1 0 2.66618e+09 2.66643e+09 2.66745e+09 2.66886e+09 0 1
208 1 1 2.67141e+09 2.67166e+09 2.67268e+09 2.67417e+09 0 0
209 1 0 2.68619e+09 2.68646e+09 2.68748e+09 2.68766e+09 1 1
210 1 0 2.69544e+09 2.6957e+09 2.69672e+09 2.6968e+09 0 1
211 1 0 2.70102e+09 2.70126e+09 2.70228e+09 2.70267e+09 0 1
212 2 1 2.70524e+09 2.7055e+09 2.70652e+09 2.70663e+09 0 1
213 1 0 2.71406e+09 2.71432e+09 2.71534e+09 2.71606e+09 0 1
214 1 0 2.73568e+09 2.73594e+09 2.73696e+09 2.73705e+09 0 1
215 1 0 2.74697e+09 2.74722e+09 2.74824e+09 2.74886e+09 0 1
216 2 1 2.75624e+09 2.75651e+09 2.75753e+09 2.75761e+09 0 1
217 2 1 2.7651e+09 2.76535e+09 2.76637e+09 2.78224e+09 0 1
218 1 1 2.79835e+09 2.79861e+09 2.79963e+09 2.79966e+09 0 0
219 1 1 2.80847e+09 2.80872e+09 2.80974e+09 2.8114e+09 1 0
220 1 1 2.82072e+09 2.82098e+09 2.822e+09 2.82203e+09 1 0
221 1 0 2.83146e+09 2.83171e+09 2.83273e+09 2.83286e+09 1 1
222 1 1 2.83807e+09 2.83833e+09 2.83935e+09 2.83984e+09 0 0
223 1 0 2.84738e+09 2.84764e+09 2.84866e+09 2.84876e+09 1 1
224 2 1 2.85157e+09 2.85183e+09 2.85285e+09 2.85488e+09 0 1
225 1 1 2.85853e+09 2.85879e+09 2.85981e+09 2.86935e+09 0 0
226 1 0 2.87767e+09 2.87792e+09 2.87894e+09 2.87896e+09 1 1
227 1 0 2.88767e+09 2.88794e+09 2.88896e+09 2.88917e+09 0 1
228 1 0 2.89203e+09 2.89228e+09 2.8933e+09 2.89418e+09 0 1
229 1 0 2.89678e+09 2.89703e+09 2.89805e+09 2.89905e+09 0 1
230 1 0 2.90189e+09 2.90214e+09 2.90316e+09 2.90614e+09 0 1
231 2 0 2.91383e+09 2.91408e+09 2.9151e+09 2.91857e+09 0 0
232 2 0 2.92882e+09 2.92907e+09 2.93009e+09 2.93018e+09 1 0
233 2 1 2.93924e+09 2.93949e+09 2.94051e+09 2.94394e+09 1 1
234 1 0 2.94977e+09 2.95003e+09 2.95105e+09 2.95155e+09 0 1
235 2 0 2.96107e+09 2.96132e+09 2.96234e+09 2.96236e+09 0 0
236 2 1 2.97392e+09 2.97416e+09 2.97518e+09 2.97906e+09 1 1
237 2 0 2.98303e+09 2.98329e+09 2.98431e+09 3.0037e+09 0 0
238 2 1 3.01074e+09 3.011e+09 3.01202e+09 3.06154e+09 1 1
239 1 0 3.06789e+09 3.06814e+09 3.06916e+09 3.06968e+09 0 1
240 1 0 3.07705e+09 3.07732e+09 3.07834e+09 3.07977e+09 0 1
241 2 0 3.08494e+09 3.08519e+09 3.08621e+09 3.08717e+09 0 0
242 2 1 3.09512e+09 3.09537e+09 3.0964e+09 3.09723e+09 1 1
243 1 0 3.10341e+09 3.10367e+09 3.10469e+09 3.10551e+09 0 1
244 1 1 3.10807e+09 3.10832e+09 3.10934e+09 3.10987e+09 0 0
245 1 0 3.12237e+09 3.12262e+09 3.12365e+09 3.12402e+09 1 1
246 2 1 3.12892e+09 3.12917e+09 3.13019e+09 3.13099e+09 0 1
247 2 0 3.1365e+09 3.13675e+09 3.13777e+09 3.139e+09 0 0
248 2 0 3.14911e+09 3.14937e+09 3.15039e+09 3.15067e+09 1 0
249 2 0 3.16191e+09 3.16217e+09 3.16319e+09 3.16376e+09 1 0
250 2 1 3.17768e+09 3.17792e+09 3.17894e+09 3.17948e+09 1 1
251 2 1 3.1884e+09 3.18867e+09 3.18969e+09 3.19049e+09 0 1
252 2 0 3.21136e+09 3.21162e+09 3.21264e+09 3.21579e+09 0 0
253 2 1 3.22897e+09 3.22922e+09 3.23024e+09 3.2307e+09 1 1
254 1 0 3.26156e+09 3.26182e+09 3.26284e+09 3.26297e+09 0 1
255 2 1 3.26611e+09 3.26636e+09 3.26738e+09 3.26819e+09 0 1
256 1 0 3.29349e+09 3.29375e+09 3.29477e+09 3.29483e+09 0 1
257 1 0 3.2977e+09 3.29796e+09 3.29898e+09 3.29916e+09 0 1
258 1 0 3.31319e+09 3.31344e+09 3.31446e+09 3.31453e+09 0 1
259 2 1 3.31749e+09 3.31775e+09 3.31877e+09 3.31914e+09 0 1
260 2 1 3.32324e+09 3.32349e+09 3.32451e+09 3.32616e+09 0 1
261 1 0 3.35169e+09 3.35195e+09 3.35297e+09 3.35484e+09 0 1
262 1 0 3.39241e+09 3.39267e+09 3.39369e+09 3.39371e+09 0 1
263 2 0 3.39626e+09 3.39652e+09 3.39754e+09 3.3976e+09 0 0
264 2 0 3.40594e+09 3.4062e+09 3.40722e+09 3.40889e+09 1 0
265 2 0 3.41765e+09 3.4179e+09 3.41893e+09 3.41913e+09 1 0
266 2 1 3.44775e+09 3.448e+09 3.44902e+09 3.45009e+09 1 1
267 2 1 3.46393e+09 3.46419e+09 3.46521e+09 3.4666e+09 0 1
268 2 1 3.47797e+09 3.47824e+09 3.47926e+09 3.48429e+09 0 1
269 2 1 3.49826e+09 3.49852e+09 3.49954e+09 3.50071e+09 0 1
270 1 0 3.50485e+09 3.50511e+09 3.50613e+09 3.50635e+09 0 1
271 1 0 3.50922e+09 3.50948e+09 3.5105e+09 3.51216e+09 0 1
272 1 0 3.51797e+09 3.51822e+09 3.51924e+09 3.51951e+09 0 1
273 1 1 3.52227e+09 3.52253e+09 3.52355e+09 3.52616e+09 0 0
274 1 0 3.53345e+09 3.5337e+09 3.53472e+09 3.53473e+09 1 1
275 2 0 3.54077e+09 3.54103e+09 3.54205e+09 3.54556e+09 0 0
276 2 1 3.55435e+09 3.5546e+09 3.55562e+09 3.55583e+09 1 1
277 1 1 3.55853e+09 3.55879e+09 3.55981e+09 3.55987e+09 0 0
278 1 0 3.5671e+09 3.56734e+09 3.56836e+09 3.56841e+09 1 1
279 1 1 3.57101e+09 3.57127e+09 3.57229e+09 3.573e+09 0 0
280 1 0 3.58019e+09 3.58045e+09 3.58147e+09 3.58217e+09 1 1
281 2 0 3.60478e+09 3.60504e+09 3.60606e+09 3.60628e+09 0 0
282 2 1 3.62247e+09 3.62272e+09 3.62374e+09 3.62468e+09 1 1
283 2 1 3.63248e+09 3.63273e+09 3.63375e+09 3.63379e+09 0 1
284 2 0 3.64323e+09 3.64349e+09 3.64451e+09 3.64493e+09 0 0
285 2 1 3.6531e+09 3.65335e+09 3.65437e+09 3.65589e+09 1 1
286 2 0 3.67653e+09 3.67678e+09 3.6778e+09 3.67972e+09 0 0
287 2 1 3.69344e+09 3.69369e+09 3.69471e+09 3.69507e+09 1 1
288 2 1 3.69767e+09 3.69793e+09 3.69895e+09 3.69901e+09 0 1
289 2 1 3.71983e+09 3.7201e+09 3.72112e+09 3.72119e+09 0 1
290 2 1 3.72646e+09 3.72671e+09 3.72773e+09 3.73291e+09 0 1
291 2 1 3.73605e+09 3.73631e+09 3.73733e+09 3.73871e+09 0 1
292 2 1 3.74525e+09 3.7455e+09 3.74652e+09 3.7469e+09 0 1
293 2 1 3.76518e+09 3.76543e+09 3.76645e+09 3.76757e+09 0 1
294 1 0 3.7745e+09 3.77476e+09 3.77578e+09 3.77602e+09 0 1
295 1 0 3.80293e+09 3.8032e+09 3.80422e+09 3.8043e+09 0 1
296 2 1 3.81124e+09 3.81149e+09 3.81252e+09 3.81306e+09 0 1
297 1 0 3.82969e+09 3.82995e+09 3.83097e+09 3.83113e+09 0 1
298 1 0 3.83399e+09 3.83425e+09 3.83527e+09 3.83546e+09 0 1
299 2 0 3.83832e+09 3.83858e+09 3.8396e+09 3.83976e+09 0 0
300 2 1 3.8648e+09 3.86504e+09 3.86606e+09 3.86753e+09 1 1
301 1 0 3.87913e+09 3.87939e+09 3.88041e+09 3.88051e+09 0 1
302 1 0 3.89422e+09 3.89448e+09 3.8955e+09 3.89554e+09 0 1
303 1 1 3.91502e+09 3.91528e+09 3.9163e+09 3.91708e+09 0 0
304 1 0 3.92842e+09 3.92868e+09 3.9297e+09 3.93002e+09 1 1
305 2 1 3.95413e+09 3.95438e+09 3.9554e+09 3.95684e+09 0 1
306 2 1 3.97045e+09 3.9707e+09 3.97172e+09 3.97444e+09 0 1
307 1 0 3.98152e+09 3.98178e+09 3.9828e+09 4.0077e+09 0 1
308 2 0 4.01304e+09 4.01329e+09 4.01431e+09 4.01902e+09 0 0
309 2 0 4.02872e+09 4.02898e+09 4.03e+09 4.0315e+09 1 0
310 2 1 4.04053e+09 4.04079e+09 4.04181e+09 4.045e+09 1 1
311 2 1 4.04801e+09 4.04826e+09 4.04928e+09 4.05399e+09 0 1
312 2 1 4.06168e+09 4.06193e+09 4.06295e+09 4.06337e+09 0 1
313 1 0 4.06941e+09 4.06966e+09 4.07068e+09 4.07078e+09 0 1
314 1 0 4.07474e+09 4.07499e+09 4.07601e+09 4.07628e+09 0 1
315 1 0 4.079e+09 4.07926e+09 4.08028e+09 4.08038e+09 0 1
316 2 1 4.08557e+09 4.08582e+09 4.08684e+09 4.09017e+09 0 1
317 1 0 4.10145e+09 4.1017e+09 4.10272e+09 4.10274e+09 0 1
318 2 1 4.11293e+09 4.11317e+09 4.11419e+09 4.11504e+09 0 1
319 1 0 4.13113e+09 4.13139e+09 4.13241e+09 4.13244e+09 0 1
320 2 1 4.13511e+09 4.13536e+09 4.13638e+09 4.13936e+09 0 1
321 1 0 4.15186e+09 4.15212e+09 4.15314e+09 4.15353e+09 0 1
322 1 1 4.15632e+09 4.15658e+09 4.1576e+09 4.15919e+09 0 0
323 1 0 4.16822e+09 4.16848e+09 4.1695e+09 4.16955e+09 1 1
324 1 0 4.17619e+09 4.17644e+09 4.17746e+09 4.17784e+09 0 1
325 1 0 4.19409e+09 4.19436e+09 4.19538e+09 4.19542e+09 0 1
326 1 0 4.19822e+09 4.19848e+09 4.1995e+09 4.20016e+09 0 1
327 2 1 4.20285e+09 4.20311e+09 4.20413e+09 4.21178e+09 0 1
328 2 1 4.22158e+09 4.22185e+09 4.22287e+09 4.224e+09 0 1
329 2 1 4.2483e+09 4.24856e+09 4.24958e+09 4.25038e+09 0 1
330 1 0 4.26095e+09 4.2612e+09 4.26222e+09 4.26258e+09 0 1
331 1 0 4.26525e+09 4.26549e+09 4.26651e+09 4.26654e+09 0 1
332 2 1 4.28084e+09 4.28109e+09 4.28212e+09 4.28459e+09 0 1
333 2 1 4.138e+06 4.39146e+06 5.41175e+06 6.89577e+06 0 1
334 2 1 1.70977e+07 1.73608e+07 1.83811e+07 1.85731e+07 0 1
335 1 0 2.76562e+07 2.79132e+07 2.89335e+07 2.90685e+07 0 1
336 2 0 4.65367e+07 4.67878e+07 4.78081e+07 4.8192e+07 0 0
337 2 1 5.88053e+07 5.9061e+07 6.00812e+07 6.01032e+07 1 1
338 1 0 7.05485e+07 7.08117e+07 7.1832e+07 7.18948e+07 0 1
339 2 0 8.78664e+07 8.81229e+07 8.91432e+07 9.1304e+07 0 0
340 2 1 1.14417e+08 1.14665e+08 1.15685e+08 1.17247e+08 1 1
341 2 0 1.20382e+08 1.20642e+08 1.21663e+08 1.23346e+08 0 0
342 2 0 1.3062e+08 1.3087e+08 1.3189e+08 1.32027e+08 1 0
343 2 0 1.51948e+08 1.52205e+08 1.53225e+08 1.54208e+08 1 0
344 2 1 1.62304e+08 1.62557e+08 1.63577e+08 1.63818e+08 1 1
345 2 1 1.85912e+08 1.86179e+08 1.872e+08 1.87926e+08 0 1
346 1 0 2.0074e+08 2.00992e+08 2.02013e+08 2.02409e+08 0 1
347 2 1 2.08887e+08 2.09133e+08 2.10153e+08 2.10582e+08 0 1
348 2 0 2.26052e+08 2.26317e+08 2.27337e+08 2.2739e+08 0 0
349 2 0 2.41548e+08 2.4181e+08 2.42831e+08 2.4285e+08 1 0
350 2 1 2.54283e+08 2.54538e+08 2.55558e+08 2.55809e+08 1 1
351 1 0 2.61743e+08 2.61994e+08 2.63014e+08 2.64259e+08 0 1
352 1 0 2.70909e+08 2.7116e+08 2.7218e+08 2.72202e+08 0 1
353 1 0 2.78775e+08 2.79041e+08 2.80061e+08 2.80071e+08 0 1
354 2 1 2.86328e+08 2.8658e+08 2.87601e+08 2.88449e+08 0 1
355 1 0 3.11388e+08 3.11646e+08 3.12666e+08 3.12971e+08 0 1
356 1 0 3.15941e+08 3.16202e+08 3.17222e+08 3.17296e+08 0 1
357 2 1 3.232e+08 3.2345e+08 3.24471e+08 3.24509e+08 0 1
358 2 1 3.31292e+08 3.31552e+08 3.32572e+08 3.32619e+08 0 1
359 2 1 3.49429e+08 3.49691e+08 3.50711e+08 3.52179e+08 0 1
360 2 0 3.55758e+08 3.56005e+08 3.57025e+08 3.59088e+08 0 0
361 2 0 3.68398e+08 3.68663e+08 3.69683e+08 3.69961e+08 1 0
362 2 0 3.84625e+08 3.8487e+08 3.8589e+08 3.86066e+08 1 0
363 2 0 3.97076e+08 3.97328e+08 3.98349e+08 4.04092e+08 1 0
364 1 1 4.13575e+08 4.13828e+08 4.14849e+08 4.22329e+08 0 0
365 2 1 4.29853e+08 4.30116e+08 4.31136e+08 4.47821e+08 0 1
366 1 0 4.5086e+08 4.51117e+08 4.52137e+08 4.52327e+08 0 1
367 1 0 4.66076e+08 4.66338e+08 4.67358e+08 4.67367e+08 0 1
368 2 1 4.70196e+08 4.70446e+08 4.71466e+08 4.7153e+08 0 1
369 1 0 4.80511e+08 4.80774e+08 4.81794e+08 4.81818e+08 0 1
370 2 1 4.84694e+08 4.84945e+08 4.85965e+08 4.88635e+08 0 1
371 2 1 5.04668e+08 5.04924e+08 5.05945e+08 5.07938e+08 0 1
372 1 0 5.17692e+08 5.17945e+08 5.18966e+08 5.18975e+08 0 1
373 1 0 5.21795e+08 5.22047e+08 5.23067e+08 5.23287e+08 0 1
374 1 0 5.26243e+08 5.26497e+08 5.27517e+08 5.27752e+08 0 1
375 2 1 5.31054e+08 5.31308e+08 5.32329e+08 5.33573e+08 0 1
376 1 0 5.41971e+08 5.42231e+08 5.43251e+08 5.44385e+08 0 1
377 2 0 5.51236e+08 5.51495e+08 5.52516e+08 5.54278e+08 0 0
378 2 0 5.69628e+08 5.69879e+08 5.70899e+08 5.72818e+08 1 0
379 2 0 5.80193e+08 5.80445e+08 5.81466e+08 5.8149e+08 1 0
380 2 1 5.93455e+08 5.93706e+08 5.94726e+08 5.96222e+08 1 1
381 2 1 6.0607e+08 6.06321e+08 6.07341e+08 6.07796e+08 0 1
382 2 0 6.10466e+08 6.10713e+08 6.11733e+08 6.12731e+08 0 0
383 2 1 6.26994e+08 6.27239e+08 6.2826e+08 6.29585e+08 1 1
384 2 0 6.39173e+08 6.39429e+08 6.40449e+08 6.40538e+08 0 0
385 2 0 6.52596e+08 6.52842e+08 6.53862e+08 6.5657e+08 1 0
386 2 0 6.63919e+08 6.64179e+08 6.65199e+08 6.65766e+08 1 0
387 2 1 6.79727e+08 6.79994e+08 6.81014e+08 6.96802e+08 1 1
388 2 1 7.01949e+08 7.0221e+08 7.0323e+08 7.03415e+08 0 1
389 2 0 7.07701e+08 7.07955e+08 7.08976e+08 7.11043e+08 0 0
390 2 1 7.18099e+08 7.1836e+08 7.19381e+08 7.20786e+08 1 1
391 2 0 7.24544e+08 7.24804e+08 7.25824e+08 7.25835e+08 0 0
392 2 1 7.35289e+08 7.35544e+08 7.36564e+08 7.37341e+08 1 1
393 1 0 7.42035e+08 7.42299e+08 7.43319e+08 7.43594e+08 0 1
394 1 0 7.4866e+08 7.48925e+08 7.49945e+08 7.50035e+08 0 1
395 1 0 7.53047e+08 7.53294e+08 7.54315e+08 7.54462e+08 0 1
396 2 1 7.58701e+08 7.58951e+08 7.59972e+08 8.22076e+08 0 1
397 1 0 8.30222e+08 8.30469e+08 8.31489e+08 8.3396e+08 0 1
398 1 0 8.40492e+08 8.40748e+08 8.41768e+08 8.41777e+08 0 1
399 2 0 8.46571e+08 8.46826e+08 8.47847e+08 8.48629e+08 0 0
400 2 0 8.56139e+08 8.56385e+08 8.57406e+08 8.63632e+08 1 0
401 2 1 8.72722e+08 8.72982e+08 8.74002e+08 8.83297e+08 1 1
402 1 0 8.88418e+08 8.88672e+08 8.89693e+08 8.90001e+08 0 1
403 2 1 9.10534e+08 9.10787e+08 9.11808e+08 9.33648e+08 0 1
404 1 0 9.37912e+08 9.38164e+08 9.39185e+08 9.3921e+08 0 1
405 2 1 9.43241e+08 9.43503e+08 9.44523e+08 9.44676e+08 0 1
406 1 1 9.49508e+08 9.49767e+08 9.50787e+08 9.50886e+08 0 0
407 1 0 9.59986e+08 9.60243e+08 9.61263e+08 9.61327e+08 1 1
408 1 0 9.64681e+08 9.6494e+08 9.6596e+08 9.6643e+08 0 1
409 1 0 9.69044e+08 9.69295e+08 9.70316e+08 9.70631e+08 0 1
410 2 1 9.76702e+08 9.76961e+08 9.77981e+08 9.95937e+08 0 1
411 1 1 9.99634e+08 9.99894e+08 1.00091e+09 1.00508e+09 0 0
412 1 1 1.01332e+09 1.01358e+09 1.0146e+09 1.01497e+09 1 0
413 1 0 1.02301e+09 1.02326e+09 1.02428e+09 1.02433e+09 1 1
414 1 0 1.02801e+09 1.02827e+09 1.02929e+09 1.02962e+09 0 1
415 2 0 1.03337e+09 1.03362e+09 1.03464e+09 1.03563e+09 0 0
416 2 1 1.04333e+09 1.04357e+09 1.04459e+09 1.05037e+09 1 1
417 2 0 1.05334e+09 1.0536e+09 1.05462e+09 1.0547e+09 0 0
418 2 1 1.06454e+09 1.06479e+09 1.06581e+09 1.08121e+09 1 1
419 2 1 1.08531e+09 1.08557e+09 1.08659e+09 1.08812e+09 0 1
420 2 1 1.09326e+09 1.09351e+09 1.09453e+09 1.09461e+09 0 1
421 1 0 1.09741e+09 1.09766e+09 1.09868e+09 1.09879e+09 0 1
422 1 0 1.10182e+09 1.10207e+09 1.10309e+09 1.10318e+09 0 1
423 1 1 1.10595e+09 1.1062e+09 1.10722e+09 1.1077e+09 0 0
424 1 0 1.11502e+09 1.11527e+09 1.11629e+09 1.1164e+09 1 1
425 1 1 1.11905e+09 1.1193e+09 1.12032e+09 1.12059e+09 0 0
426 1 0 1.12768e+09 1.12794e+09 1.12896e+09 1.1317e+09 1 1
427 1 0 1.13497e+09 1.13522e+09 1.13624e+09 1.13636e+09 0 1
428 2 1 1.14007e+09 1.14032e+09 1.14134e+09 1.15649e+09 0 1
429 2 0 1.16112e+09 1.16138e+09 1.1624e+09 1.16853e+09 0 0
430 2 1 1.17555e+09 1.17581e+09 1.17683e+09 1.17899e+09 1 1
431 2 1 1.18298e+09 1.18323e+09 1.18425e+09 1.21583e+09 0 1
432 1 0 1.22049e+09 1.22074e+09 1.22176e+09 1.2218e+09 0 1
433 2 0 1.22458e+09 1.22485e+09 1.22587e+09 1.22894e+09 0 0
434 2 1 1.23606e+09 1.23632e+09 1.23734e+09 1.24952e+09 1 1
435 1 0 1.25431e+09 1.25457e+09 1.25559e+09 1.25594e+09 0 1
436 1 1 1.25878e+09 1.25904e+09 1.26006e+09 1.26017e+09 0 0
437 1 0 1.26735e+09 1.2676e+09 1.26862e+09 1.26893e+09 1 1
438 1 0 1.27191e+09 1.27217e+09 1.27319e+09 1.30599e+09 0 1
439 1 1 1.31186e+09 1.31212e+09 1.31314e+09 1.34491e+09 0 0
440 1 0 1.35196e+09 1.35221e+09 1.35323e+09 1.36055e+09 1 1
441 2 0 1.36312e+09 1.36337e+09 1.36439e+09 1.36777e+09 0 0
442 2 0 1.37519e+09 1.37544e+09 1.37646e+09 1.48281e+09 1 0
443 2 0 1.49203e+09 1.49228e+09 1.4933e+09 1.52696e+09 1 0
444 2 1 1.53412e+09 1.53436e+09 1.53539e+09 1.53806e+09 1 1
445 2 1 1.54122e+09 1.54147e+09 1.54249e+09 1.62546e+09 0 1
446 1 1 1.63136e+09 1.6316e+09 1.63262e+09 1.65912e+09 0 0
447 1 0 1.66648e+09 1.66673e+09 1.66775e+09 1.68412e+09 1 1
448 2 0 1.68862e+09 1.68889e+09 1.68991e+09 1.69127e+09 0 0
449 2 1 1.69856e+09 1.69882e+09 1.69984e+09 1.77198e+09 1 1
450 1 1 1.77632e+09 1.77657e+09 1.77759e+09 1.77815e+09 0 0
