trial trialType response stillTime stimOnset stimOffset respTime correctionTrial correct
001 1 1 3.11195e+06 3.40412e+06 4.42441e+06 6.55882e+07 0 0
002 1 1 7.77011e+07 7.79725e+07 7.89928e+07 7.9014e+07 1 0
003 1 1 9.48419e+07 9.51136e+07 9.61339e+07 9.77211e+07 1 0
004 1 1 1.16769e+08 1.17026e+08 1.18047e+08 1.18056e+08 1 0
005 1 1 1.30256e+08 1.3051e+08 1.3153e+08 1.33667e+08 0 0
006 2 1 1.47954e+08 1.48213e+08 1.49233e+08 1.51796e+08 0 1
007 2 1 1.61576e+08 1.61842e+08 1.62862e+08 1.65279e+08 0 1
008 2 1 1.74657e+08 1.74902e+08 1.75922e+08 1.7647e+08 0 1
009 1 1 1.86554e+08 1.86816e+08 1.87836e+08 1.8789e+08 0 0
010 1 1 1.95133e+08 1.95385e+08 1.96405e+08 1.97035e+08 1 0
011 1 1 2.06569e+08 2.06823e+08 2.07844e+08 2.10535e+08 1 0
012 1 1 2.2976e+08 2.30014e+08 2.31034e+08 2.34772e+08 1 0
013 2 1 2.50485e+08 2.50744e+08 2.51764e+08 2.53795e+08 0 1
014 1 1 2.74808e+08 2.75076e+08 2.76096e+08 2.76338e+08 0 0
015 1 0 2.86374e+08 2.86626e+08 2.87647e+08 2.97501e+08 1 1
016 2 1 3.13138e+08 3.13391e+08 3.14411e+08 3.15629e+08 0 1
017 2 1 3.21308e+08 3.21565e+08 3.22585e+08 3.25633e+08 0 1
018 2 1 3.50687e+08 3.50956e+08 3.51977e+08 3.55206e+08 0 1
019 1 1 3.63476e+08 3.63726e+08 3.64746e+08 3.68249e+08 0 0
020 1 1 3.76607e+08 3.76863e+08 3.77883e+08 3.79249e+08 1 0
021 1 1 3.88788e+08 3.89034e+08 3.90055e+08 3.94403e+08 1 0
022 1 1 4.0446e+08 4.04713e+08 4.05734e+08 4.08419e+08 1 0
023 1 1 4.31836e+08 4.321e+08 4.3312e+08 4.37148e+08 0 0
024 1 1 4.44411e+08 4.44676e+08 4.45696e+08 4.46285e+08 0 0
025 2 1 4.53429e+08 4.53682e+08 4.54702e+08 4.55025e+08 0 1
026 1 1 4.59671e+08 4.59931e+08 4.60952e+08 4.67634e+08 0 0
027 1 1 4.8025e+08 4.80506e+08 4.81526e+08 4.87065e+08 1 0
028 1 1 4.97731e+08 4.97993e+08 4.99014e+08 4.99306e+08 1 0
029 1 1 5.15211e+08 5.15464e+08 5.16484e+08 5.16505e+08 1 0
030 2 1 5.23924e+08 5.24187e+08 5.25207e+08 5.25521e+08 0 1
031 1 1 5.32546e+08 5.328e+08 5.3382e+08 5.33839e+08 0 0
032 1 1 5.41194e+08 5.4144e+08 5.4246e+08 5.44712e+08 1 0
033 1 1 5.56162e+08 5.56425e+08 5.57445e+08 5.60653e+08 1 0
034 1 1 5.70933e+08 5.71178e+08 5.72199e+08 5.78042e+08 1 0
035 1 1 5.85452e+08 5.85714e+08 5.86734e+08 5.89363e+08 0 0
036 1 1 5.96582e+08 5.96841e+08 5.97861e+08 6.00332e+08 0 0
037 2 1 6.08945e+08 6.09202e+08 6.10222e+08 6.22809e+08 0 1
038 1 0 6.27542e+08 6.27795e+08 6.28816e+08 6.33835e+08 0 1
039 1 0 6.49648e+08 6.49902e+08 6.50922e+08 6.50959e+08 0 1
040 2 1 6.64764e+08 6.65017e+08 6.66037e+08 6.66185e+08 0 1
041 1 1 6.71395e+08 6.71652e+08 6.72672e+08 6.75147e+08 0 0
042 1 1 6.8235e+08 6.82614e+08 6.83635e+08 6.83844e+08 1 0
043 1 1 6.97035e+08 6.97294e+08 6.98314e+08 6.99859e+08 1 0
044 1 1 7.2196e+08 7.22221e+08 7.23241e+08 7.245e+08 1 0
045 2 1 7.34236e+08 7.34497e+08 7.35518e+08 7.48272e+08 0 1
046 1 0 7.52455e+08 7.52721e+08 7.53741e+08 7.53882e+08 0 1
047 2 1 7.60309e+08 7.60573e+08 7.61593e+08 7.61606e+08 0 1
048 2 0 7.6685e+08 7.67115e+08 7.68135e+08 7.68145e+08 0 0
049 2 1 7.75382e+08 7.75634e+08 7.76654e+08 7.80786e+08 1 1
050 1 1 8.03834e+08 8.04093e+08 8.05114e+08 8.05494e+08 0 0
051 1 1 8.12533e+08 8.12791e+08 8.13811e+08 8.15705e+08 1 0
052 1 1 8.29291e+08 8.29543e+08 8.30563e+08 8.32293e+08 1 0
053 1 1 8.39532e+08 8.39784e+08 8.40804e+08 8.43791e+08 1 0
054 2 1 8.55121e+08 8.55381e+08 8.56401e+08 8.56432e+08 0 1
055 1 1 8.64073e+08 8.64333e+08 8.65353e+08 8.65379e+08 0 0
056 1 0 8.74702e+08 8.74954e+08 8.75974e+08 8.75989e+08 1 1
057 1 1 9.00697e+08 9.00956e+08 9.01977e+08 9.02554e+08 0 0
058 1 1 9.23336e+08 9.23597e+08 9.24617e+08 9.25873e+08 1 0
059 1 1 9.32934e+08 9.33186e+08 9.34206e+08 9.38325e+08 1 0
060 1 1 9.45783e+08 9.46033e+08 9.47054e+08 9.49406e+08 1 0
061 1 0 9.6141e+08 9.6166e+08 9.6268e+08 9.62718e+08 0 1
062 2 1 9.73487e+08 9.73748e+08 9.74768e+08 9.74955e+08 0 1
063 2 1 9.82459e+08 9.82718e+08 9.83738e+08 9.84277e+08 0 1
064 1 1 9.8907e+08 9.89317e+08 9.90338e+08 9.95552e+08 0 0
065 1 1 1.00443e+09 1.00468e+09 1.0057e+09 1.01014e+09 1 0
066 1 1 1.01753e+09 1.01779e+09 1.01882e+09 1.01885e+09 1 0
067 1 1 1.02635e+09 1.02661e+09 1.02763e+09 1.03024e+09 1 0
068 2 1 1.04391e+09 1.04416e+09 1.04518e+09 1.04966e+09 0 1
069 1 1 1.05248e+09 1.05274e+09 1.05376e+09 1.05626e+09 0 0
070 1 0 1.06696e+09 1.06722e+09 1.06824e+09 1.06909e+09 1 1
071 2 1 1.07743e+09 1.07769e+09 1.07871e+09 1.0793e+09 0 1
072 1 1 1.09152e+09 1.09177e+09 1.09279e+09 1.09573e+09 0 0
073 1 1 1.10355e+09 1.1038e+09 1.10482e+09 1.10516e+09 1 0
074 1 1 1.11603e+09 1.11629e+09 1.11731e+09 1.11811e+09 1 0
075 1 0 1.1355e+09 1.13576e+09 1.13678e+09 1.1368e+09 1 1
076 2 1 1.14042e+09 1.14068e+09 1.1417e+09 1.14394e+09 0 1
077 1 1 1.1482e+09 1.14847e+09 1.14949e+09 1.15278e+09 0 0
078 1 1 1.16304e+09 1.16329e+09 1.16431e+09 1.16491e+09 1 0
079 1 1 1.17691e+09 1.17716e+09 1.17818e+09 1.19148e+09 1 0
080 1 1 1.20018e+09 1.20044e+09 1.20146e+09 1.20155e+09 1 0
081 2 1 1.21338e+09 1.21364e+09 1.21466e+09 1.21616e+09 0 1
082 2 1 1.2221e+09 1.22235e+09 1.22337e+09 1.22372e+09 0 1
083 1 0 1.23663e+09 1.23688e+09 1.2379e+09 1.23792e+09 0 1
084 2 1 1.24217e+09 1.24243e+09 1.24345e+09 1.24906e+09 0 1
085 2 1 1.26185e+09 1.2621e+09 1.26312e+09 1.28481e+09 0 1
086 1 1 1.29984e+09 1.30009e+09 1.30111e+09 1.30272e+09 0 0
087 1 1 1.31113e+09 1.31138e+09 1.3124e+09 1.31648e+09 1 0
088 1 1 1.3293e+09 1.32957e+09 1.33059e+09 1.33101e+09 1 0
089 1 1 1.34077e+09 1.34102e+09 1.34204e+09 1.34504e+09 1 0
090 2 1 1.35715e+09 1.35741e+09 1.35843e+09 1.35993e+09 0 1
091 1 1 1.36928e+09 1.36954e+09 1.37056e+09 1.37671e+09 0 0
092 1 1 1.38948e+09 1.38974e+09 1.39076e+09 1.39443e+09 1 0
093 1 1 1.40147e+09 1.40173e+09 1.40275e+09 1.41019e+09 1 0
094 1 1 1.41843e+09 1.41869e+09 1.41971e+09 1.43514e+09 1 0
095 2 1 1.44273e+09 1.44298e+09 1.444e+09 1.45034e+09 0 1
096 2 1 1.45478e+09 1.45504e+09 1.45606e+09 1.45926e+09 0 1
097 2 1 1.4664e+09 1.46665e+09 1.46767e+09 1.46769e+09 0 1
098 2 1 1.47281e+09 1.47306e+09 1.47408e+09 1.47409e+09 0 1
099 2 1 1.48304e+09 1.48329e+09 1.48431e+09 1.48475e+09 0 1
100 1 0 1.49299e+09 1.49325e+09 1.49427e+09 1.49429e+09 0 1
101 1 1 1.49888e+09 1.49913e+09 1.50015e+09 1.50017e+09 0 0
102 1 0 1.5099e+09 1.51017e+09 1.51119e+09 1.5113e+09 1 1
103 2 1 1.5156e+09 1.51586e+09 1.51688e+09 1.52147e+09 0 1
104 1 1 1.5308e+09 1.53105e+09 1.53207e+09 1.53396e+09 0 0
105 1 1 1.54191e+09 1.54217e+09 1.54319e+09 1.54352e+09 1 0
106 1 1 1.551e+09 1.55125e+09 1.55227e+09 1.55255e+09 1 0
107 1 1 1.56389e+09 1.56415e+09 1.56517e+09 1.56954e+09 1 0
108 1 1 1.59925e+09 1.59951e+09 1.60053e+09 1.60252e+09 0 0
109 1 1 1.61592e+09 1.61618e+09 1.6172e+09 1.63376e+09 0 0
110 2 1 1.65559e+09 1.65585e+09 1.65687e+09 1.6569e+09 0 1
111 2 1 1.66432e+09 1.66456e+09 1.66558e+09 1.66838e+09 0 1
112 1 1 1.678e+09 1.67825e+09 1.67927e+09 1.68194e+09 0 0
113 1 1 1.69037e+09 1.69063e+09 1.69165e+09 1.69764e+09 1 0
114 1 1 1.70969e+09 1.70993e+09 1.71095e+09 1.71246e+09 1 0
115 1 1 1.72118e+09 1.72144e+09 1.72246e+09 1.7225e+09 1 0
116 2 1 1.74341e+09 1.74367e+09 1.74469e+09 1.7564e+09 0 1
117 2 1 1.76244e+09 1.76269e+09 1.76371e+09 1.76372e+09 0 1
118 1 1 1.76757e+09 1.76782e+09 1.76884e+09 1.7706e+09 0 0
119 1 1 1.78011e+09 1.78036e+09 1.78138e+09 1.7814e+09 1 0
120 1 1 1.80164e+09 1.8019e+09 1.80292e+09 1.80511e+09 1 0
121 1 1 1.81241e+09 1.81267e+09 1.81369e+09 1.82608e+09 1 0
122 1 0 1.83323e+09 1.8335e+09 1.83452e+09 1.83473e+09 0 1
123 2 1 1.84436e+09 1.84463e+09 1.84565e+09 1.84639e+09 0 1
124 1 1 1.85072e+09 1.85097e+09 1.85199e+09 1.85256e+09 0 0
125 1 1 1.86055e+09 1.86081e+09 1.86183e+09 1.86186e+09 1 0
126 1 1 1.87586e+09 1.87613e+09 1.87716e+09 1.87906e+09 1 0
127 1 1 1.88621e+09 1.88647e+09 1.88749e+09 1.8883e+09 1 0
128 1 1 1.89544e+09 1.89569e+09 1.89671e+09 1.90799e+09 0 0
129 1 0 1.91507e+09 1.91532e+09 1.91634e+09 1.91636e+09 0 1
130 2 1 1.92452e+09 1.92478e+09 1.9258e+09 1.92609e+09 0 1
131 2 0 1.93493e+09 1.93519e+09 1.93621e+09 1.93623e+09 0 0
132 2 1 1.96111e+09 1.96137e+09 1.96239e+09 1.96251e+09 1 1
133 1 1 1.97769e+09 1.97795e+09 1.97897e+09 1.97898e+09 0 0
134 1 0 1.99501e+09 1.99527e+09 1.99629e+09 1.99635e+09 1 1
135 2 1 2.00186e+09 2.00212e+09 2.00314e+09 2.00316e+09 0 1
136 1 1 2.01185e+09 2.0121e+09 2.01312e+09 2.01474e+09 0 0
137 1 1 2.06555e+09 2.06581e+09 2.06683e+09 2.07173e+09 1 0
138 1 0 2.08919e+09 2.08944e+09 2.09047e+09 2.09049e+09 1 1
139 1 1 2.09673e+09 2.09698e+09 2.098e+09 2.0985e+09 0 0
140 1 1 2.10888e+09 2.10914e+09 2.11016e+09 2.12019e+09 1 0
141 1 0 2.12732e+09 2.12757e+09 2.12859e+09 2.12986e+09 1 1
142 1 1 2.13342e+09 2.13368e+09 2.1347e+09 2.13521e+09 0 0
143 1 1 2.14326e+09 2.14351e+09 2.14453e+09 2.14762e+09 1 0
144 1 1 2.15852e+09 2.15878e+09 2.1598e+09 2.16038e+09 1 0
145 1 1 2.17102e+09 2.17127e+09 2.17229e+09 2.17462e+09 1 0
146 1 1 2.1861e+09 2.18637e+09 2.18739e+09 2.19164e+09 0 0
147 2 1 2.20621e+09 2.20646e+09 2.20748e+09 2.20992e+09 0 1
148 1 1 2.23247e+09 2.23275e+09 2.23377e+09 2.23977e+09 0 0
149 1 1 2.24871e+09 2.24897e+09 2.24999e+09 2.25002e+09 1 0
150 1 1 2.2573e+09 2.25755e+09 2.25857e+09 2.26208e+09 1 0
151 1 1 2.27146e+09 2.27171e+09 2.27273e+09 2.27277e+09 1 0
152 1 0 2.28029e+09 2.28054e+09 2.28156e+09 2.2816e+09 0 1
153 1 1 2.28763e+09 2.28788e+09 2.2889e+09 2.28894e+09 0 0
154 1 1 2.29898e+09 2.29924e+09 2.30026e+09 2.3059e+09 1 0
155 1 0 2.32357e+09 2.32383e+09 2.32485e+09 2.32502e+09 1 1
156 2 1 2.33481e+09 2.33507e+09 2.33609e+09 2.34111e+09 0 1
157 2 1 2.34694e+09 2.3472e+09 2.34822e+09 2.34876e+09 0 1
158 2 1 2.36819e+09 2.36845e+09 2.36947e+09 2.37101e+09 0 1
159 2 1 2.37548e+09 2.37574e+09 2.37676e+09 2.37946e+09 0 1
160 2 1 2.38501e+09 2.38526e+09 2.38628e+09 2.38877e+09 0 1
161 1 1 2.39634e+09 2.39659e+09 2.39761e+09 2.39764e+09 0 0
162 1 1 2.40467e+09 2.40492e+09 2.40594e+09 2.40686e+09 1 0
163 1 1 2.41419e+09 2.41446e+09 2.41548e+09 2.41989e+09 1 0
164 1 1 2.4272e+09 2.42746e+09 2.42848e+09 2.42865e+09 1 0
165 2 1 2.43756e+09 2.43782e+09 2.43884e+09 2.44867e+09 0 1
166 1 1 2.45868e+09 2.45892e+09 2.45994e+09 2.4609e+09 0 0
167 1 1 2.4687e+09 2.46895e+09 2.46997e+09 2.47061e+09 1 0
168 1 1 2.48247e+09 2.48274e+09 2.48376e+09 2.48539e+09 1 0
169 1 1 2.49279e+09 2.49305e+09 2.49407e+09 2.49408e+09 1 0
170 2 1 2.50122e+09 2.50147e+09 2.50249e+09 2.5025e+09 0 1
171 1 1 2.51015e+09 2.51041e+09 2.51144e+09 2.51153e+09 0 0
172 1 0 2.52017e+09 2.52043e+09 2.52145e+09 2.52157e+09 1 1
173 1 1 2.53374e+09 2.534e+09 2.53502e+09 2.53623e+09 0 0
174 1 1 2.54351e+09 2.54378e+09 2.5448e+09 2.54482e+09 1 0
175 1 1 2.55823e+09 2.5585e+09 2.55952e+09 2.55952e+09 1 0
176 1 1 2.5682e+09 2.56845e+09 2.56947e+09 2.56949e+09 1 0
177 2 0 2.57662e+09 2.57689e+09 2.57791e+09 2.57799e+09 0 0
178 1 1 2.58526e+09 2.58553e+09 2.58655e+09 2.58658e+09 0 0
179 2 0 2.59765e+09 2.5979e+09 2.59892e+09 2.59906e+09 0 0
180 2 1 2.609e+09 2.60925e+09 2.61027e+09 2.61113e+09 0 1
181 2 1 2.61688e+09 2.61714e+09 2.61816e+09 2.61854e+09 0 1
182 2 0 2.62739e+09 2.62765e+09 2.62867e+09 2.62872e+09 0 0
183 2 1 2.6406e+09 2.64087e+09 2.64189e+09 2.6453e+09 1 1
184 1 1 2.6511e+09 2.65136e+09 2.65238e+09 2.65248e+09 0 0
185 1 0 2.66221e+09 2.66247e+09 2.66349e+09 2.66356e+09 1 1
186 2 1 2.67074e+09 2.67099e+09 2.67201e+09 2.6721e+09 0 1
187 1 0 2.68543e+09 2.68568e+09 2.6867e+09 2.68676e+09 0 1
188 2 1 2.69411e+09 2.69436e+09 2.69538e+09 2.69819e+09 0 1
189 1 0 2.70529e+09 2.70555e+09 2.70657e+09 2.70662e+09 0 1
190 1 1 2.72186e+09 2.72212e+09 2.72314e+09 2.72338e+09 0 0
191 1 1 2.73057e+09 2.73082e+09 2.73184e+09 2.73239e+09 1 0
192 1 0 2.74039e+09 2.74064e+09 2.74166e+09 2.74244e+09 1 1
193 1 0 2.74813e+09 2.74839e+09 2.74941e+09 2.74946e+09 0 1
194 2 1 2.75838e+09 2.75863e+09 2.75966e+09 2.75966e+09 0 1
195 2 1 2.76514e+09 2.7654e+09 2.76642e+09 2.76903e+09 0 1
196 1 1 2.7755e+09 2.77576e+09 2.77678e+09 2.7786e+09 0 0
197 1 1 2.78714e+09 2.78739e+09 2.78841e+09 2.78857e+09 1 0
198 1 0 2.7996e+09 2.79987e+09 2.80089e+09 2.80173e+09 1 1
199 2 1 2.80913e+09 2.80939e+09 2.81041e+09 2.81715e+09 0 1
200 2 1 2.82317e+09 2.82342e+09 2.82444e+09 2.82579e+09 0 1
201 2 1 2.83149e+09 2.83174e+09 2.83276e+09 2.8341e+09 0 1
202 1 1 2.84165e+09 2.84192e+09 2.84294e+09 2.84295e+09 0 0
203 1 1 2.85349e+09 2.85375e+09 2.85477e+09 2.85547e+09 1 0
204 1 1 2.86542e+09 2.86567e+09 2.86669e+09 2.86844e+09 1 0
205 1 0 2.87796e+09 2.87822e+09 2.87924e+09 2.8793e+09 1 1
206 2 1 2.88295e+09 2.88321e+09 2.88423e+09 2.88826e+09 0 1
207 1 1 2.89344e+09 2.89369e+09 2.89471e+09 2.89566e+09 0 0
208 1 1 2.90272e+09 2.90298e+09 2.904e+09 2.90781e+09 1 0
209 1 1 2.92101e+09 2.92126e+09 2.92228e+09 2.92623e+09 1 0
210 1 1 2.93924e+09 2.93951e+09 2.94053e+09 2.94303e+09 1 0
211 1 1 2.9542e+09 2.95446e+09 2.95549e+09 2.95595e+09 0 0
212 1 1 2.96309e+09 2.96335e+09 2.96437e+09 2.96445e+09 0 0
213 2 1 2.97678e+09 2.97703e+09 2.97805e+09 2.97824e+09 0 1
214 2 1 2.98384e+09 2.98409e+09 2.98511e+09 2.98524e+09 0 1
215 2 1 2.9915e+09 2.99177e+09 2.99279e+09 2.99422e+09 0 1
216 2 1 2.99914e+09 2.99941e+09 3.00043e+09 3.00208e+09 0 1
217 1 1 3.00948e+09 3.00974e+09 3.01076e+09 3.01078e+09 0 0
218 1 1 3.0192e+09 3.01945e+09 3.02047e+09 3.02143e+09 1 0
219 1 1 3.03181e+09 3.03207e+09 3.03309e+09 3.03337e+09 1 0
220 1 1 3.04053e+09 3.04079e+09 3.04181e+09 3.04524e+09 1 0
221 1 1 3.05636e+09 3.05662e+09 3.05764e+09 3.05882e+09 0 0
222 1 1 3.07928e+09 3.07953e+09 3.08055e+09 3.08986e+09 0 0
223 1 1 3.10988e+09 3.11014e+09 3.11116e+09 3.11316e+09 0 0
224 2 1 3.12143e+09 3.12169e+09 3.12271e+09 3.12342e+09 0 1
225 2 1 3.12866e+09 3.12891e+09 3.12994e+09 3.13e+09 0 1
226 1 1 3.137e+09 3.13726e+09 3.13828e+09 3.13841e+09 0 0
227 1 1 3.16165e+09 3.16191e+09 3.16293e+09 3.16532e+09 1 0
228 1 1 3.17659e+09 3.17686e+09 3.17788e+09 3.17843e+09 1 0
229 1 1 3.18553e+09 3.18579e+09 3.18681e+09 3.18753e+09 1 0
230 1 1 3.19492e+09 3.19518e+09 3.1962e+09 3.1969e+09 0 0
231 1 1 3.20436e+09 3.20462e+09 3.20564e+09 3.20999e+09 0 0
232 1 1 3.21939e+09 3.21965e+09 3.22067e+09 3.22745e+09 0 0
233 2 1 3.23762e+09 3.23787e+09 3.23889e+09 3.24151e+09 0 1
234 1 1 3.25002e+09 3.25028e+09 3.2513e+09 3.2527e+09 0 0
235 1 1 3.26003e+09 3.26028e+09 3.2613e+09 3.26141e+09 1 0
236 1 1 3.2757e+09 3.27595e+09 3.27697e+09 3.28354e+09 1 0
237 1 1 3.30044e+09 3.3007e+09 3.30172e+09 3.30286e+09 1 0
238 1 1 3.31168e+09 3.31196e+09 3.31298e+09 3.3142e+09 0 0
239 1 1 3.3216e+09 3.32185e+09 3.32287e+09 3.32348e+09 0 0
240 2 1 3.33403e+09 3.33429e+09 3.33531e+09 3.33532e+09 0 1
241 2 1 3.34378e+09 3.34404e+09 3.34506e+09 3.34689e+09 0 1
242 2 1 3.35477e+09 3.35503e+09 3.35605e+09 3.35606e+09 0 1
243 2 1 3.37146e+09 3.37171e+09 3.37273e+09 3.37436e+09 0 1
244 2 1 3.38454e+09 3.38479e+09 3.38581e+09 3.38582e+09 0 1
245 2 1 3.3901e+09 3.39035e+09 3.39137e+09 3.39505e+09 0 1
246 2 1 3.40025e+09 3.4005e+09 3.40152e+09 3.40391e+09 0 1
247 2 1 3.4167e+09 3.41696e+09 3.41798e+09 3.42022e+09 0 1
248 2 1 3.42539e+09 3.42565e+09 3.42667e+09 3.42944e+09 0 1
249 2 1 3.43851e+09 3.43876e+09 3.43978e+09 3.43982e+09 0 1
250 1 1 3.44508e+09 3.44534e+09 3.44636e+09 3.45252e+09 0 0
251 1 1 3.46872e+09 3.46899e+09 3.47001e+09 3.47537e+09 1 0
252 1 1 3.48255e+09 3.4828e+09 3.48382e+09 3.48758e+09 1 0
253 1 1 3.49491e+09 3.49518e+09 3.4962e+09 3.49638e+09 1 0
254 2 0 3.5086e+09 3.50886e+09 3.50988e+09 3.51937e+09 0 0
255 2 1 3.52974e+09 3.53001e+09 3.53103e+09 3.53308e+09 0 1
256 2 1 3.54025e+09 3.5405e+09 3.54152e+09 3.54162e+09 0 1
257 1 1 3.55431e+09 3.55457e+09 3.55559e+09 3.55813e+09 0 0
258 1 1 3.57182e+09 3.57208e+09 3.5731e+09 3.57333e+09 1 0
259 1 1 3.58038e+09 3.58065e+09 3.58167e+09 3.58586e+09 1 0
260 1 0 3.59671e+09 3.59696e+09 3.59798e+09 3.59814e+09 1 1
261 2 1 3.60161e+09 3.60187e+09 3.60289e+09 3.6029e+09 0 1
262 1 1 3.61024e+09 3.6105e+09 3.61152e+09 3.61258e+09 0 0
263 1 1 3.62001e+09 3.62027e+09 3.62129e+09 3.62463e+09 1 0
264 1 1 3.63242e+09 3.63268e+09 3.6337e+09 3.63974e+09 1 0
265 1 1 3.64721e+09 3.64747e+09 3.64849e+09 3.64851e+09 1 0
266 2 1 3.65791e+09 3.65817e+09 3.65919e+09 3.65997e+09 0 1
267 2 1 3.66342e+09 3.66369e+09 3.66471e+09 3.66509e+09 0 1
268 2 1 3.67006e+09 3.67032e+09 3.67134e+09 3.67138e+09 0 1
269 2 1 3.67883e+09 3.67909e+09 3.68011e+09 3.68025e+09 0 1
270 2 1 3.68563e+09 3.68589e+09 3.68691e+09 3.6907e+09 0 1
271 2 0 3.69511e+09 3.69536e+09 3.69638e+09 3.69639e+09 0 0
272 2 1 3.70344e+09 3.7037e+09 3.70472e+09 3.7178e+09 1 1
273 1 1 3.72168e+09 3.72194e+09 3.72296e+09 3.72297e+09 0 0
274 1 1 3.73027e+09 3.73052e+09 3.73154e+09 3.73155e+09 1 0
275 1 1 3.73864e+09 3.73889e+09 3.73991e+09 3.74621e+09 1 0
276 1 1 3.75391e+09 3.75418e+09 3.7552e+09 3.75645e+09 1 0
277 1 1 3.7637e+09 3.76395e+09 3.76497e+09 3.76732e+09 0 0
278 1 1 3.77733e+09 3.77759e+09 3.77861e+09 3.78159e+09 0 0
279 1 1 3.78874e+09 3.789e+09 3.79002e+09 3.79146e+09 0 0
280 2 1 3.80345e+09 3.80371e+09 3.80473e+09 3.80555e+09 0 1
281 1 1 3.81421e+09 3.81447e+09 3.81549e+09 3.81551e+09 0 0
282 1 0 3.82296e+09 3.82322e+09 3.82424e+09 3.82428e+09 1 1
283 2 1 3.82684e+09 3.8271e+09 3.82812e+09 3.83397e+09 0 1
284 1 1 3.83699e+09 3.83725e+09 3.83827e+09 3.83828e+09 0 0
285 1 1 3.84531e+09 3.84556e+09 3.84658e+09 3.8485e+09 1 0
286 1 1 3.85593e+09 3.85618e+09 3.8572e+09 3.85723e+09 1 0
287 1 1 3.86469e+09 3.86494e+09 3.86596e+09 3.88024e+09 1 0
288 2 1 3.88947e+09 3.88973e+09 3.89075e+09 3.89448e+09 0 1
289 2 1 3.90034e+09 3.90061e+09 3.90163e+09 3.90164e+09 0 1
290 1 1 3.90741e+09 3.90766e+09 3.90868e+09 3.90942e+09 0 0
291 1 0 3.91667e+09 3.91692e+09 3.91794e+09 3.91798e+09 1 1
292 1 1 3.92664e+09 3.9269e+09 3.92792e+09 3.92893e+09 0 0
293 1 1 3.9376e+09 3.93786e+09 3.93888e+09 3.94145e+09 1 0
294 1 1 3.94897e+09 3.94922e+09 3.95024e+09 3.95089e+09 1 0
295 1 0 3.95857e+09 3.95883e+09 3.95985e+09 3.95988e+09 1 1
296 2 1 3.96656e+09 3.96683e+09 3.96785e+09 3.97166e+09 0 1
297 1 1 3.9796e+09 3.97986e+09 3.98088e+09 3.98091e+09 0 0
298 1 1 3.98826e+09 3.98852e+09 3.98954e+09 3.99186e+09 1 0
299 1 1 4.00187e+09 4.00213e+09 4.00316e+09 4.0101e+09 1 0
300 1 0 4.01732e+09 4.01757e+09 4.01859e+09 4.02075e+09 1 1
301 1 1 4.03274e+09 4.03299e+09 4.03401e+09 4.0358e+09 0 0
302 1 1 4.04305e+09 4.0433e+09 4.04433e+09 4.04439e+09 1 0
303 1 1 4.05155e+09 4.05181e+09 4.05283e+09 4.05571e+09 1 0
304 1 1 4.06507e+09 4.06533e+09 4.06635e+09 4.06997e+09 1 0
305 2 1 4.10176e+09 4.10202e+09 4.10304e+09 4.10444e+09 0 1
306 1 1 4.10742e+09 4.10768e+09 4.1087e+09 4.10873e+09 0 0
307 1 1 4.11613e+09 4.11638e+09 4.1174e+09 4.12265e+09 1 0
308 1 1 4.13077e+09 4.13103e+09 4.13205e+09 4.13353e+09 1 0
309 1 1 4.14437e+09 4.14464e+09 4.14566e+09 4.14577e+09 1 0
310 2 1 4.15326e+09 4.15351e+09 4.15453e+09 4.15938e+09 0 1
311 1 1 4.16926e+09 4.16951e+09 4.17053e+09 4.1755e+09 0 0
312 1 1 4.18371e+09 4.18398e+09 4.185e+09 4.18736e+09 1 0
313 1 1 4.19481e+09 4.19508e+09 4.1961e+09 4.1969e+09 1 0
314 1 1 4.20401e+09 4.20427e+09 4.20529e+09 4.20722e+09 1 0
315 1 0 4.21601e+09 4.21628e+09 4.2173e+09 4.21731e+09 0 1
316 2 1 4.22222e+09 4.22247e+09 4.22349e+09 4.22527e+09 0 1
317 1 1 4.23298e+09 4.23323e+09 4.23425e+09 4.23642e+09 0 0
318 1 1 4.24366e+09 4.24393e+09 4.24495e+09 4.24855e+09 1 0
319 1 1 4.25596e+09 4.25622e+09 4.25724e+09 4.25951e+09 1 0
320 1 1 4.26978e+09 4.27004e+09 4.27106e+09 4.27129e+09 1 0
321 1 0 4.28276e+09 4.28301e+09 4.28403e+09 4.2866e+09 0 1
322 1 1 4.29005e+09 4.2903e+09 4.29132e+09 4.29132e+09 0 0
323 1 0 4.50459e+06 4.76677e+06 5.78706e+06 5.87602e+06 1 1
324 1 1 1.49207e+07 1.51696e+07 1.61899e+07 1.63074e+07 0 0
325 1 1 2.35612e+07 2.38133e+07 2.48336e+07 2.86229e+07 1 0
326 1 1 3.71589e+07 3.74221e+07 3.84424e+07 4.26308e+07 1 0
327 1 1 5.21001e+07 5.23681e+07 5.33883e+07 5.47508e+07 1 0
328 1 1 6.20544e+07 6.23204e+07 6.33407e+07 6.51116e+07 0 0
329 1 1 7.53838e+07 7.56436e+07 7.66639e+07 7.66711e+07 0 0
330 2 1 9.57317e+07 9.59991e+07 9.70194e+07 9.96565e+07 0 1
331 1 1 1.1152e+08 1.11772e+08 1.12792e+08 1.13041e+08 0 0
332 1 0 1.20446e+08 1.20718e+08 1.21738e+08 1.21961e+08 1 1
333 2 0 1.30234e+08 1.30501e+08 1.31521e+08 1.3237e+08 0 0
334 2 0 1.40591e+08 1.40844e+08 1.41864e+08 1.4188e+08 1 0
335 2 1 1.49278e+08 1.4953e+08 1.5055e+08 1.52129e+08 1 1
336 2 1 1.63352e+08 1.63603e+08 1.64624e+08 1.65329e+08 0 1
337 1 1 1.73955e+08 1.74209e+08 1.75229e+08 1.76373e+08 0 0
338 1 0 1.83877e+08 1.84124e+08 1.85144e+08 1.85168e+08 1 1
339 1 1 1.95442e+08 1.95695e+08 1.96716e+08 1.9673e+08 0 0
340 1 1 2.04215e+08 2.04463e+08 2.05483e+08 2.08412e+08 1 0
341 1 1 2.24095e+08 2.24348e+08 2.25368e+08 2.25381e+08 1 0
342 1 0 2.32692e+08 2.32946e+08 2.33967e+08 2.33984e+08 1 1
343 1 1 2.39451e+08 2.39713e+08 2.40733e+08 2.41499e+08 0 0
344 1 0 2.55433e+08 2.55703e+08 2.56724e+08 2.56767e+08 1 1
345 2 1 2.62257e+08 2.62515e+08 2.63535e+08 2.6366e+08 0 1
346 1 1 2.70877e+08 2.71141e+08 2.72161e+08 2.76086e+08 0 0
347 1 1 2.83131e+08 2.83397e+08 2.84417e+08 2.87316e+08 1 0
348 1 1 2.97057e+08 2.97309e+08 2.9833e+08 2.98829e+08 1 0
349 1 1 3.14647e+08 3.14901e+08 3.15921e+08 3.20638e+08 1 0
350 2 1 3.3542e+08 3.35686e+08 3.36706e+08 3.39044e+08 0 1
351 1 0 3.42992e+08 3.43248e+08 3.44268e+08 3.44304e+08 0 1
352 1 1 3.49114e+08 3.49378e+08 3.50398e+08 3.5267e+08 0 0
353 1 1 3.61918e+08 3.62184e+08 3.63204e+08 3.75283e+08 1 0
354 1 1 3.82683e+08 3.82943e+08 3.83964e+08 3.8755e+08 1 0
355 1 1 3.9702e+08 3.97272e+08 3.98292e+08 4.02171e+08 1 0
356 1 1 4.09665e+08 4.09925e+08 4.10946e+08 4.14489e+08 0 0
357 1 1 4.28281e+08 4.28543e+08 4.29564e+08 4.32895e+08 0 0
358 2 1 4.46334e+08 4.46601e+08 4.47621e+08 4.55796e+08 0 1
359 2 0 4.60362e+08 4.60622e+08 4.61642e+08 4.61651e+08 0 0
360 2 1 4.68706e+08 4.6896e+08 4.6998e+08 4.72122e+08 1 1
361 1 1 4.79093e+08 4.79352e+08 4.80373e+08 4.80381e+08 0 0
362 1 1 4.87515e+08 4.8777e+08 4.8879e+08 4.90005e+08 1 0
363 1 1 4.98836e+08 4.99087e+08 5.00107e+08 5.05938e+08 1 0
364 1 1 5.13165e+08 5.13422e+08 5.14442e+08 5.16223e+08 1 0
365 1 1 5.23742e+08 5.23987e+08 5.25008e+08 5.25989e+08 0 0
366 2 1 5.38869e+08 5.39132e+08 5.40152e+08 5.4144e+08 0 1
367 1 1 5.45956e+08 5.46214e+08 5.47234e+08 5.47243e+08 0 0
368 1 0 5.56745e+08 5.56995e+08 5.58015e+08 5.58094e+08 1 1
369 1 1 5.65648e+08 5.659e+08 5.66921e+08 5.6902e+08 0 0
370 1 1 5.76555e+08 5.76803e+08 5.77823e+08 5.81291e+08 1 0
371 1 1 5.94446e+08 5.94702e+08 5.95723e+08 5.95773e+08 1 0
372 1 1 6.0633e+08 6.06588e+08 6.07608e+08 6.08696e+08 1 0
373 2 0 6.17878e+08 6.18131e+08 6.19151e+08 6.20868e+08 0 0
374 2 0 6.28351e+08 6.28615e+08 6.29636e+08 6.35345e+08 0 0
375 2 0 6.48032e+08 6.48285e+08 6.49305e+08 6.49314e+08 0 0
376 2 1 6.5685e+08 6.57108e+08 6.58128e+08 6.58969e+08 0 1
377 1 1 6.64877e+08 6.65138e+08 6.66158e+08 6.69343e+08 0 0
378 1 1 6.76817e+08 6.77072e+08 6.78092e+08 6.78975e+08 1 0
379 1 0 6.86325e+08 6.86579e+08 6.876e+08 6.8898e+08 1 1
380 2 1 6.93593e+08 6.93861e+08 6.94881e+08 6.9624e+08 0 1
381 2 1 7.04631e+08 7.04882e+08 7.05902e+08 7.06367e+08 0 1
382 1 0 7.1188e+08 7.12141e+08 7.13161e+08 7.13273e+08 0 1
383 1 1 7.16193e+08 7.1646e+08 7.17481e+08 7.20267e+08 0 0
384 1 1 7.28955e+08 7.29219e+08 7.30239e+08 7.41212e+08 1 0
385 1 1 7.493e+08 7.49552e+08 7.50572e+08 7.50815e+08 1 0
386 1 1 7.58074e+08 7.5834e+08 7.5936e+08 7.59382e+08 1 0
387 1 0 7.67987e+08 7.68245e+08 7.69265e+08 7.69273e+08 0 1
388 2 1 7.82482e+08 7.82743e+08 7.83763e+08 7.89906e+08 0 1
389 2 1 7.94434e+08 7.94695e+08 7.95715e+08 7.98266e+08 0 1
390 1 1 8.0099e+08 8.01251e+08 8.02271e+08 8.02503e+08 0 0
391 1 1 8.09581e+08 8.09834e+08 8.10855e+08 8.13167e+08 1 0
392 1 1 8.20452e+08 8.20713e+08 8.21733e+08 8.26406e+08 1 0
393 1 1 8.33438e+08 8.33694e+08 8.34714e+08 8.38983e+08 1 0
394 1 1 8.4854e+08 8.48794e+08 8.49814e+08 8.52967e+08 0 0
395 1 0 8.60492e+08 8.60744e+08 8.61764e+08 8.61772e+08 0 1
396 1 0 8.67339e+08 8.67603e+08 8.68624e+08 8.72375e+08 0 1
397 2 1 8.78455e+08 8.78701e+08 8.79722e+08 8.82775e+08 0 1
398 1 1 8.8797e+08 8.88217e+08 8.89238e+08 8.89243e+08 0 0
399 1 1 8.99962e+08 9.00223e+08 9.01243e+08 9.01765e+08 1 0
400 1 1 9.08882e+08 9.09143e+08 9.10163e+08 9.1217e+08 1 0
401 1 0 9.19244e+08 9.19496e+08 9.20516e+08 9.20562e+08 1 1
402 1 0 9.23332e+08 9.23585e+08 9.24605e+08 9.24775e+08 0 1
403 1 1 9.31836e+08 9.32089e+08 9.33109e+08 9.39319e+08 0 0
404 1 0 9.46633e+08 9.4689e+08 9.4791e+08 9.51354e+08 1 1
405 2 1 9.54583e+08 9.54831e+08 9.55852e+08 9.56014e+08 0 1
406 1 1 9.61705e+08 9.61963e+08 9.62983e+08 9.70307e+08 0 0
407 1 0 9.77815e+08 9.78072e+08 9.79092e+08 9.88684e+08 1 1
408 1 1 9.93806e+08 9.94057e+08 9.95077e+08 1.00096e+09 0 0
409 1 1 1.00804e+09 1.00829e+09 1.00931e+09 1.0123e+09 1 0
410 1 0 1.02197e+09 1.02223e+09 1.02325e+09 1.02674e+09 1 1
411 2 1 1.033e+09 1.03325e+09 1.03427e+09 1.03808e+09 0 1
412 2 1 1.04656e+09 1.04681e+09 1.04783e+09 1.05667e+09 0 1
413 1 0 1.06069e+09 1.06094e+09 1.06196e+09 1.07381e+09 0 1
414 1 1 1.0833e+09 1.08355e+09 1.08457e+09 1.0849e+09 0 0
415 1 1 1.09219e+09 1.09245e+09 1.09347e+09 1.09483e+09 1 0
416 1 0 1.10432e+09 1.10457e+09 1.10559e+09 1.1057e+09 1 1
417 2 1 1.10976e+09 1.11002e+09 1.11104e+09 1.11827e+09 0 1
418 2 1 1.1211e+09 1.12135e+09 1.12237e+09 1.13399e+09 0 1
419 1 1 1.14886e+09 1.14911e+09 1.15013e+09 1.15173e+09 0 0
420 1 0 1.15888e+09 1.15914e+09 1.16016e+09 1.17115e+09 1 1
421 2 1 1.17423e+09 1.17448e+09 1.1755e+09 1.17648e+09 0 1
422 2 1 1.18199e+09 1.18225e+09 1.18327e+09 1.19315e+09 0 1
423 2 1 1.19659e+09 1.19684e+09 1.19786e+09 1.2026e+09 0 1
424 2 1 1.20671e+09 1.20696e+09 1.20798e+09 1.20936e+09 0 1
425 2 1 1.21274e+09 1.213e+09 1.21402e+09 1.21904e+09 0 1
426 2 1 1.22182e+09 1.22209e+09 1.22311e+09 1.23026e+09 0 1
427 2 1 1.23358e+09 1.23384e+09 1.23486e+09 1.24404e+09 0 1
428 2 0 1.24914e+09 1.24939e+09 1.25042e+09 1.25136e+09 0 0
429 2 0 1.25903e+09 1.25928e+09 1.2603e+09 1.26785e+09 1 0
430 2 0 1.27488e+09 1.27514e+09 1.27616e+09 1.28756e+09 1 0
431 2 1 1.29464e+09 1.29491e+09 1.29593e+09 1.29807e+09 1 1
432 1 1 1.30281e+09 1.30307e+09 1.30409e+09 1.30704e+09 0 0
433 1 1 1.31427e+09 1.31453e+09 1.31555e+09 1.34517e+09 1 0
434 1 1 1.35229e+09 1.35256e+09 1.35358e+09 1.354e+09 1 0
435 1 1 1.36626e+09 1.36652e+09 1.36754e+09 1.36861e+09 1 0
436 2 1 1.37863e+09 1.37889e+09 1.37991e+09 1.38186e+09 0 1
437 1 1 1.38455e+09 1.3848e+09 1.38582e+09 1.38585e+09 0 0
438 1 0 1.39507e+09 1.39533e+09 1.39635e+09 1.39638e+09 1 1
439 1 1 1.40026e+09 1.40051e+09 1.40153e+09 1.40212e+09 0 0
440 1 1 1.40919e+09 1.40944e+09 1.41046e+09 1.41536e+09 1 0
441 1 0 1.4224e+09 1.42267e+09 1.42369e+09 1.43042e+09 1 1
442 2 1 1.43324e+09 1.43351e+09 1.43453e+09 1.43535e+09 0 1
443 1 1 1.43953e+09 1.43978e+09 1.4408e+09 1.44081e+09 0 0
444 1 1 1.44957e+09 1.44982e+09 1.45084e+09 1.45353e+09 1 0
445 1 1 1.46057e+09 1.46082e+09 1.46184e+09 1.46188e+09 1 0
446 1 1 1.46923e+09 1.46949e+09 1.47051e+09 1.47391e+09 1 0
447 1 1 1.48236e+09 1.48263e+09 1.48365e+09 1.4876e+09 0 0
448 2 1 1.49538e+09 1.49565e+09 1.49667e+09 1.49937e+09 0 1
449 2 0 1.50721e+09 1.50746e+09 1.50848e+09 1.5087e+09 0 0
450 2 1 1.51574e+09 1.516e+09 1.51702e+09 1.51703e+09 1 1
451 1 1 1.51976e+09 1.52001e+09 1.52103e+09 1.52215e+09 0 0
452 1 1 1.52935e+09 1.5296e+09 1.53062e+09 1.53086e+09 1 0
453 1 0 1.54362e+09 1.54388e+09 1.5449e+09 1.54688e+09 1 1
454 1 1 1.55053e+09 1.55078e+09 1.5518e+09 1.55314e+09 0 0
455 1 1 1.56219e+09 1.56245e+09 1.56347e+09 1.5635e+09 1 0
456 1 0 1.5706e+09 1.57085e+09 1.57187e+09 1.57188e+09 1 1
457 2 1 1.57569e+09 1.57595e+09 1.57697e+09 1.57982e+09 0 1
458 2 1 1.58465e+09 1.58489e+09 1.58591e+09 1.58761e+09 0 1
459 1 1 1.59056e+09 1.59082e+09 1.59184e+09 1.60199e+09 0 0
460 1 0 1.61052e+09 1.61077e+09 1.61179e+09 1.61203e+09 1 1
461 1 1 1.61616e+09 1.61642e+09 1.61744e+09 1.61745e+09 0 0
462 1 1 1.62537e+09 1.62563e+09 1.62665e+09 1.63254e+09 1 0
463 1 0 1.64502e+09 1.64527e+09 1.64629e+09 1.64635e+09 1 1
464 2 1 1.64918e+09 1.64944e+09 1.65046e+09 1.6574e+09 0 1
465 1 1 1.66149e+09 1.66175e+09 1.66277e+09 1.68543e+09 0 0
466 1 1 1.69571e+09 1.69596e+09 1.69699e+09 1.70094e+09 1 0
467 1 0 1.71074e+09 1.71099e+09 1.71201e+09 1.71234e+09 1 1
468 1 1 1.71725e+09 1.71751e+09 1.71853e+09 1.72078e+09 0 0
469 1 1 1.72874e+09 1.729e+09 1.73002e+09 1.73108e+09 1 0
470 1 1 1.74218e+09 1.74244e+09 1.74346e+09 1.75657e+09 1 0
471 1 0 1.76397e+09 1.76424e+09 1.76526e+09 1.77018e+09 1 1
472 2 1 1.77294e+09 1.77321e+09 1.77423e+09 1.77504e+09 0 1
473 1 1 1.78194e+09 1.78219e+09 1.78321e+09 1.78374e+09 0 0
474 1 1 1.79466e+09 1.79491e+09 1.79593e+09 1.79828e+09 1 0
475 1 1 1.80705e+09 1.80732e+09 1.80834e+09 1.81134e+09 1 0
476 1 1 1.82248e+09 1.82274e+09 1.82376e+09 1.82797e+09 1 0
477 1 0 1.83612e+09 1.83637e+09 1.83739e+09 1.8374e+09 0 1
478 1 0 1.84228e+09 1.84254e+09 1.84356e+09 1.84364e+09 0 1
479 1 0 1.84674e+09 1.847e+09 1.84802e+09 1.87449e+09 0 1
480 2 1 1.87942e+09 1.87968e+09 1.8807e+09 1.88146e+09 0 1
481 2 1 1.88424e+09 1.8845e+09 1.88552e+09 1.89066e+09 0 1
482 1 1 1.89434e+09 1.8946e+09 1.89562e+09 1.95339e+09 0 0
483 1 1 1.96163e+09 1.96189e+09 1.96291e+09 1.96633e+09 1 0
484 1 1 1.97761e+09 1.97787e+09 1.97889e+09 1.98266e+09 1 0
485 1 1 1.9912e+09 1.99145e+09 1.99247e+09 1.99352e+09 1 0
486 2 1 2.00312e+09 2.00338e+09 2.0044e+09 2.00817e+09 0 1
487 2 1 2.01149e+09 2.01176e+09 2.01278e+09 2.01347e+09 0 1
488 2 0 2.01917e+09 2.01942e+09 2.02044e+09 2.02049e+09 0 0
489 2 1 2.02784e+09 2.02808e+09 2.0291e+09 2.02915e+09 1 1
490 1 1 2.03265e+09 2.0329e+09 2.03392e+09 2.03553e+09 0 0
491 1 1 2.04338e+09 2.04363e+09 2.04465e+09 2.04766e+09 1 0
492 1 1 2.0558e+09 2.05607e+09 2.05709e+09 2.05836e+09 1 0
493 1 1 2.06813e+09 2.06838e+09 2.0694e+09 2.07454e+09 1 0
494 2 1 2.08176e+09 2.08201e+09 2.08303e+09 2.08329e+09 0 1
495 2 1 2.0882e+09 2.08846e+09 2.08948e+09 2.09135e+09 0 1
496 2 1 2.09425e+09 2.09451e+09 2.09553e+09 2.10117e+09 0 1
497 2 1 2.10721e+09 2.10747e+09 2.1085e+09 2.10986e+09 0 1
498 1 0 2.11397e+09 2.11423e+09 2.11525e+09 2.11526e+09 0 1
499 2 1 2.11961e+09 2.11988e+09 2.1209e+09 2.12765e+09 0 1
500 1 0 2.13093e+09 2.13119e+09 2.13221e+09 2.20099e+09 0 1
501 1 1 2.20674e+09 2.207e+09 2.20802e+09 2.20895e+09 0 0
502 1 1 2.21616e+09 2.21642e+09 2.21744e+09 2.21751e+09 1 0
503 1 1 2.22493e+09 2.22519e+09 2.22621e+09 2.22977e+09 1 0
504 1 1 2.23731e+09 2.23755e+09 2.23857e+09 2.2391e+09 1 0
505 1 0 2.24738e+09 2.24763e+09 2.24865e+09 2.25398e+09 0 1
506 2 1 2.25796e+09 2.25822e+09 2.25924e+09 2.25925e+09 0 1
507 2 1 2.26238e+09 2.26263e+09 2.26365e+09 2.26836e+09 0 1
508 1 1 2.27094e+09 2.2712e+09 2.27222e+09 2.27334e+09 0 0
509 1 1 2.28048e+09 2.28074e+09 2.28176e+09 2.28278e+09 1 0
510 1 1 2.29007e+09 2.29033e+09 2.29135e+09 2.29192e+09 1 0
511 1 1 2.29915e+09 2.2994e+09 2.30042e+09 2.30375e+09 1 0
512 1 1 2.3113e+09 2.31156e+09 2.31258e+09 2.31275e+09 0 0
513 2 1 2.31999e+09 2.32024e+09 2.32126e+09 2.32744e+09 0 1
514 2 0 2.33031e+09 2.33057e+09 2.33159e+09 2.33764e+09 0 0
515 2 0 2.34488e+09 2.34513e+09 2.34615e+09 2.35153e+09 1 0
516 2 1 2.35884e+09 2.35909e+09 2.36011e+09 2.36315e+09 1 1
517 1 1 2.36963e+09 2.36989e+09 2.37091e+09 2.38975e+09 0 0
518 1 1 2.39823e+09 2.39848e+09 2.3995e+09 2.40085e+09 1 0
519 1 1 2.40992e+09 2.41018e+09 2.4112e+09 2.42152e+09 1 0
520 1 1 2.42888e+09 2.42913e+09 2.43015e+09 2.43572e+09 1 0
521 1 1 2.4462e+09 2.44646e+09 2.44748e+09 2.44886e+09 0 0
522 2 1 2.4592e+09 2.45945e+09 2.46047e+09 2.46094e+09 0 1
523 2 1 2.46825e+09 2.46851e+09 2.46953e+09 2.47104e+09 0 1
524 1 1 2.47413e+09 2.47439e+09 2.47541e+09 2.47699e+09 0 0
525 1 1 2.4854e+09 2.48567e+09 2.48669e+09 2.4876e+09 1 0
526 1 1 2.49467e+09 2.49493e+09 2.49595e+09 2.49768e+09 1 0
527 1 0 2.50921e+09 2.50946e+09 2.51048e+09 2.51061e+09 1 1
528 2 1 2.51326e+09 2.5135e+09 2.51452e+09 2.51672e+09 0 1
529 1 1 2.51946e+09 2.51972e+09 2.52074e+09 2.52229e+09 0 0
530 1 1 2.52976e+09 2.53e+09 2.53102e+09 2.53491e+09 1 0
531 1 1 2.54548e+09 2.54573e+09 2.54675e+09 2.5514e+09 1 0
532 1 1 2.55877e+09 2.55902e+09 2.56004e+09 2.56004e+09 1 0
533 1 1 2.56724e+09 2.56749e+09 2.56851e+09 2.56943e+09 0 0
534 1 1 2.5787e+09 2.57895e+09 2.57997e+09 2.5853e+09 0 0
535 1 1 2.59269e+09 2.59294e+09 2.59396e+09 2.59451e+09 0 0
536 2 1 2.60161e+09 2.60186e+09 2.60288e+09 2.6061e+09 0 1
537 2 1 2.61074e+09 2.61098e+09 2.612e+09 2.61444e+09 0 1
538 2 1 2.61728e+09 2.61754e+09 2.61856e+09 2.61892e+09 0 1
539 2 1 2.62422e+09 2.62447e+09 2.62549e+09 2.62922e+09 0 1
540 1 1 2.63359e+09 2.63386e+09 2.63488e+09 2.64771e+09 0 0
541 1 1 2.65531e+09 2.65558e+09 2.6566e+09 2.65852e+09 1 0
542 1 1 2.66773e+09 2.66799e+09 2.66901e+09 2.67334e+09 1 0
543 1 1 2.68434e+09 2.68459e+09 2.68561e+09 2.6861e+09 1 0
544 1 0 2.69353e+09 2.69379e+09 2.69481e+09 2.70229e+09 0 1
545 1 0 2.70778e+09 2.70804e+09 2.70906e+09 2.70922e+09 0 1
546 2 1 2.71639e+09 2.71664e+09 2.71766e+09 2.72137e+09 0 1
547 1 1 2.72396e+09 2.72421e+09 2.72523e+09 2.73702e+09 0 0
548 1 0 2.74429e+09 2.74454e+09 2.74556e+09 2.74613e+09 1 1
549 2 1 2.74976e+09 2.75001e+09 2.75103e+09 2.75595e+09 0 1
550 1 0 2.76014e+09 2.76039e+09 2.76141e+09 3.20868e+09 0 1
