trial trialType response stillTime stimOnset stimOffset respTime correctionTrial correct
001 2 1 1.72472e+07 1.75499e+07 1.85702e+07 2.03669e+07 0 1
002 1 1 2.65994e+07 2.68625e+07 2.78827e+07 2.98392e+07 0 0
003 1 1 4.07849e+07 4.10518e+07 4.20721e+07 4.25912e+07 1 0
004 1 1 5.25896e+07 5.28475e+07 5.38678e+07 5.51332e+07 1 0
005 1 1 6.25971e+07 6.28726e+07 6.38929e+07 6.66244e+07 1 0
006 2 1 7.70273e+07 7.72948e+07 7.83151e+07 7.83467e+07 0 1
007 2 1 8.7126e+07 8.73973e+07 8.84176e+07 9.00514e+07 0 1
008 1 1 9.39582e+07 9.42148e+07 9.52351e+07 9.84939e+07 0 0
009 1 1 1.0596e+08 1.06219e+08 1.0724e+08 1.07407e+08 1 0
010 1 1 1.1671e+08 1.16963e+08 1.17983e+08 1.18102e+08 1 0
011 1 1 1.30058e+08 1.30314e+08 1.31334e+08 1.31341e+08 1 0
012 1 1 1.42216e+08 1.42478e+08 1.43499e+08 1.45177e+08 0 0
013 1 1 1.57208e+08 1.57466e+08 1.58486e+08 1.58526e+08 0 0
014 1 1 1.72033e+08 1.72295e+08 1.73315e+08 1.73437e+08 0 0
015 2 1 1.8432e+08 1.84587e+08 1.85607e+08 1.88633e+08 0 1
016 2 0 1.94051e+08 1.9431e+08 1.9533e+08 1.95578e+08 0 0
017 2 1 2.06889e+08 2.07146e+08 2.08166e+08 2.0818e+08 1 1
018 1 1 2.13175e+08 2.13432e+08 2.14453e+08 2.16089e+08 0 0
019 1 1 2.23663e+08 2.2393e+08 2.24951e+08 2.25067e+08 1 0
020 1 1 2.34547e+08 2.34813e+08 2.35833e+08 2.36952e+08 1 0
021 1 1 2.44283e+08 2.44545e+08 2.45565e+08 2.45724e+08 1 0
022 2 1 2.53815e+08 2.54084e+08 2.55104e+08 2.55294e+08 0 1
023 2 0 2.65731e+08 2.66005e+08 2.67025e+08 2.67256e+08 0 0
024 2 1 2.77206e+08 2.77463e+08 2.78484e+08 2.78559e+08 1 1
025 1 1 2.97154e+08 2.97415e+08 2.98436e+08 2.98899e+08 0 0
026 1 1 3.07315e+08 3.07572e+08 3.08593e+08 3.1189e+08 1 0
027 1 1 3.1903e+08 3.19276e+08 3.20296e+08 3.20433e+08 1 0
028 1 0 3.29485e+08 3.29752e+08 3.30772e+08 3.30791e+08 1 1
029 2 1 3.38502e+08 3.38763e+08 3.39784e+08 3.39806e+08 0 1
030 1 1 3.53919e+08 3.54173e+08 3.55193e+08 3.57613e+08 0 0
031 1 1 3.68948e+08 3.69214e+08 3.70234e+08 3.706e+08 1 0
032 1 1 3.79618e+08 3.79882e+08 3.80902e+08 3.81781e+08 1 0
033 1 1 3.95801e+08 3.9606e+08 3.9708e+08 3.97132e+08 1 0
034 1 1 4.04493e+08 4.04746e+08 4.05766e+08 4.06488e+08 0 0
035 2 1 4.14396e+08 4.1465e+08 4.1567e+08 4.15777e+08 0 1
036 1 0 4.26271e+08 4.26537e+08 4.27558e+08 4.27674e+08 0 1
037 1 0 4.40146e+08 4.40411e+08 4.41431e+08 4.41447e+08 0 1
038 2 1 4.45322e+08 4.45581e+08 4.46601e+08 4.46982e+08 0 1
039 2 1 4.57324e+08 4.57573e+08 4.58593e+08 4.58952e+08 0 1
040 1 1 4.78018e+08 4.78277e+08 4.79297e+08 4.79332e+08 0 0
041 1 0 4.88781e+08 4.89048e+08 4.90069e+08 4.90091e+08 1 1
042 2 1 4.99397e+08 4.99659e+08 5.00679e+08 5.00684e+08 0 1
043 2 1 5.27595e+08 5.27843e+08 5.28864e+08 5.29852e+08 0 1
044 1 0 5.50226e+08 5.50473e+08 5.51494e+08 5.51587e+08 0 1
045 2 1 5.6856e+08 5.68821e+08 5.69841e+08 5.69868e+08 0 1
046 1 0 5.92597e+08 5.92856e+08 5.93876e+08 5.93931e+08 0 1
047 1 0 6.05008e+08 6.05262e+08 6.06282e+08 6.06299e+08 0 1
048 2 1 6.16932e+08 6.17188e+08 6.18208e+08 6.18223e+08 0 1
049 2 0 6.30864e+08 6.31116e+08 6.32136e+08 6.32169e+08 0 0
050 2 1 6.66284e+08 6.66537e+08 6.67557e+08 6.67669e+08 1 1
051 2 0 6.79851e+08 6.80104e+08 6.81124e+08 6.81179e+08 0 0
052 2 1 6.89717e+08 6.8997e+08 6.9099e+08 6.91e+08 1 1
053 2 0 7.17483e+08 7.17736e+08 7.18756e+08 7.18795e+08 0 0
054 2 0 7.36841e+08 7.37091e+08 7.38112e+08 7.38148e+08 1 0
055 2 1 7.50187e+08 7.50447e+08 7.51467e+08 7.51499e+08 1 1
056 2 1 7.71966e+08 7.72226e+08 7.73246e+08 7.73316e+08 0 1
057 2 1 7.7866e+08 7.78919e+08 7.7994e+08 7.79946e+08 0 1
058 1 1 7.83369e+08 7.83636e+08 7.84656e+08 7.84677e+08 0 0
059 1 0 7.91736e+08 7.91991e+08 7.93012e+08 7.93098e+08 1 1
060 1 1 8.01155e+08 8.01405e+08 8.02425e+08 8.02454e+08 0 0
061 1 0 8.09928e+08 8.1018e+08 8.112e+08 8.11254e+08 1 1
062 1 0 8.2051e+08 8.20769e+08 8.21789e+08 8.22042e+08 0 1
063 2 1 8.26904e+08 8.27164e+08 8.28184e+08 8.28251e+08 0 1
064 1 1 8.36854e+08 8.37119e+08 8.38139e+08 8.38143e+08 0 0
065 1 1 8.56075e+08 8.56342e+08 8.57363e+08 8.57436e+08 1 0
066 1 0 8.6553e+08 8.6578e+08 8.66801e+08 8.66842e+08 1 1
067 1 1 8.90471e+08 8.90734e+08 8.91754e+08 8.91831e+08 0 0
068 1 1 9.09982e+08 9.1024e+08 9.1126e+08 9.1127e+08 1 0
069 1 1 9.31414e+08 9.31677e+08 9.32697e+08 9.33204e+08 1 0
070 1 0 9.44627e+08 9.44883e+08 9.45903e+08 9.45964e+08 1 1
071 1 1 9.57304e+08 9.57565e+08 9.58586e+08 9.58794e+08 0 0
072 1 1 9.72763e+08 9.73025e+08 9.74045e+08 9.7406e+08 1 0
073 1 0 9.84077e+08 9.84344e+08 9.85364e+08 9.85557e+08 1 1
074 1 1 9.9604e+08 9.96304e+08 9.97324e+08 9.9737e+08 0 0
075 1 1 1.00888e+09 1.00913e+09 1.01015e+09 1.01017e+09 1 0
076 1 0 1.02016e+09 1.02041e+09 1.02143e+09 1.02146e+09 1 1
077 2 1 1.02921e+09 1.02946e+09 1.03048e+09 1.03051e+09 0 1
078 2 1 1.03862e+09 1.03888e+09 1.0399e+09 1.03991e+09 0 1
079 2 0 1.05026e+09 1.05051e+09 1.05153e+09 1.05154e+09 0 0
080 2 1 1.06722e+09 1.06748e+09 1.0685e+09 1.0693e+09 1 1
081 1 0 1.08424e+09 1.08449e+09 1.08551e+09 1.08552e+09 0 1
082 1 0 1.09828e+09 1.09854e+09 1.09956e+09 1.09971e+09 0 1
083 1 1 1.10696e+09 1.1072e+09 1.10822e+09 1.10835e+09 0 0
084 1 0 1.12997e+09 1.13021e+09 1.13123e+09 1.13124e+09 1 1
085 1 1 1.1597e+09 1.15996e+09 1.16098e+09 1.16099e+09 0 0
086 1 1 1.16839e+09 1.16864e+09 1.16966e+09 1.16969e+09 1 0
087 1 1 1.18319e+09 1.18346e+09 1.18448e+09 1.18465e+09 1 0
088 1 1 1.19776e+09 1.19802e+09 1.19904e+09 1.19905e+09 1 0
089 2 0 1.20929e+09 1.20955e+09 1.21057e+09 1.21075e+09 0 0
090 1 0 1.22327e+09 1.22352e+09 1.22454e+09 1.2246e+09 0 1
091 1 0 1.22811e+09 1.22836e+09 1.22938e+09 1.2294e+09 0 1
092 2 1 1.23794e+09 1.2382e+09 1.23922e+09 1.23924e+09 0 1
093 2 1 1.25943e+09 1.25969e+09 1.26071e+09 1.26072e+09 0 1
094 1 1 1.27298e+09 1.27325e+09 1.27427e+09 1.27431e+09 0 0
095 1 0 1.31585e+09 1.31611e+09 1.31713e+09 1.31719e+09 1 1
096 2 0 1.32184e+09 1.32209e+09 1.32311e+09 1.32314e+09 0 0
097 2 1 1.33264e+09 1.3329e+09 1.33392e+09 1.33395e+09 1 1
098 1 0 1.34302e+09 1.34328e+09 1.3443e+09 1.34439e+09 0 1
099 1 0 1.35246e+09 1.35271e+09 1.35373e+09 1.3538e+09 0 1
100 1 1 1.37441e+09 1.37466e+09 1.37568e+09 1.37569e+09 0 0
101 1 1 1.38521e+09 1.38547e+09 1.38649e+09 1.38661e+09 1 0
102 1 0 1.40422e+09 1.40448e+09 1.4055e+09 1.40553e+09 1 1
103 2 1 1.40923e+09 1.4095e+09 1.41052e+09 1.41057e+09 0 1
104 2 0 1.4215e+09 1.42176e+09 1.42278e+09 1.42279e+09 0 0
105 2 0 1.43607e+09 1.43633e+09 1.43735e+09 1.43736e+09 1 0
106 2 1 1.4514e+09 1.45165e+09 1.45267e+09 1.45268e+09 1 1
107 2 0 1.46714e+09 1.4674e+09 1.46842e+09 1.46849e+09 0 0
108 2 1 1.48229e+09 1.48254e+09 1.48356e+09 1.48358e+09 1 1
109 2 0 1.50223e+09 1.50248e+09 1.5035e+09 1.50351e+09 0 0
110 2 1 1.52282e+09 1.52307e+09 1.5241e+09 1.5241e+09 1 1
111 1 1 1.53896e+09 1.53922e+09 1.54024e+09 1.54029e+09 0 0
112 1 1 1.56361e+09 1.56388e+09 1.5649e+09 1.56491e+09 1 0
113 1 1 1.5739e+09 1.57415e+09 1.57517e+09 1.57518e+09 1 0
114 1 1 1.58507e+09 1.58534e+09 1.58636e+09 1.58638e+09 1 0
115 1 1 1.60257e+09 1.60282e+09 1.60384e+09 1.60386e+09 0 0
116 2 0 1.61494e+09 1.6152e+09 1.61622e+09 1.61627e+09 0 0
117 1 1 1.62397e+09 1.62424e+09 1.62526e+09 1.62689e+09 0 0
118 1 1 1.6549e+09 1.65517e+09 1.65619e+09 1.65621e+09 0 0
119 2 0 1.66563e+09 1.66588e+09 1.6669e+09 1.66692e+09 0 0
120 1 1 1.67866e+09 1.67891e+09 1.67993e+09 1.67994e+09 0 0
121 1 1 1.69062e+09 1.69087e+09 1.69189e+09 1.69504e+09 0 0
122 2 1 1.70377e+09 1.70403e+09 1.70505e+09 1.70661e+09 0 1
123 2 1 1.71485e+09 1.7151e+09 1.71612e+09 1.71619e+09 0 1
124 1 1 1.72874e+09 1.729e+09 1.73002e+09 1.73005e+09 0 0
125 1 1 1.74577e+09 1.74602e+09 1.74704e+09 1.74705e+09 1 0
126 1 1 1.76166e+09 1.76191e+09 1.76293e+09 1.76294e+09 1 0
127 1 0 1.77074e+09 1.77101e+09 1.77203e+09 1.77208e+09 1 1
128 2 1 1.78648e+09 1.78674e+09 1.78776e+09 1.78782e+09 0 1
129 2 1 1.80097e+09 1.80122e+09 1.80225e+09 1.80236e+09 0 1
130 2 0 1.8234e+09 1.82365e+09 1.82467e+09 1.82471e+09 0 0
131 2 1 1.84298e+09 1.84322e+09 1.84424e+09 1.84426e+09 1 1
132 2 1 1.85608e+09 1.85633e+09 1.85735e+09 1.85738e+09 0 1
133 1 1 1.87806e+09 1.87833e+09 1.87935e+09 1.87937e+09 0 0
134 1 1 1.89928e+09 1.89954e+09 1.90056e+09 1.90057e+09 1 0
135 1 0 1.90805e+09 1.90829e+09 1.90931e+09 1.90942e+09 1 1
136 2 0 1.92166e+09 1.92191e+09 1.92293e+09 1.92294e+09 0 0
137 2 0 1.93958e+09 1.93984e+09 1.94086e+09 1.94093e+09 1 0
138 2 0 1.95479e+09 1.95505e+09 1.95607e+09 1.95608e+09 1 0
139 2 0 1.96424e+09 1.96449e+09 1.96551e+09 1.96557e+09 1 0
140 1 1 1.97345e+09 1.97372e+09 1.97474e+09 1.97478e+09 0 0
141 1 0 1.98223e+09 1.9825e+09 1.98352e+09 1.98356e+09 0 1
142 2 0 1.99675e+09 1.997e+09 1.99802e+09 1.99804e+09 0 0
143 2 0 2.00676e+09 2.00701e+09 2.00803e+09 2.00803e+09 1 0
144 2 1 2.02361e+09 2.02386e+09 2.02488e+09 2.02755e+09 1 1
145 1 0 2.06727e+09 2.06753e+09 2.06855e+09 2.0686e+09 0 1
146 1 1 2.09162e+09 2.09188e+09 2.0929e+09 2.09293e+09 0 0
147 1 0 2.10218e+09 2.10244e+09 2.10347e+09 2.10347e+09 1 1
148 2 1 2.13802e+09 2.13828e+09 2.1393e+09 2.13937e+09 0 1
149 2 1 2.15751e+09 2.15777e+09 2.15879e+09 2.15881e+09 0 1
150 1 1 2.17711e+09 2.17736e+09 2.17838e+09 2.17841e+09 0 0
151 1 0 2.19154e+09 2.19179e+09 2.19281e+09 2.19312e+09 1 1
152 1 1 2.19863e+09 2.19888e+09 2.1999e+09 2.20003e+09 0 0
153 1 1 2.21432e+09 2.21457e+09 2.21559e+09 2.21568e+09 1 0
154 1 0 2.2321e+09 2.23235e+09 2.23337e+09 2.23342e+09 1 1
155 2 1 2.25333e+09 2.25358e+09 2.2546e+09 2.25462e+09 0 1
156 2 1 2.27285e+09 2.27312e+09 2.27414e+09 2.27414e+09 0 1
157 1 1 2.297e+09 2.29726e+09 2.29828e+09 2.29835e+09 0 0
158 1 0 2.30565e+09 2.30592e+09 2.30694e+09 2.30703e+09 1 1
159 1 1 2.33341e+09 2.33367e+09 2.33469e+09 2.33473e+09 0 0
160 1 0 2.34719e+09 2.34745e+09 2.34847e+09 2.34865e+09 1 1
161 1 0 2.36851e+09 2.36877e+09 2.36979e+09 2.36981e+09 0 1
162 2 0 2.38239e+09 2.38264e+09 2.38366e+09 2.38379e+09 0 0
163 2 1 2.40684e+09 2.40711e+09 2.40813e+09 2.4082e+09 1 1
164 2 1 2.41347e+09 2.41372e+09 2.41474e+09 2.415e+09 0 1
165 2 0 2.43406e+09 2.43431e+09 2.43533e+09 2.43537e+09 0 0
166 2 1 2.44708e+09 2.44733e+09 2.44835e+09 2.4485e+09 1 1
167 1 0 2.46955e+09 2.46981e+09 2.47083e+09 2.47091e+09 0 1
168 2 1 2.49829e+09 2.49855e+09 2.49957e+09 2.50136e+09 0 1
169 1 1 2.51194e+09 2.51219e+09 2.51321e+09 2.51325e+09 0 0
170 1 1 2.52987e+09 2.53013e+09 2.53115e+09 2.53116e+09 1 0
171 1 1 2.54094e+09 2.5412e+09 2.54222e+09 2.54227e+09 1 0
172 1 1 2.55595e+09 2.55622e+09 2.55724e+09 2.55726e+09 1 0
173 1 0 2.57478e+09 2.57504e+09 2.57606e+09 2.5761e+09 0 1
174 1 1 2.59291e+09 2.59318e+09 2.5942e+09 2.5943e+09 0 0
175 1 1 2.60389e+09 2.60414e+09 2.60516e+09 2.60532e+09 1 0
176 1 1 2.61245e+09 2.61271e+09 2.61373e+09 2.6138e+09 1 0
177 1 0 2.62337e+09 2.62363e+09 2.62465e+09 2.62473e+09 1 1
178 2 1 2.64085e+09 2.6411e+09 2.64212e+09 2.64214e+09 0 1
179 2 1 2.6521e+09 2.65236e+09 2.65338e+09 2.65344e+09 0 1
180 1 0 2.67325e+09 2.67351e+09 2.67453e+09 2.67455e+09 0 1
181 1 1 2.72496e+09 2.72522e+09 2.72624e+09 2.72649e+09 0 0
182 1 1 2.74029e+09 2.74055e+09 2.74157e+09 2.74285e+09 1 0
183 1 1 2.75345e+09 2.75371e+09 2.75473e+09 2.75525e+09 1 0
184 1 0 2.76404e+09 2.7643e+09 2.76532e+09 2.76535e+09 1 1
185 1 1 2.77747e+09 2.77772e+09 2.77874e+09 2.77882e+09 0 0
186 1 1 2.79233e+09 2.79258e+09 2.7936e+09 2.79365e+09 1 0
187 1 0 2.81482e+09 2.81507e+09 2.81609e+09 2.81611e+09 1 1
188 1 0 2.82861e+09 2.82887e+09 2.82989e+09 2.83004e+09 0 1
189 2 1 2.83731e+09 2.83758e+09 2.8386e+09 2.83874e+09 0 1
190 2 1 2.84543e+09 2.84569e+09 2.84671e+09 2.8468e+09 0 1
191 2 1 2.9093e+09 2.90957e+09 2.91059e+09 2.91061e+09 0 1
192 2 1 2.96356e+09 2.96382e+09 2.96484e+09 2.96486e+09 0 1
193 1 1 2.98123e+09 2.98148e+09 2.9825e+09 2.98256e+09 0 0
194 1 1 3.00348e+09 3.00374e+09 3.00476e+09 3.005e+09 1 0
195 1 0 3.02622e+09 3.02648e+09 3.0275e+09 3.02757e+09 1 1
196 2 1 3.03198e+09 3.03224e+09 3.03326e+09 3.0333e+09 0 1
197 2 1 3.04075e+09 3.04101e+09 3.04203e+09 3.04208e+09 0 1
198 2 0 3.05501e+09 3.05527e+09 3.05629e+09 3.05737e+09 0 0
199 2 0 3.06542e+09 3.06567e+09 3.06669e+09 3.06688e+09 1 0
200 2 1 3.07538e+09 3.07563e+09 3.07665e+09 3.07686e+09 1 1
201 1 0 3.126e+09 3.12626e+09 3.12728e+09 3.12737e+09 0 1
202 2 1 3.13764e+09 3.13788e+09 3.1389e+09 3.13893e+09 0 1
203 1 1 3.16836e+09 3.16862e+09 3.16964e+09 3.16967e+09 0 0
204 1 0 3.18164e+09 3.18189e+09 3.18291e+09 3.18328e+09 1 1
205 1 0 3.19486e+09 3.19513e+09 3.19615e+09 3.19684e+09 0 1
206 1 0 3.20963e+09 3.20988e+09 3.2109e+09 3.21134e+09 0 1
207 2 1 3.25961e+09 3.25986e+09 3.26088e+09 3.2609e+09 0 1
208 2 1 3.26691e+09 3.26717e+09 3.26819e+09 3.26835e+09 0 1
209 1 1 3.29354e+09 3.29379e+09 3.29482e+09 3.29772e+09 0 0
210 1 0 3.30833e+09 3.30858e+09 3.3096e+09 3.30969e+09 1 1
211 2 1 3.31575e+09 3.316e+09 3.31702e+09 3.31704e+09 0 1
212 1 1 3.33081e+09 3.33108e+09 3.3321e+09 3.33214e+09 0 0
213 1 0 3.35909e+09 3.35936e+09 3.36038e+09 3.36045e+09 1 1
214 1 0 3.39324e+09 3.39349e+09 3.39451e+09 3.39458e+09 0 1
215 1 0 3.42357e+09 3.42383e+09 3.42485e+09 3.42496e+09 0 1
216 1 1 3.44339e+09 3.44365e+09 3.44467e+09 3.44468e+09 0 0
217 1 1 3.45545e+09 3.45571e+09 3.45673e+09 3.45719e+09 1 0
218 1 0 3.46971e+09 3.46996e+09 3.47098e+09 3.47143e+09 1 1
219 2 0 3.49247e+09 3.49272e+09 3.49374e+09 3.49379e+09 0 0
220 2 0 3.50523e+09 3.50549e+09 3.50651e+09 3.50655e+09 1 0
221 2 1 3.51753e+09 3.51779e+09 3.51881e+09 3.519e+09 1 1
222 2 1 3.53307e+09 3.53334e+09 3.53436e+09 3.53524e+09 0 1
223 1 0 3.54618e+09 3.54643e+09 3.54745e+09 3.5475e+09 0 1
224 2 1 3.5663e+09 3.56656e+09 3.56758e+09 3.56983e+09 0 1
225 2 1 3.59358e+09 3.59384e+09 3.59486e+09 3.59488e+09 0 1
226 1 1 3.60052e+09 3.60079e+09 3.60181e+09 3.60591e+09 0 0
227 1 1 3.6145e+09 3.61476e+09 3.61578e+09 3.61683e+09 1 0
228 1 1 3.62418e+09 3.62443e+09 3.62545e+09 3.62547e+09 1 0
229 1 0 3.63598e+09 3.63624e+09 3.63726e+09 3.63738e+09 1 1
230 1 1 3.64414e+09 3.6444e+09 3.64542e+09 3.64543e+09 0 0
231 1 0 3.65454e+09 3.6548e+09 3.65582e+09 3.65967e+09 1 1
232 2 0 3.66515e+09 3.66541e+09 3.66643e+09 3.67093e+09 0 0
233 2 1 3.68422e+09 3.68448e+09 3.6855e+09 3.68592e+09 1 1
234 1 0 3.70848e+09 3.70874e+09 3.70976e+09 3.70997e+09 0 1
235 1 0 3.71747e+09 3.71773e+09 3.71875e+09 3.71876e+09 0 1
236 2 0 3.7273e+09 3.72756e+09 3.72858e+09 3.72864e+09 0 0
237 2 1 3.74489e+09 3.74515e+09 3.74617e+09 3.74655e+09 1 1
238 2 0 3.75252e+09 3.75277e+09 3.75379e+09 3.75519e+09 0 0
239 2 1 3.76364e+09 3.7639e+09 3.76492e+09 3.76497e+09 1 1
240 1 1 3.78466e+09 3.78491e+09 3.78593e+09 3.78595e+09 0 0
241 1 1 3.79507e+09 3.79533e+09 3.79635e+09 3.79637e+09 1 0
242 1 1 3.80767e+09 3.80793e+09 3.80895e+09 3.80897e+09 1 0
243 1 0 3.82076e+09 3.821e+09 3.82202e+09 3.82215e+09 1 1
244 1 1 3.83531e+09 3.83557e+09 3.83659e+09 3.83674e+09 0 0
245 1 1 3.85745e+09 3.8577e+09 3.85872e+09 3.85927e+09 1 0
246 1 0 3.86629e+09 3.86655e+09 3.86757e+09 3.86759e+09 1 1
247 2 1 3.87977e+09 3.88003e+09 3.88105e+09 3.88118e+09 0 1
248 2 1 3.88955e+09 3.88982e+09 3.89084e+09 3.89103e+09 0 1
249 2 0 3.90408e+09 3.90433e+09 3.90535e+09 3.90542e+09 0 0
250 2 1 3.92315e+09 3.92342e+09 3.92444e+09 3.92446e+09 1 1
251 2 0 3.95576e+09 3.95601e+09 3.95703e+09 3.95706e+09 0 0
252 2 0 3.9677e+09 3.96796e+09 3.96898e+09 3.96912e+09 1 0
253 2 0 3.98618e+09 3.98644e+09 3.98746e+09 3.98759e+09 1 0
254 2 0 4.00002e+09 4.00029e+09 4.00131e+09 4.00141e+09 1 0
255 2 1 4.00879e+09 4.00905e+09 4.01007e+09 4.01016e+09 0 1
256 2 0 4.01303e+09 4.01329e+09 4.01431e+09 4.01444e+09 0 0
257 2 0 4.02168e+09 4.02193e+09 4.02295e+09 4.02303e+09 1 0
258 2 0 4.03525e+09 4.0355e+09 4.03652e+09 4.03658e+09 1 0
259 2 1 4.04368e+09 4.04393e+09 4.04495e+09 4.04684e+09 1 1
260 1 0 4.05727e+09 4.05753e+09 4.05855e+09 4.05857e+09 0 1
261 2 0 4.06748e+09 4.06774e+09 4.06876e+09 4.06976e+09 0 0
262 2 0 4.08009e+09 4.08036e+09 4.08138e+09 4.08139e+09 1 0
263 2 1 4.08842e+09 4.08867e+09 4.08969e+09 4.09081e+09 1 1
264 2 0 4.09707e+09 4.09734e+09 4.09836e+09 4.09848e+09 0 0
265 2 1 4.10595e+09 4.10621e+09 4.10723e+09 4.10887e+09 1 1
266 1 0 4.11162e+09 4.11188e+09 4.1129e+09 4.11294e+09 0 1
267 1 0 4.11551e+09 4.11576e+09 4.11678e+09 4.11826e+09 0 1
268 2 1 4.12112e+09 4.12138e+09 4.1224e+09 4.15155e+09 0 1
269 2 1 4.15809e+09 4.15835e+09 4.15937e+09 4.16924e+09 0 1
270 1 1 4.17182e+09 4.17208e+09 4.1731e+09 4.17365e+09 0 0
271 1 1 4.18099e+09 4.18125e+09 4.18227e+09 4.21156e+09 1 0
272 1 1 4.21863e+09 4.21889e+09 4.21991e+09 4.23745e+09 1 0
273 1 0 4.24467e+09 4.24493e+09 4.24595e+09 4.27627e+09 1 1
274 2 1 4.27933e+09 4.27959e+09 4.28061e+09 4.29026e+09 0 1
275 2 1 4.29284e+09 4.2931e+09 4.29412e+09 1.23113e+07 0 1
276 1 1 1.63e+07 1.65626e+07 1.75828e+07 6.35211e+07 0 0
277 1 0 7.07103e+07 7.09735e+07 7.19937e+07 7.46885e+07 1 1
278 1 0 7.90569e+07 7.93138e+07 8.03341e+07 8.05212e+07 0 1
279 1 0 8.36577e+07 8.3917e+07 8.49373e+07 8.7218e+07 0 1
280 2 1 9.00035e+07 9.02515e+07 9.12718e+07 9.99576e+07 0 1
281 1 1 1.03633e+08 1.03889e+08 1.0491e+08 1.05069e+08 0 0
282 1 1 1.12524e+08 1.12781e+08 1.13801e+08 1.15689e+08 1 0
283 1 0 1.22785e+08 1.23037e+08 1.24058e+08 1.28313e+08 1 1
284 1 1 1.33513e+08 1.33772e+08 1.34792e+08 1.36189e+08 0 0
285 1 1 1.45352e+08 1.45608e+08 1.46629e+08 1.53723e+08 1 0
286 1 1 1.69725e+08 1.69981e+08 1.71002e+08 1.72489e+08 1 0
287 1 1 1.79778e+08 1.80034e+08 1.81054e+08 1.8391e+08 1 0
288 1 1 1.9105e+08 1.91305e+08 1.92326e+08 1.93676e+08 0 0
289 1 0 2.05203e+08 2.05458e+08 2.06479e+08 2.10601e+08 0 1
290 1 0 2.19561e+08 2.19811e+08 2.20831e+08 2.21014e+08 0 1
291 2 1 2.2473e+08 2.24981e+08 2.26001e+08 2.26109e+08 0 1
292 1 1 2.33344e+08 2.33611e+08 2.34631e+08 2.41648e+08 0 0
293 1 1 2.51751e+08 2.51999e+08 2.53019e+08 2.58152e+08 1 0
294 1 1 2.65803e+08 2.66057e+08 2.67078e+08 2.67728e+08 1 0
295 1 1 2.76016e+08 2.7628e+08 2.773e+08 2.77519e+08 1 0
296 2 0 2.89882e+08 2.90144e+08 2.91165e+08 3.10247e+08 0 0
297 1 1 3.17616e+08 3.17877e+08 3.18897e+08 3.43007e+08 0 0
298 1 0 3.50406e+08 3.50662e+08 3.51682e+08 3.56184e+08 0 1
299 2 1 3.60428e+08 3.60689e+08 3.6171e+08 3.62876e+08 0 1
300 1 1 3.67933e+08 3.68199e+08 3.69219e+08 3.69878e+08 0 0
301 1 1 3.78356e+08 3.78615e+08 3.79635e+08 3.88039e+08 1 0
302 1 1 3.97338e+08 3.97597e+08 3.98617e+08 4.00382e+08 1 0
303 1 1 4.07551e+08 4.07809e+08 4.08829e+08 4.16284e+08 1 0
304 2 1 4.25092e+08 4.25358e+08 4.26378e+08 4.32189e+08 0 1
305 2 1 4.37647e+08 4.37911e+08 4.38931e+08 4.39357e+08 0 1
306 1 1 4.45173e+08 4.45442e+08 4.46462e+08 4.50283e+08 0 0
307 1 0 4.61283e+08 4.6154e+08 4.6256e+08 4.62596e+08 1 1
308 2 0 4.66982e+08 4.67247e+08 4.68267e+08 4.68285e+08 0 0
309 2 1 4.75854e+08 4.76113e+08 4.77133e+08 4.78359e+08 1 1
310 1 1 4.88988e+08 4.89246e+08 4.90267e+08 4.9032e+08 0 0
311 1 1 5.00791e+08 5.01041e+08 5.02061e+08 5.02073e+08 1 0
312 1 1 5.09487e+08 5.09742e+08 5.10763e+08 5.10889e+08 1 0
313 1 0 5.22104e+08 5.22354e+08 5.23374e+08 5.23604e+08 1 1
314 1 0 5.27503e+08 5.27763e+08 5.28784e+08 5.28802e+08 0 1
315 1 1 5.32614e+08 5.32865e+08 5.33885e+08 5.33893e+08 0 0
316 1 0 5.42016e+08 5.42278e+08 5.43299e+08 5.43327e+08 1 1
317 1 1 5.48559e+08 5.4882e+08 5.49841e+08 5.49861e+08 0 0
318 1 0 5.6159e+08 5.61836e+08 5.62856e+08 5.6321e+08 1 1
319 2 1 5.70997e+08 5.71263e+08 5.72283e+08 5.74608e+08 0 1
320 2 1 5.78459e+08 5.78719e+08 5.7974e+08 5.79797e+08 0 1
321 2 0 5.83422e+08 5.83679e+08 5.847e+08 5.84719e+08 0 0
322 2 1 5.95113e+08 5.95359e+08 5.96379e+08 5.96459e+08 1 1
323 2 1 6.01498e+08 6.01756e+08 6.02776e+08 6.02975e+08 0 1
324 1 1 6.06417e+08 6.06664e+08 6.07684e+08 6.08071e+08 0 0
325 1 1 6.16923e+08 6.17185e+08 6.18206e+08 6.1823e+08 1 0
326 1 1 6.2719e+08 6.27441e+08 6.28461e+08 6.28546e+08 1 0
327 1 0 6.3854e+08 6.38799e+08 6.39819e+08 6.39832e+08 1 1
328 2 0 6.518e+08 6.52057e+08 6.53077e+08 6.53084e+08 0 0
329 2 1 6.60138e+08 6.60404e+08 6.61424e+08 6.61438e+08 1 1
330 2 1 6.65018e+08 6.65279e+08 6.66299e+08 6.66662e+08 0 1
331 1 0 6.71542e+08 6.718e+08 6.7282e+08 6.72829e+08 0 1
332 2 1 6.77133e+08 6.77388e+08 6.78408e+08 6.82465e+08 0 1
333 1 0 6.92092e+08 6.9235e+08 6.9337e+08 6.93378e+08 0 1
334 1 0 6.98372e+08 6.98636e+08 6.99656e+08 6.99762e+08 0 1
335 2 0 7.03855e+08 7.04112e+08 7.05132e+08 7.05147e+08 0 0
336 2 1 7.13897e+08 7.14147e+08 7.15167e+08 7.15435e+08 1 1
337 2 1 7.19908e+08 7.20171e+08 7.21191e+08 7.21212e+08 0 1
338 2 1 7.2509e+08 7.25336e+08 7.26356e+08 7.2705e+08 0 1
339 1 0 7.30615e+08 7.30866e+08 7.31886e+08 7.31915e+08 0 1
340 2 1 7.42038e+08 7.42306e+08 7.43326e+08 7.43394e+08 0 1
341 1 1 7.53687e+08 7.53943e+08 7.54963e+08 7.55769e+08 0 0
342 1 1 7.63045e+08 7.63302e+08 7.64323e+08 7.64933e+08 1 0
343 1 1 7.73816e+08 7.74064e+08 7.75085e+08 7.76929e+08 1 0
344 1 1 7.85454e+08 7.85699e+08 7.8672e+08 7.87541e+08 1 0
345 2 1 7.97045e+08 7.97304e+08 7.98325e+08 7.99807e+08 0 1
346 1 0 8.09012e+08 8.09273e+08 8.10293e+08 8.1033e+08 0 1
347 1 0 8.16279e+08 8.16548e+08 8.17568e+08 8.17627e+08 0 1
348 1 1 8.28557e+08 8.28814e+08 8.29835e+08 8.29843e+08 0 0
349 1 1 8.36924e+08 8.37181e+08 8.38202e+08 8.38222e+08 1 0
350 1 1 8.4649e+08 8.4676e+08 8.4778e+08 8.48733e+08 1 0
351 1 0 8.56849e+08 8.57114e+08 8.58134e+08 8.58273e+08 1 1
352 2 0 8.70687e+08 8.70953e+08 8.71974e+08 8.72023e+08 0 0
353 2 1 8.79156e+08 8.79415e+08 8.80435e+08 8.80791e+08 1 1
354 2 1 8.85265e+08 8.85517e+08 8.86537e+08 8.86547e+08 0 1
355 2 0 8.91749e+08 8.92017e+08 8.93038e+08 8.93076e+08 0 0
356 2 0 9.01389e+08 9.01641e+08 9.02661e+08 9.03953e+08 1 0
357 2 1 9.13553e+08 9.13819e+08 9.1484e+08 9.1534e+08 1 1
358 2 1 9.19683e+08 9.19947e+08 9.20968e+08 9.21012e+08 0 1
359 2 0 9.31145e+08 9.314e+08 9.32421e+08 9.32465e+08 0 0
360 2 1 9.40184e+08 9.40435e+08 9.41455e+08 9.41641e+08 1 1
361 2 1 9.44633e+08 9.44893e+08 9.45913e+08 9.46152e+08 0 1
362 1 1 9.49382e+08 9.49642e+08 9.50663e+08 9.51228e+08 0 0
363 1 1 9.6111e+08 9.61375e+08 9.62395e+08 9.62804e+08 1 0
364 1 1 9.71344e+08 9.71599e+08 9.7262e+08 9.72892e+08 1 0
365 1 1 9.80349e+08 9.80597e+08 9.81617e+08 9.87253e+08 1 0
366 2 1 9.95482e+08 9.9574e+08 9.9676e+08 9.97276e+08 0 1
367 2 1 1.00721e+09 1.00746e+09 1.00848e+09 1.00859e+09 0 1
368 1 0 1.01429e+09 1.01454e+09 1.01556e+09 1.02119e+09 0 1
369 1 1 1.02487e+09 1.02512e+09 1.02614e+09 1.03007e+09 0 0
370 1 1 1.03765e+09 1.03792e+09 1.03894e+09 1.04417e+09 1 0
371 1 1 1.05296e+09 1.05322e+09 1.05424e+09 1.05918e+09 1 0
372 1 1 1.06693e+09 1.06717e+09 1.06819e+09 1.07259e+09 1 0
373 1 0 1.08071e+09 1.08097e+09 1.08199e+09 1.08315e+09 0 1
374 2 1 1.08609e+09 1.08634e+09 1.08736e+09 1.12381e+09 0 1
375 1 1 1.12778e+09 1.12805e+09 1.12907e+09 1.1338e+09 0 0
376 1 1 1.14128e+09 1.14154e+09 1.14256e+09 1.14615e+09 1 0
377 1 0 1.15599e+09 1.15625e+09 1.15727e+09 1.1597e+09 1 1
378 1 1 1.17175e+09 1.172e+09 1.17302e+09 1.17304e+09 0 0
379 1 1 1.18111e+09 1.18136e+09 1.18238e+09 1.1875e+09 1 0
380 1 1 1.19467e+09 1.19493e+09 1.19595e+09 1.20104e+09 1 0
381 1 1 1.20977e+09 1.21003e+09 1.21105e+09 1.22783e+09 1 0
382 1 1 1.23502e+09 1.23527e+09 1.23629e+09 1.26108e+09 0 0
383 1 1 1.27185e+09 1.2721e+09 1.27312e+09 1.27325e+09 0 0
384 2 1 1.28144e+09 1.2817e+09 1.28272e+09 1.28386e+09 0 1
385 1 1 1.29146e+09 1.29171e+09 1.29273e+09 1.29275e+09 0 0
386 1 0 1.30297e+09 1.30321e+09 1.30423e+09 1.30426e+09 1 1
387 1 0 1.31107e+09 1.31132e+09 1.31234e+09 1.31235e+09 0 1
388 2 1 1.32254e+09 1.32279e+09 1.32381e+09 1.32456e+09 0 1
389 2 0 1.32921e+09 1.32947e+09 1.33049e+09 1.33052e+09 0 0
390 2 1 1.33756e+09 1.33782e+09 1.33884e+09 1.33951e+09 1 1
391 1 1 1.34211e+09 1.34237e+09 1.34339e+09 1.34421e+09 0 0
392 1 1 1.3515e+09 1.35175e+09 1.35277e+09 1.35817e+09 1 0
393 1 1 1.36598e+09 1.36624e+09 1.36726e+09 1.37041e+09 1 0
394 1 1 1.37776e+09 1.37801e+09 1.37903e+09 1.38142e+09 1 0
395 1 1 1.3907e+09 1.39098e+09 1.392e+09 1.39577e+09 0 0
396 1 0 1.40329e+09 1.40355e+09 1.40457e+09 1.40465e+09 0 1
397 2 1 1.41452e+09 1.41477e+09 1.41579e+09 1.41748e+09 0 1
398 2 1 1.42571e+09 1.42597e+09 1.42699e+09 1.4272e+09 0 1
399 1 1 1.43079e+09 1.43105e+09 1.43207e+09 1.43389e+09 0 0
400 1 1 1.44137e+09 1.44162e+09 1.44264e+09 1.44428e+09 1 0
401 1 0 1.45137e+09 1.45163e+09 1.45265e+09 1.45268e+09 1 1
402 2 1 1.46002e+09 1.46028e+09 1.4613e+09 1.46254e+09 0 1
403 2 1 1.46846e+09 1.46872e+09 1.46974e+09 1.47477e+09 0 1
404 2 1 1.48327e+09 1.48353e+09 1.48455e+09 1.48546e+09 0 1
405 1 1 1.49135e+09 1.49161e+09 1.49264e+09 1.49289e+09 0 0
406 1 1 1.50567e+09 1.50592e+09 1.50694e+09 1.51076e+09 1 0
407 1 1 1.51828e+09 1.51853e+09 1.51955e+09 1.51956e+09 1 0
408 1 1 1.52893e+09 1.52918e+09 1.5302e+09 1.53026e+09 1 0
409 1 1 1.53878e+09 1.53904e+09 1.54006e+09 1.54229e+09 0 0
410 2 1 1.54963e+09 1.54988e+09 1.5509e+09 1.552e+09 0 1
411 1 1 1.55987e+09 1.56013e+09 1.56116e+09 1.56126e+09 0 0
412 1 1 1.57504e+09 1.57529e+09 1.57631e+09 1.57805e+09 1 0
413 1 1 1.5859e+09 1.58616e+09 1.58718e+09 1.58968e+09 1 0
414 1 1 1.59814e+09 1.59839e+09 1.59941e+09 1.60501e+09 1 0
415 2 1 1.61638e+09 1.61663e+09 1.61765e+09 1.61785e+09 0 1
416 2 1 1.62544e+09 1.6257e+09 1.62672e+09 1.64188e+09 0 1
417 2 1 1.64624e+09 1.64651e+09 1.64753e+09 1.7064e+09 0 1
418 2 1 1.70907e+09 1.70932e+09 1.71034e+09 1.72876e+09 0 1
419 1 1 1.73348e+09 1.73374e+09 1.73476e+09 1.78086e+09 0 0
420 1 0 1.78802e+09 1.78827e+09 1.78929e+09 1.80132e+09 1 1
421 1 1 1.80594e+09 1.8062e+09 1.80722e+09 1.83432e+09 0 0
422 1 0 1.84182e+09 1.84208e+09 1.8431e+09 1.8472e+09 1 1
423 1 1 1.85183e+09 1.85208e+09 1.8531e+09 1.88324e+09 0 0
424 1 0 1.89055e+09 1.89081e+09 1.89183e+09 1.89267e+09 1 1
425 1 1 1.90193e+09 1.90219e+09 1.90321e+09 1.90484e+09 0 0
426 1 1 1.91508e+09 1.91534e+09 1.91636e+09 1.91639e+09 1 0
427 1 0 1.92352e+09 1.92377e+09 1.92479e+09 1.93071e+09 1 1
428 2 1 1.93439e+09 1.93465e+09 1.93567e+09 1.93694e+09 0 1
429 2 0 1.94075e+09 1.94101e+09 1.94203e+09 1.9421e+09 0 0
430 2 0 1.95034e+09 1.95059e+09 1.95161e+09 1.95163e+09 1 0
431 2 1 1.95871e+09 1.95898e+09 1.96e+09 2.00778e+09 1 1
432 1 1 2.01265e+09 2.0129e+09 2.01392e+09 2.01558e+09 0 0
433 1 0 2.02389e+09 2.02415e+09 2.02517e+09 2.0252e+09 1 1
434 2 1 2.03049e+09 2.03074e+09 2.03176e+09 2.03178e+09 0 1
435 2 1 2.04138e+09 2.04165e+09 2.04267e+09 2.04405e+09 0 1
436 2 1 2.04688e+09 2.04715e+09 2.04817e+09 2.0496e+09 0 1
437 1 0 2.05354e+09 2.0538e+09 2.05482e+09 2.05743e+09 0 1
438 1 1 2.06051e+09 2.06076e+09 2.06178e+09 2.06179e+09 0 0
439 1 1 2.07045e+09 2.0707e+09 2.07172e+09 2.0721e+09 1 0
440 1 1 2.07937e+09 2.07963e+09 2.08065e+09 2.08162e+09 1 0
441 1 1 2.0902e+09 2.09045e+09 2.09147e+09 2.09494e+09 1 0
442 2 1 2.10231e+09 2.10256e+09 2.10358e+09 2.10877e+09 0 1
443 2 1 2.1121e+09 2.11234e+09 2.11336e+09 2.11367e+09 0 1
444 2 1 2.11831e+09 2.11857e+09 2.11959e+09 2.1198e+09 0 1
445 1 0 2.12522e+09 2.12548e+09 2.1265e+09 2.12652e+09 0 1
446 1 1 2.13533e+09 2.13559e+09 2.13662e+09 2.14447e+09 0 0
447 1 0 2.15183e+09 2.15209e+09 2.15311e+09 2.15463e+09 1 1
448 2 1 2.15774e+09 2.158e+09 2.15902e+09 2.15903e+09 0 1
449 2 1 2.16729e+09 2.16755e+09 2.16857e+09 2.17105e+09 0 1
450 1 1 2.17487e+09 2.17513e+09 2.17615e+09 2.17628e+09 0 0
451 1 1 2.18538e+09 2.18564e+09 2.18666e+09 2.18711e+09 1 0
452 1 1 2.19746e+09 2.19771e+09 2.19873e+09 2.20194e+09 1 0
453 1 1 2.20939e+09 2.20964e+09 2.21066e+09 2.21354e+09 1 0
454 1 1 2.22402e+09 2.22426e+09 2.22528e+09 2.2265e+09 0 0
455 2 1 2.23422e+09 2.23447e+09 2.23549e+09 2.23558e+09 0 1
456 1 1 2.23878e+09 2.23904e+09 2.24006e+09 2.24707e+09 0 0
457 1 1 2.25774e+09 2.258e+09 2.25902e+09 2.26137e+09 1 0
458 1 1 2.27046e+09 2.27072e+09 2.27174e+09 2.27175e+09 1 0
459 1 0 2.27918e+09 2.27944e+09 2.28046e+09 2.28521e+09 1 1
460 2 1 2.2971e+09 2.29735e+09 2.29837e+09 2.30363e+09 0 1
461 1 0 2.31111e+09 2.31138e+09 2.3124e+09 2.32612e+09 0 1
462 2 1 2.33078e+09 2.33103e+09 2.33205e+09 2.33232e+09 0 1
463 1 0 2.33678e+09 2.33704e+09 2.33806e+09 2.33807e+09 0 1
464 1 1 2.34232e+09 2.34258e+09 2.3436e+09 2.34512e+09 0 0
465 1 1 2.3536e+09 2.35385e+09 2.35487e+09 2.36166e+09 1 0
466 1 1 2.36882e+09 2.36907e+09 2.37009e+09 2.37815e+09 1 0
467 1 1 2.38535e+09 2.38562e+09 2.38664e+09 2.38794e+09 1 0
468 2 1 2.39531e+09 2.39557e+09 2.39659e+09 2.3966e+09 0 1
469 1 1 2.40319e+09 2.40344e+09 2.40446e+09 2.4086e+09 0 0
470 1 1 2.41716e+09 2.41741e+09 2.41843e+09 2.4374e+09 1 0
471 1 1 2.44458e+09 2.44483e+09 2.44585e+09 2.5557e+09 1 0
472 1 1 2.56612e+09 2.56638e+09 2.5674e+09 2.59559e+09 1 0
473 2 1 2.60453e+09 2.60479e+09 2.60581e+09 2.61656e+09 0 1
474 2 1 2.62336e+09 2.62362e+09 2.62464e+09 2.62977e+09 0 1
475 1 0 2.63297e+09 2.63323e+09 2.63425e+09 2.63441e+09 0 1
476 2 0 2.63937e+09 2.63963e+09 2.64065e+09 2.64099e+09 0 0
477 2 0 2.64848e+09 2.64873e+09 2.64975e+09 2.68247e+09 1 0
478 2 1 2.69109e+09 2.69134e+09 2.69236e+09 2.69463e+09 1 1
479 1 1 2.70009e+09 2.70034e+09 2.70136e+09 2.70141e+09 0 0
480 1 1 2.7113e+09 2.71156e+09 2.71258e+09 2.71845e+09 1 0
481 1 1 2.72573e+09 2.72597e+09 2.72699e+09 2.72995e+09 1 0
482 1 1 2.73705e+09 2.7373e+09 2.73832e+09 2.7448e+09 1 0
483 2 0 2.7522e+09 2.75247e+09 2.75349e+09 3.11653e+09 0 0
