trial trialType response stillTime stimOnset stimOffset respTime correctionTrial correct
001 2 1 8.88117e+06 9.20394e+06 1.02242e+07 1.63569e+08 0
001 002 1 1 1.66602e+08 1.66873e+08 1.67893e+08 1.69642e+08 0
000 003 1 0 1.76768e+08 1.77047e+08 1.78067e+08 1.78599e+08 1
001 004 2 0 1.81868e+08 1.82123e+08 1.83144e+08 6.51777e+08 0
000 005 2 1 6.70592e+08 6.70854e+08 6.71874e+08 6.71896e+08 1
001 006 1 1 6.77712e+08 6.77968e+08 6.78989e+08 6.78997e+08 0
000 007 1 0 6.86912e+08 6.87158e+08 6.88179e+08 6.89695e+08 1
001 008 2 1 7.53158e+08 7.53415e+08 7.54435e+08 7.54448e+08 0
001 009 1 0 7.59887e+08 7.60134e+08 7.61154e+08 7.61165e+08 0
001 010 2 1 7.65048e+08 7.65296e+08 7.66317e+08 7.66326e+08 0
001 011 2 1 7.76276e+08 7.76537e+08 7.77557e+08 7.77641e+08 0
001 012 1 1 7.85693e+08 7.85951e+08 7.86972e+08 7.86993e+08 0
000 013 1 1 7.94528e+08 7.94778e+08 7.95798e+08 7.95807e+08 1
000 014 1 1 8.07292e+08 8.07543e+08 8.08563e+08 8.08582e+08 1
000 015 1 0 8.20829e+08 8.21099e+08 8.22119e+08 8.22158e+08 1
001 016 1 0 8.32249e+08 8.32514e+08 8.33534e+08 8.33538e+08 0
001 017 1 0 8.4003e+08 8.40293e+08 8.41313e+08 8.41328e+08 0
001 018 1 1 8.45581e+08 8.45829e+08 8.4685e+08 8.46855e+08 0
000 019 1 0 8.55102e+08 8.55347e+08 8.56368e+08 8.56375e+08 1
001 020 2 1 8.60581e+08 8.60843e+08 8.61864e+08 8.61912e+08 0
001 021 2 1 8.71047e+08 8.71303e+08 8.72323e+08 8.72338e+08 0
001 022 1 1 8.76789e+08 8.77047e+08 8.78067e+08 8.78072e+08 0
000 023 1 1 8.86146e+08 8.86407e+08 8.87427e+08 8.87438e+08 1
000 024 1 1 8.99246e+08 8.99504e+08 9.00525e+08 9.0053e+08 1
000 025 1 0 9.38631e+08 9.38887e+08 9.39907e+08 9.40098e+08 1
001 026 2 0 9.43213e+08 9.4346e+08 9.4448e+08 9.44487e+08 0
000 027 2 0 9.54691e+08 9.5494e+08 9.55961e+08 9.55973e+08 1
000 028 2 0 9.63296e+08 9.6355e+08 9.6457e+08 9.64777e+08 1
000 029 2 1 9.76948e+08 9.77206e+08 9.78226e+08 9.78235e+08 1
001 030 1 1 9.82752e+08 9.83008e+08 9.84029e+08 9.8409e+08 0
000 031 1 0 9.93582e+08 9.93826e+08 9.94847e+08 9.94853e+08 1
001 032 2 0 9.98415e+08 9.98662e+08 9.99682e+08 1.0001e+09 0
000 033 2 0 1.01403e+09 1.01428e+09 1.0153e+09 1.01531e+09 1
000 034 2 0 1.0226e+09 1.02285e+09 1.02388e+09 1.02392e+09 1
000 035 2 0 1.06059e+09 1.06085e+09 1.06187e+09 1.06188e+09 1
000 036 1 1 1.07085e+09 1.07111e+09 1.07213e+09 1.07222e+09 0
000 037 2 1 1.08216e+09 1.08242e+09 1.08344e+09 1.08347e+09 0
001 038 2 1 1.09966e+09 1.09991e+09 1.10093e+09 1.10094e+09 0
001 039 1 0 1.12036e+09 1.12062e+09 1.12164e+09 1.12164e+09 0
001 040 2 1 1.1321e+09 1.13235e+09 1.13337e+09 1.13338e+09 0
001 041 1 1 1.15551e+09 1.15576e+09 1.15678e+09 1.15679e+09 0
000 042 1 1 1.1663e+09 1.16656e+09 1.16758e+09 1.1677e+09 1
000 043 1 1 1.19442e+09 1.19467e+09 1.19569e+09 1.19571e+09 1
000 044 1 0 1.23333e+09 1.23359e+09 1.23461e+09 1.23465e+09 1
001 045 2 1 1.24085e+09 1.2411e+09 1.24212e+09 1.24214e+09 0
001 046 1 1 1.25046e+09 1.25072e+09 1.25174e+09 1.25176e+09 0
000 047 1 1 1.26511e+09 1.26537e+09 1.2664e+09 1.26641e+09 1
000 048 1 1 1.27708e+09 1.27734e+09 1.27836e+09 1.27841e+09 1
000 049 1 0 1.28927e+09 1.28953e+09 1.29056e+09 1.29103e+09 1
001 050 2 1 1.30322e+09 1.30347e+09 1.30449e+09 1.30452e+09 0
001 051 2 1 1.31451e+09 1.31476e+09 1.31578e+09 1.3158e+09 0
001 052 2 1 1.33702e+09 1.33728e+09 1.3383e+09 1.33831e+09 0
001 053 1 0 1.36645e+09 1.3667e+09 1.36772e+09 1.36772e+09 0
001 054 2 1 1.37614e+09 1.3764e+09 1.37743e+09 1.37753e+09 0
001 055 2 1 1.40048e+09 1.40073e+09 1.40175e+09 1.40178e+09 0
001 056 2 0 1.40557e+09 1.40583e+09 1.40685e+09 1.40686e+09 0
000 057 2 1 1.42787e+09 1.42812e+09 1.42914e+09 1.42945e+09 1
001 058 2 1 1.44491e+09 1.44516e+09 1.44618e+09 1.4462e+09 0
001 059 2 0 1.45568e+09 1.45594e+09 1.45696e+09 1.45723e+09 0
000 060 2 0 1.46532e+09 1.46558e+09 1.4666e+09 1.46685e+09 1
000 061 2 0 1.47937e+09 1.47962e+09 1.48064e+09 1.48069e+09 1
000 062 2 0 1.49267e+09 1.49293e+09 1.49395e+09 1.49396e+09 1
000 063 2 0 1.50458e+09 1.50484e+09 1.50586e+09 1.50586e+09 0
000 064 2 0 1.52203e+09 1.52228e+09 1.52331e+09 1.52339e+09 0
000 065 2 1 1.53911e+09 1.53936e+09 1.54038e+09 1.54039e+09 0
001 066 2 1 1.54851e+09 1.54878e+09 1.5498e+09 1.54983e+09 0
001 067 1 0 1.56253e+09 1.56278e+09 1.5638e+09 1.5638e+09 0
001 068 2 0 1.57826e+09 1.57851e+09 1.57953e+09 1.57954e+09 0
000 069 2 1 1.58847e+09 1.58871e+09 1.58973e+09 1.59e+09 1
001 070 2 0 1.60111e+09 1.60137e+09 1.60239e+09 1.60251e+09 0
000 071 2 0 1.61019e+09 1.61045e+09 1.61147e+09 1.61147e+09 1
000 072 2 0 1.64618e+09 1.64643e+09 1.64745e+09 1.64753e+09 1
000 073 2 0 1.65886e+09 1.65911e+09 1.66013e+09 1.66023e+09 1
000 074 2 0 1.67367e+09 1.67392e+09 1.67494e+09 1.67495e+09 0
000 075 1 1 1.68603e+09 1.68629e+09 1.68731e+09 1.68732e+09 0
000 076 2 0 1.70068e+09 1.70094e+09 1.70196e+09 1.70206e+09 0
000 077 1 1 1.70975e+09 1.71001e+09 1.71103e+09 1.71104e+09 0
000 078 2 1 1.71816e+09 1.71841e+09 1.71943e+09 1.71973e+09 0
001 079 1 1 1.74702e+09 1.74728e+09 1.7483e+09 1.74831e+09 0
000 080 1 1 1.75684e+09 1.7571e+09 1.75812e+09 1.75813e+09 1
000 081 1 0 1.79961e+09 1.79986e+09 1.80088e+09 1.80089e+09 1
001 082 2 0 1.81088e+09 1.81113e+09 1.81215e+09 1.81233e+09 0
000 083 2 1 1.82573e+09 1.82599e+09 1.82701e+09 1.82746e+09 1
001 084 1 0 1.82995e+09 1.83019e+09 1.83122e+09 1.8328e+09 0
001 085 1 0 1.84168e+09 1.84194e+09 1.84296e+09 1.84299e+09 0
001 086 1 0 1.85248e+09 1.85273e+09 1.85375e+09 1.85545e+09 0
001 087 2 0 1.86496e+09 1.86521e+09 1.86623e+09 1.86626e+09 0
000 088 2 1 1.89727e+09 1.89752e+09 1.89854e+09 1.89859e+09 1
001 089 1 1 1.93816e+09 1.93842e+09 1.93944e+09 1.93949e+09 0
000 090 1 0 1.9553e+09 1.95554e+09 1.95656e+09 1.95657e+09 1
001 091 1 1 1.97856e+09 1.97882e+09 1.97984e+09 1.97988e+09 0
000 092 1 1 1.99236e+09 1.99262e+09 1.99364e+09 1.99366e+09 1
000 093 1 0 2.00297e+09 2.00323e+09 2.00425e+09 2.00626e+09 1
001 094 1 0 2.033e+09 2.03325e+09 2.03427e+09 2.03429e+09 0
001 095 1 1 2.06824e+09 2.0685e+09 2.06952e+09 2.06956e+09 0
000 096 1 0 2.08278e+09 2.08303e+09 2.08405e+09 2.08406e+09 1
001 097 2 0 2.09397e+09 2.09422e+09 2.09524e+09 2.09531e+09 0
000 098 2 0 2.10391e+09 2.10416e+09 2.10518e+09 2.10522e+09 1
000 099 2 1 2.11924e+09 2.1195e+09 2.12052e+09 2.1209e+09 1
001 100 1 1 2.12513e+09 2.12539e+09 2.12641e+09 2.12645e+09 0
000 101 1 0 2.14625e+09 2.14651e+09 2.14753e+09 2.14837e+09 1
001 102 1 0 2.18408e+09 2.18433e+09 2.18535e+09 2.18563e+09 0
001 103 1 0 2.21765e+09 2.2179e+09 2.21892e+09 2.2191e+09 0
001 104 2 1 2.24286e+09 2.24311e+09 2.24413e+09 2.24516e+09 0
001 105 1 0 2.28768e+09 2.28794e+09 2.28896e+09 2.28897e+09 0
001 106 1 1 2.29645e+09 2.29671e+09 2.29773e+09 2.2985e+09 0
000 107 1 1 2.31208e+09 2.31234e+09 2.31336e+09 2.31341e+09 1
000 108 1 1 2.33882e+09 2.33907e+09 2.34009e+09 2.34015e+09 1
000 109 1 0 2.34748e+09 2.34774e+09 2.34876e+09 2.34877e+09 1
001 110 2 0 2.3543e+09 2.35456e+09 2.35558e+09 2.35561e+09 0
000 111 2 0 2.36618e+09 2.36643e+09 2.36745e+09 2.36774e+09 1
000 112 2 0 2.38045e+09 2.38071e+09 2.38173e+09 2.3847e+09 1
000 113 2 0 2.39794e+09 2.39819e+09 2.39921e+09 2.3993e+09 1
000 114 1 1 2.41727e+09 2.41752e+09 2.41854e+09 2.41856e+09 0
000 115 1 0 2.42578e+09 2.42603e+09 2.42705e+09 2.42725e+09 0
001 116 1 0 2.44372e+09 2.44397e+09 2.44499e+09 2.44508e+09 0
001 117 1 0 2.48309e+09 2.48334e+09 2.48436e+09 2.48437e+09 0
001 118 2 0 2.51036e+09 2.51063e+09 2.51165e+09 2.51206e+09 0
000 119 2 0 2.52436e+09 2.52462e+09 2.52564e+09 2.52573e+09 1
000 120 2 1 2.53658e+09 2.53683e+09 2.53786e+09 2.53813e+09 1
001 121 1 0 2.54846e+09 2.54872e+09 2.54974e+09 2.55036e+09 0
001 122 1 0 2.56268e+09 2.56294e+09 2.56396e+09 2.56405e+09 0
001 123 1 0 2.57196e+09 2.57221e+09 2.57323e+09 2.57524e+09 0
001 124 1 0 2.58564e+09 2.5859e+09 2.58692e+09 2.5873e+09 0
001 125 2 0 2.59783e+09 2.59809e+09 2.59911e+09 2.59951e+09 0
000 126 2 0 2.61862e+09 2.61888e+09 2.6199e+09 2.61992e+09 1
000 127 2 0 2.62707e+09 2.62733e+09 2.62835e+09 2.62836e+09 1
000 128 2 1 2.64117e+09 2.64142e+09 2.64244e+09 2.64248e+09 1
001 129 2 0 2.66091e+09 2.66116e+09 2.66218e+09 2.66237e+09 0
000 130 2 0 2.69203e+09 2.69229e+09 2.69331e+09 2.69352e+09 1
000 131 2 0 2.70686e+09 2.70712e+09 2.70814e+09 2.70872e+09 1
000 132 2 0 2.72104e+09 2.7213e+09 2.72232e+09 2.72241e+09 1
000 133 2 0 2.73346e+09 2.73372e+09 2.73474e+09 2.73572e+09 0
000 134 2 0 2.75222e+09 2.75248e+09 2.7535e+09 2.75386e+09 0
000 135 1 1 2.77372e+09 2.77397e+09 2.77499e+09 2.77519e+09 0
000 136 2 1 2.78788e+09 2.78814e+09 2.78916e+09 2.78928e+09 0
001 137 2 1 2.79198e+09 2.79224e+09 2.79326e+09 2.79333e+09 0
001 138 1 0 2.81837e+09 2.81862e+09 2.81964e+09 2.81967e+09 0
001 139 2 1 2.83648e+09 2.83674e+09 2.83776e+09 2.83778e+09 0
001 140 2 0 2.85545e+09 2.8557e+09 2.85672e+09 2.85685e+09 0
000 141 2 0 2.86626e+09 2.86652e+09 2.86754e+09 2.86763e+09 1
000 142 2 1 2.88521e+09 2.88545e+09 2.88647e+09 2.88653e+09 1
001 143 1 0 2.89723e+09 2.89749e+09 2.89851e+09 2.89886e+09 0
001 144 2 0 2.91948e+09 2.91973e+09 2.92075e+09 2.92084e+09 0
000 145 2 0 2.92799e+09 2.92825e+09 2.92927e+09 2.92953e+09 1
000 146 2 0 2.94321e+09 2.94346e+09 2.94448e+09 2.94512e+09 1
000 147 2 0 2.95498e+09 2.95524e+09 2.95626e+09 2.95723e+09 1
000 148 2 0 2.96805e+09 2.9683e+09 2.96932e+09 2.96951e+09 0
000 149 2 0 3.02137e+09 3.02163e+09 3.02265e+09 3.02284e+09 0
000 150 1 0 3.0331e+09 3.03336e+09 3.03438e+09 3.03469e+09 0
001 151 1 0 3.04969e+09 3.04996e+09 3.05098e+09 3.05102e+09 0
001 152 2 0 3.05905e+09 3.05931e+09 3.06033e+09 3.06034e+09 0
000 153 2 1 3.07352e+09 3.07376e+09 3.07478e+09 3.0751e+09 1
001 154 1 0 3.10096e+09 3.10122e+09 3.10224e+09 3.10226e+09 0
001 155 1 1 3.10826e+09 3.10851e+09 3.10953e+09 3.10959e+09 0
000 156 1 1 3.1186e+09 3.11886e+09 3.11988e+09 3.11991e+09 1
000 157 1 0 3.1291e+09 3.12937e+09 3.13039e+09 3.13042e+09 1
001 158 2 0 3.13604e+09 3.13629e+09 3.13731e+09 3.13743e+09 0
000 159 2 0 3.1473e+09 3.14754e+09 3.14856e+09 3.14862e+09 1
000 160 2 0 3.15694e+09 3.15719e+09 3.15821e+09 3.1587e+09 1
000 161 2 1 3.16932e+09 3.16957e+09 3.17059e+09 3.17085e+09 1
001 162 1 0 3.18019e+09 3.18045e+09 3.18147e+09 3.1815e+09 0
001 163 2 0 3.18914e+09 3.1894e+09 3.19042e+09 3.19046e+09 0
000 164 2 1 3.20038e+09 3.20064e+09 3.20166e+09 3.20167e+09 1
001 165 1 0 3.22977e+09 3.23002e+09 3.23104e+09 3.23129e+09 0
001 166 1 1 3.24936e+09 3.24961e+09 3.25063e+09 3.25068e+09 0
000 167 1 1 3.27096e+09 3.2712e+09 3.27222e+09 3.27225e+09 1
000 168 1 0 3.29906e+09 3.29933e+09 3.30035e+09 3.30046e+09 1
001 169 1 0 3.30933e+09 3.30959e+09 3.31061e+09 3.31071e+09 0
001 170 1 1 3.32311e+09 3.32336e+09 3.32438e+09 3.32608e+09 0
000 171 1 0 3.33608e+09 3.33634e+09 3.33736e+09 3.33736e+09 1
001 172 2 1 3.35162e+09 3.35188e+09 3.3529e+09 3.35297e+09 0
001 173 1 1 3.38622e+09 3.38648e+09 3.3875e+09 3.38752e+09 0
000 174 1 0 3.3948e+09 3.39507e+09 3.39609e+09 3.39617e+09 1
001 175 1 0 3.40897e+09 3.40922e+09 3.41025e+09 3.41033e+09 0
001 176 2 1 3.42477e+09 3.42502e+09 3.42604e+09 3.42606e+09 0
001 177 1 1 3.43123e+09 3.43149e+09 3.43251e+09 3.43323e+09 0
000 178 1 0 3.44329e+09 3.44355e+09 3.44457e+09 3.44461e+09 1
001 179 1 0 3.45686e+09 3.45712e+09 3.45814e+09 3.45825e+09 0
001 180 1 0 3.49999e+09 3.50024e+09 3.50126e+09 3.50254e+09 0
001 181 1 0 3.51037e+09 3.51063e+09 3.51165e+09 3.5124e+09 0
001 182 2 0 3.53659e+09 3.53685e+09 3.53787e+09 3.53802e+09 0
000 183 2 0 3.54908e+09 3.54934e+09 3.55036e+09 3.55051e+09 1
000 184 2 0 3.56681e+09 3.56707e+09 3.56809e+09 3.57359e+09 1
000 185 2 0 3.5829e+09 3.58315e+09 3.58417e+09 3.58418e+09 1
000 186 2 1 3.59693e+09 3.59719e+09 3.59821e+09 3.59825e+09 0
001 187 1 0 3.62541e+09 3.62567e+09 3.62669e+09 3.62694e+09 0
001 188 2 0 3.65177e+09 3.65203e+09 3.65305e+09 3.65378e+09 0
000 189 2 0 3.67162e+09 3.67187e+09 3.67289e+09 3.67311e+09 1
000 190 2 0 3.69127e+09 3.69153e+09 3.69255e+09 3.69256e+09 1
000 191 2 0 3.70629e+09 3.70654e+09 3.70756e+09 3.70775e+09 1
000 192 2 1 3.71976e+09 3.72002e+09 3.72104e+09 3.72107e+09 0
001 193 1 0 3.74873e+09 3.74898e+09 3.75e+09 3.75015e+09 0
001 194 1 1 3.77313e+09 3.77339e+09 3.77441e+09 3.77451e+09 0
000 195 1 0 3.78712e+09 3.78738e+09 3.7884e+09 3.7899e+09 1
001 196 1 0 3.80729e+09 3.80755e+09 3.80857e+09 3.811e+09 0
001 197 2 0 3.83506e+09 3.83532e+09 3.83634e+09 3.83635e+09 0
000 198 2 1 3.84442e+09 3.84467e+09 3.84569e+09 3.84628e+09 1
001 199 2 1 3.84896e+09 3.84922e+09 3.85024e+09 3.85031e+09 0
001 200 2 0 3.85988e+09 3.86013e+09 3.86115e+09 3.86129e+09 0
000 201 2 0 3.87285e+09 3.87311e+09 3.87413e+09 3.87415e+09 1
000 202 2 0 3.89004e+09 3.89029e+09 3.89131e+09 3.89131e+09 1
000 203 2 0 3.90325e+09 3.90352e+09 3.90454e+09 3.90514e+09 1
000 204 2 0 3.92754e+09 3.9278e+09 3.92882e+09 3.92966e+09 0
000 205 2 1 3.94293e+09 3.94318e+09 3.9442e+09 3.94455e+09 0
001 206 1 1 3.97261e+09 3.97287e+09 3.97389e+09 3.9743e+09 0
000 207 1 0 3.98566e+09 3.98591e+09 3.98693e+09 3.98694e+09 1
001 208 1 0 3.99334e+09 3.99359e+09 3.99461e+09 3.99516e+09 0
001 209 2 0 3.99907e+09 3.99932e+09 4.00034e+09 4.00036e+09 0
000 210 2 0 4.02045e+09 4.02071e+09 4.02173e+09 4.02185e+09 1
000 211 2 0 4.03096e+09 4.03123e+09 4.03225e+09 4.03266e+09 1
000 212 2 1 4.04578e+09 4.04604e+09 4.04706e+09 4.04711e+09 1
001 213 1 0 4.0566e+09 4.05685e+09 4.05787e+09 4.05809e+09 0
001 214 2 0 4.07172e+09 4.07197e+09 4.07299e+09 4.0733e+09 0
000 215 2 0 4.08267e+09 4.08292e+09 4.08394e+09 4.08399e+09 1
000 216 2 0 4.10555e+09 4.1058e+09 4.10682e+09 4.10684e+09 1
000 217 2 0 4.12497e+09 4.12523e+09 4.12625e+09 4.12642e+09 1
000 218 2 0 4.13877e+09 4.13903e+09 4.14005e+09 4.14014e+09 0
000 219 2 0 4.15108e+09 4.15135e+09 4.15237e+09 4.15283e+09 0
000 220 1 0 4.16283e+09 4.16309e+09 4.16411e+09 4.16412e+09 0
001 221 2 0 4.19532e+09 4.19559e+09 4.19661e+09 4.1967e+09 0
000 222 2 0 4.2074e+09 4.20766e+09 4.20868e+09 4.20869e+09 1
000 223 2 0 4.23572e+09 4.23598e+09 4.237e+09 4.23703e+09 1
000 224 2 0 4.24603e+09 4.24629e+09 4.24731e+09 4.24732e+09 1
000 225 2 0 4.26223e+09 4.26249e+09 4.26351e+09 4.26352e+09 0
000 226 1 0 4.2753e+09 4.27555e+09 4.27657e+09 4.27662e+09 0
001 227 2 0 4.28875e+09 4.28902e+09 4.29004e+09 4.29107e+09 0
000 228 2 0 3.47649e+06 3.7299e+06 4.75018e+06 5.50964e+06 1
000 229 2 0 2.23468e+07 2.26056e+07 2.36259e+07 2.41343e+07 1
000 230 2 0 5.11969e+07 5.14552e+07 5.24755e+07 5.26624e+07 1
000 231 1 0 6.25388e+07 6.28021e+07 6.38224e+07 6.46159e+07 0
001 232 1 0 7.45656e+07 7.48191e+07 7.58394e+07 7.90906e+07 0
001 233 1 1 8.73267e+07 8.75799e+07 8.86002e+07 8.86391e+07 0
000 234 1 0 9.6168e+07 9.64145e+07 9.74347e+07 9.76715e+07 1
001 235 2 0 1.05022e+08 1.05286e+08 1.06306e+08 1.06316e+08 0
000 236 2 1 1.36811e+08 1.37071e+08 1.38091e+08 1.38126e+08 1
001 237 1 0 1.49502e+08 1.49752e+08 1.50772e+08 1.50876e+08 0
001 238 2 0 1.54122e+08 1.54376e+08 1.55397e+08 1.55414e+08 0
000 239 2 0 1.71256e+08 1.71512e+08 1.72532e+08 1.72538e+08 1
000 240 2 0 1.88275e+08 1.88527e+08 1.89547e+08 1.91533e+08 1
000 241 2 0 2.00275e+08 2.00533e+08 2.01554e+08 2.01957e+08 1
000 242 2 0 2.11042e+08 2.11306e+08 2.12326e+08 2.1476e+08 0
000 243 1 0 2.23395e+08 2.23665e+08 2.24686e+08 2.31033e+08 0
001 244 1 0 2.4174e+08 2.41997e+08 2.43017e+08 2.43028e+08 0
001 245 2 0 2.65067e+08 2.65313e+08 2.66334e+08 2.6638e+08 0
000 246 2 0 2.73607e+08 2.73868e+08 2.74888e+08 2.74899e+08 1
000 247 2 1 2.82117e+08 2.82369e+08 2.8339e+08 2.83416e+08 1
001 248 2 1 2.9376e+08 2.94007e+08 2.95028e+08 2.95145e+08 0
001 249 2 0 3.06715e+08 3.06973e+08 3.07994e+08 3.08295e+08 0
000 250 2 0 3.18234e+08 3.18492e+08 3.19512e+08 3.19969e+08 1
000 251 2 1 3.28577e+08 3.28847e+08 3.29867e+08 3.29909e+08 1
001 252 1 0 3.37288e+08 3.3755e+08 3.3857e+08 3.38714e+08 0
001 253 1 1 3.49625e+08 3.49883e+08 3.50903e+08 3.51481e+08 0
000 254 1 0 3.69164e+08 3.69412e+08 3.70433e+08 3.71065e+08 1
001 255 2 0 3.89301e+08 3.8955e+08 3.9057e+08 3.9072e+08 0
000 256 2 0 4.00441e+08 4.00705e+08 4.01725e+08 4.01862e+08 1
000 257 2 0 4.16409e+08 4.16673e+08 4.17693e+08 4.17995e+08 1
000 258 2 0 4.29618e+08 4.29865e+08 4.30886e+08 4.31246e+08 1
000 259 2 1 4.38389e+08 4.3865e+08 4.3967e+08 4.3969e+08 0
001 260 1 1 4.52449e+08 4.5271e+08 4.5373e+08 4.54172e+08 0
000 261 1 0 4.65656e+08 4.65916e+08 4.66936e+08 4.67139e+08 1
001 262 2 0 4.72641e+08 4.72902e+08 4.73922e+08 4.74397e+08 0
000 263 2 0 4.83282e+08 4.83535e+08 4.84555e+08 4.84743e+08 1
000 264 2 1 4.99183e+08 4.99437e+08 5.00457e+08 5.00501e+08 1
001 265 1 0 5.03518e+08 5.03783e+08 5.04803e+08 5.04808e+08 0
001 266 2 0 5.14545e+08 5.14792e+08 5.15812e+08 5.15819e+08 0
000 267 2 0 5.31721e+08 5.31987e+08 5.33007e+08 5.35083e+08 1
000 268 2 0 5.42374e+08 5.42628e+08 5.43648e+08 5.45878e+08 1
000 269 2 0 5.55164e+08 5.55419e+08 5.5644e+08 5.63378e+08 1
000 270 1 0 5.72403e+08 5.72659e+08 5.73679e+08 5.751e+08 0
001 271 1 0 5.81551e+08 5.81806e+08 5.82826e+08 5.82836e+08 0
001 272 2 0 5.90003e+08 5.90256e+08 5.91277e+08 5.92265e+08 0
000 273 2 0 5.99541e+08 5.998e+08 6.0082e+08 6.01017e+08 1
000 274 2 1 6.08307e+08 6.08568e+08 6.09589e+08 6.09603e+08 1
001 275 2 0 6.12169e+08 6.12421e+08 6.13441e+08 6.14222e+08 0
000 276 2 0 6.21345e+08 6.21607e+08 6.22627e+08 6.22922e+08 1
000 277 2 0 6.35982e+08 6.36241e+08 6.37261e+08 6.38922e+08 1
000 278 2 0 6.46817e+08 6.47081e+08 6.48101e+08 6.48499e+08 1
000 279 2 0 6.57968e+08 6.58231e+08 6.59251e+08 6.59256e+08 0
000 280 2 0 6.67035e+08 6.67285e+08 6.68305e+08 6.68432e+08 0
000 281 1 0 6.76439e+08 6.76694e+08 6.77714e+08 6.78209e+08 0
001 282 1 0 6.84672e+08 6.8493e+08 6.85951e+08 6.86345e+08 0
001 283 2 0 6.90302e+08 6.90563e+08 6.91583e+08 6.91624e+08 0
000 284 2 1 6.98945e+08 6.99205e+08 7.00225e+08 7.00263e+08 1
001 285 2 1 7.03644e+08 7.03896e+08 7.04917e+08 7.06933e+08 0
001 286 1 0 7.10784e+08 7.11043e+08 7.12063e+08 7.12069e+08 0
001 287 2 0 7.15471e+08 7.15736e+08 7.16756e+08 7.16763e+08 0
000 288 2 0 7.24962e+08 7.25223e+08 7.26243e+08 7.26294e+08 1
000 289 2 0 7.33964e+08 7.34216e+08 7.35236e+08 7.3845e+08 1
000 290 2 1 7.46177e+08 7.46435e+08 7.47455e+08 7.47483e+08 1
001 291 1 0 7.54271e+08 7.54546e+08 7.55566e+08 7.58596e+08 0
001 292 2 0 7.68635e+08 7.68901e+08 7.69921e+08 7.70184e+08 0
000 293 2 0 7.78501e+08 7.78765e+08 7.79785e+08 7.79789e+08 1
000 294 2 1 7.88391e+08 7.88644e+08 7.89664e+08 7.89761e+08 1
001 295 2 0 7.92705e+08 7.92966e+08 7.93986e+08 7.96145e+08 0
000 296 2 0 8.03288e+08 8.0354e+08 8.0456e+08 8.08425e+08 1
000 297 2 0 8.15741e+08 8.15996e+08 8.17017e+08 8.21905e+08 1
000 298 2 0 8.30703e+08 8.30961e+08 8.31981e+08 8.32176e+08 1
000 299 1 0 8.42493e+08 8.42752e+08 8.43772e+08 8.46172e+08 0
001 300 1 0 8.52887e+08 8.53142e+08 8.54163e+08 8.54169e+08 0
001 301 2 0 8.64148e+08 8.64406e+08 8.65427e+08 8.65529e+08 0
000 302 2 0 8.75488e+08 8.75745e+08 8.76766e+08 8.7723e+08 1
000 303 2 0 8.85875e+08 8.86138e+08 8.87158e+08 8.8733e+08 1
000 304 2 0 8.94739e+08 8.95e+08 8.96021e+08 8.96058e+08 1
000 305 1 0 9.03717e+08 9.03982e+08 9.05003e+08 9.0501e+08 0
001 306 2 0 9.18474e+08 9.18729e+08 9.1975e+08 9.31132e+08 0
000 307 2 1 9.38748e+08 9.39005e+08 9.40025e+08 9.40102e+08 1
001 308 2 0 9.49734e+08 9.49984e+08 9.51004e+08 9.51256e+08 0
000 309 2 0 9.58312e+08 9.58561e+08 9.59582e+08 9.59718e+08 1
000 310 2 0 9.7149e+08 9.71745e+08 9.72765e+08 9.73149e+08 1
000 311 2 0 9.80782e+08 9.81039e+08 9.8206e+08 9.8365e+08 1
000 312 2 0 9.96394e+08 9.96658e+08 9.97678e+08 9.98942e+08 0
000 313 1 1 1.00931e+09 1.00956e+09 1.01059e+09 1.01089e+09 0
000 314 2 0 1.01805e+09 1.0183e+09 1.01932e+09 1.02034e+09 0
000 315 1 1 1.03223e+09 1.03249e+09 1.03351e+09 1.03362e+09 0
000 316 1 0 1.04851e+09 1.04877e+09 1.04979e+09 1.04995e+09 0
001 317 1 0 1.05823e+09 1.05849e+09 1.05951e+09 1.06205e+09 0
001 318 2 0 1.06963e+09 1.06988e+09 1.0709e+09 1.07103e+09 0
000 319 2 0 1.08242e+09 1.08268e+09 1.0837e+09 1.08418e+09 1
000 320 2 0 1.0927e+09 1.09295e+09 1.09397e+09 1.09418e+09 1
000 321 2 0 1.10622e+09 1.10648e+09 1.1075e+09 1.11111e+09 1
000 322 2 0 1.11882e+09 1.11907e+09 1.12009e+09 1.12054e+09 0
000 323 2 0 1.13106e+09 1.13132e+09 1.13234e+09 1.13285e+09 0
000 324 1 0 1.14049e+09 1.14075e+09 1.14177e+09 1.14291e+09 0
001 325 1 0 1.15975e+09 1.16001e+09 1.16103e+09 1.16153e+09 0
001 326 1 0 1.17166e+09 1.17192e+09 1.17294e+09 1.1735e+09 0
001 327 1 1 1.1776e+09 1.17785e+09 1.17887e+09 1.179e+09 0
000 328 1 0 1.18886e+09 1.18912e+09 1.19014e+09 1.19114e+09 1
001 329 1 0 1.19646e+09 1.19671e+09 1.19773e+09 1.19776e+09 0
001 330 1 0 1.20337e+09 1.20363e+09 1.20465e+09 1.2048e+09 0
001 331 2 0 1.21929e+09 1.21956e+09 1.22058e+09 1.26023e+09 0
000 332 2 0 1.27197e+09 1.27223e+09 1.27325e+09 1.27332e+09 1
000 333 2 0 1.28073e+09 1.28099e+09 1.28201e+09 1.28223e+09 1
000 334 2 0 1.28997e+09 1.29024e+09 1.29126e+09 1.29216e+09 1
000 335 1 0 1.29993e+09 1.30019e+09 1.30121e+09 1.30126e+09 0
001 336 2 0 1.30462e+09 1.30487e+09 1.30589e+09 1.30609e+09 0
000 337 2 0 1.31628e+09 1.31655e+09 1.31757e+09 1.32391e+09 1
000 338 2 0 1.33267e+09 1.33293e+09 1.33395e+09 1.33731e+09 1
000 339 2 0 1.34501e+09 1.34527e+09 1.34629e+09 1.34998e+09 1
000 340 2 0 1.35751e+09 1.35777e+09 1.35879e+09 1.3588e+09 0
000 341 1 0 1.36638e+09 1.36663e+09 1.36765e+09 1.36786e+09 0
001 342 1 1 1.37102e+09 1.37128e+09 1.37231e+09 1.37236e+09 0
000 343 1 1 1.37986e+09 1.38011e+09 1.38113e+09 1.38146e+09 1
000 344 1 0 1.38949e+09 1.38974e+09 1.39076e+09 1.39102e+09 1
001 345 2 1 1.40138e+09 1.40164e+09 1.40266e+09 1.40272e+09 0
001 346 1 0 1.41032e+09 1.41057e+09 1.4116e+09 1.41163e+09 0
001 347 1 0 1.4143e+09 1.41457e+09 1.41559e+09 1.41559e+09 0
001 348 2 1 1.42995e+09 1.43022e+09 1.43124e+09 1.43129e+09 0
001 349 1 0 1.43383e+09 1.43409e+09 1.43511e+09 1.43513e+09 0
001 350 1 1 1.43927e+09 1.43953e+09 1.44055e+09 1.44066e+09 0
000 351 1 0 1.4478e+09 1.44806e+09 1.44908e+09 1.45447e+09 1
001 352 2 0 1.45778e+09 1.45803e+09 1.45905e+09 1.46032e+09 0
000 353 2 0 1.47173e+09 1.47198e+09 1.473e+09 1.47304e+09 1
000 354 2 0 1.48043e+09 1.48069e+09 1.48171e+09 1.48199e+09 1
000 355 2 0 1.4926e+09 1.49284e+09 1.49386e+09 1.49595e+09 1
000 356 2 1 1.5163e+09 1.51656e+09 1.51758e+09 1.51764e+09 0
001 357 1 0 1.53076e+09 1.53102e+09 1.53204e+09 1.53364e+09 0
001 358 2 0 1.54156e+09 1.54182e+09 1.54284e+09 1.54293e+09 0
000 359 2 0 1.55019e+09 1.55046e+09 1.55148e+09 1.5516e+09 1
000 360 2 0 1.56059e+09 1.56085e+09 1.56187e+09 1.56189e+09 1
000 361 2 0 1.5702e+09 1.57046e+09 1.57148e+09 1.57151e+09 1
000 362 2 0 1.58954e+09 1.58979e+09 1.59081e+09 1.59082e+09 0
000 363 1 0 1.60457e+09 1.60483e+09 1.60585e+09 1.60588e+09 0
001 364 1 0 1.6118e+09 1.61206e+09 1.61308e+09 1.61566e+09 0
001 365 1 0 1.63492e+09 1.63519e+09 1.63621e+09 1.63822e+09 0
001 366 1 0 1.64657e+09 1.64683e+09 1.64785e+09 1.64832e+09 0
001 367 1 0 1.66888e+09 1.66914e+09 1.67016e+09 1.67022e+09 0
001 368 1 0 1.67688e+09 1.67714e+09 1.67816e+09 1.67823e+09 0
001 369 2 0 1.69556e+09 1.69581e+09 1.69683e+09 1.6973e+09 0
000 370 2 0 1.7059e+09 1.70615e+09 1.70717e+09 1.70722e+09 1
000 371 2 0 1.72861e+09 1.72887e+09 1.7299e+09 1.72999e+09 1
000 372 2 0 1.74118e+09 1.74143e+09 1.74245e+09 1.74246e+09 1
000 373 1 0 1.75322e+09 1.75348e+09 1.7545e+09 1.75455e+09 0
001 374 1 0 1.75806e+09 1.75832e+09 1.75934e+09 1.75934e+09 0
001 375 1 0 1.76392e+09 1.76418e+09 1.7652e+09 1.76526e+09 0
001 376 2 0 1.7688e+09 1.76906e+09 1.77008e+09 1.77239e+09 0
000 377 2 1 1.78451e+09 1.78477e+09 1.78579e+09 1.7866e+09 1
001 378 1 0 1.80399e+09 1.80424e+09 1.80526e+09 1.80756e+09 0
001 379 1 0 1.81364e+09 1.81389e+09 1.81491e+09 1.81519e+09 0
001 380 2 0 1.82243e+09 1.82268e+09 1.8237e+09 1.8237e+09 0
000 381 2 0 1.84e+09 1.84026e+09 1.84128e+09 1.84139e+09 1
000 382 2 0 1.85249e+09 1.85275e+09 1.85377e+09 1.85403e+09 1
000 383 2 0 1.86171e+09 1.86196e+09 1.86298e+09 1.86307e+09 1
000 384 2 0 1.8706e+09 1.87086e+09 1.87188e+09 1.87285e+09 0
000 385 1 0 1.88184e+09 1.8821e+09 1.88313e+09 1.88395e+09 0
001 386 2 0 1.88721e+09 1.88746e+09 1.88848e+09 1.88854e+09 0
000 387 2 0 1.89916e+09 1.89942e+09 1.90044e+09 1.90316e+09 1
000 388 2 1 1.91279e+09 1.91305e+09 1.91407e+09 1.9146e+09 1
001 389 1 0 1.92184e+09 1.92209e+09 1.92311e+09 1.92313e+09 0
001 390 2 0 1.92643e+09 1.92669e+09 1.92771e+09 1.92771e+09 0
000 391 2 0 1.94234e+09 1.9426e+09 1.94362e+09 1.94974e+09 1
000 392 2 0 1.96133e+09 1.96159e+09 1.96261e+09 1.96706e+09 1
000 393 2 0 1.97411e+09 1.97438e+09 1.9754e+09 1.9754e+09 1
000 394 2 0 1.98509e+09 1.98535e+09 1.98637e+09 1.98653e+09 0
000 395 1 0 1.9947e+09 1.99496e+09 1.99598e+09 1.99755e+09 0
001 396 2 1 2.00231e+09 2.00256e+09 2.00358e+09 2.00363e+09 0
001 397 2 1 2.00734e+09 2.0076e+09 2.00862e+09 2.00867e+09 0
001 398 2 1 2.02283e+09 2.02309e+09 2.02411e+09 2.02427e+09 0
001 399 2 0 2.04221e+09 2.04247e+09 2.04349e+09 2.04373e+09 0
000 400 2 0 2.05347e+09 2.05371e+09 2.05473e+09 2.05485e+09 1
000 401 2 0 2.06195e+09 2.0622e+09 2.06322e+09 2.06329e+09 1
000 402 2 0 2.07036e+09 2.07063e+09 2.07165e+09 2.07168e+09 1
000 403 2 0 2.08272e+09 2.08297e+09 2.08399e+09 2.09139e+09 0
000 404 2 0 2.0996e+09 2.09984e+09 2.10086e+09 2.10161e+09 0
000 405 1 0 2.10903e+09 2.10928e+09 2.11031e+09 2.11341e+09 0
001 406 2 0 2.12318e+09 2.12343e+09 2.12445e+09 2.12464e+09 0
000 407 2 0 2.1357e+09 2.13595e+09 2.13697e+09 2.13715e+09 1
000 408 2 1 2.14585e+09 2.1461e+09 2.14712e+09 2.1476e+09 1
001 409 1 0 2.15108e+09 2.15134e+09 2.15236e+09 2.15271e+09 0
001 410 1 0 2.15578e+09 2.15603e+09 2.15705e+09 2.15716e+09 0
001 411 1 0 2.15984e+09 2.1601e+09 2.16112e+09 2.16264e+09 0
001 412 2 0 2.17152e+09 2.17178e+09 2.1728e+09 2.17281e+09 0
000 413 2 0 2.18007e+09 2.18032e+09 2.18134e+09 2.18159e+09 1
000 414 2 0 2.1955e+09 2.19577e+09 2.19679e+09 2.19907e+09 1
000 415 2 0 2.20766e+09 2.20792e+09 2.20894e+09 2.20923e+09 1
000 416 1 0 2.22028e+09 2.22054e+09 2.22156e+09 2.22264e+09 0
001 417 1 0 2.23193e+09 2.23219e+09 2.23321e+09 2.23335e+09 0
001 418 2 0 2.24109e+09 2.24135e+09 2.24237e+09 2.24263e+09 0
000 419 2 1 2.24994e+09 2.2502e+09 2.25122e+09 2.25143e+09 1
001 420 2 0 2.25573e+09 2.25598e+09 2.257e+09 2.25702e+09 0
000 421 2 0 2.26551e+09 2.26577e+09 2.26679e+09 2.26735e+09 1
000 422 2 0 2.27637e+09 2.27664e+09 2.27766e+09 2.27783e+09 1
000 423 2 0 2.28645e+09 2.2867e+09 2.28772e+09 2.28856e+09 1
000 424 2 0 2.29738e+09 2.29765e+09 2.29867e+09 2.30583e+09 0
000 425 1 1 2.31297e+09 2.31323e+09 2.31425e+09 2.31637e+09 0
000 426 2 0 2.32373e+09 2.32399e+09 2.32501e+09 2.33184e+09 0
000 427 2 0 2.33914e+09 2.33939e+09 2.34041e+09 2.34129e+09 0
000 428 2 0 2.35078e+09 2.35103e+09 2.35205e+09 2.35281e+09 0
000 429 1 1 2.36112e+09 2.36137e+09 2.36239e+09 2.36254e+09 0
000 430 2 0 2.37096e+09 2.37122e+09 2.37224e+09 2.37265e+09 0
000 431 2 0 2.38276e+09 2.38301e+09 2.38403e+09 2.38417e+09 0
000 432 1 0 2.39198e+09 2.39225e+09 2.39327e+09 2.39389e+09 0
001 433 1 0 2.40111e+09 2.40137e+09 2.40239e+09 2.40254e+09 0
001 434 1 0 2.40647e+09 2.40673e+09 2.40775e+09 2.40844e+09 0
001 435 2 1 2.42501e+09 2.42527e+09 2.42629e+09 2.42655e+09 0
001 436 1 0 2.42939e+09 2.42964e+09 2.43066e+09 2.43088e+09 0
001 437 1 0 2.43358e+09 2.43384e+09 2.43486e+09 2.43495e+09 0
001 438 2 1 2.43789e+09 2.43815e+09 2.43917e+09 2.43955e+09 0
001 439 2 0 2.44669e+09 2.44694e+09 2.44796e+09 2.44797e+09 0
000 440 2 1 2.45502e+09 2.45528e+09 2.4563e+09 2.45701e+09 1
001 441 1 0 2.45957e+09 2.45983e+09 2.46085e+09 2.46275e+09 0
001 442 1 0 2.46987e+09 2.47012e+09 2.47114e+09 2.47812e+09 0
001 443 2 0 2.4815e+09 2.48176e+09 2.48278e+09 2.48289e+09 0
000 444 2 0 2.49004e+09 2.4903e+09 2.49132e+09 2.49199e+09 1
000 445 2 0 2.50509e+09 2.50535e+09 2.50637e+09 2.50648e+09 1
000 446 2 0 2.51357e+09 2.51383e+09 2.51485e+09 2.5153e+09 1
000 447 1 0 2.52368e+09 2.52393e+09 2.52495e+09 2.52519e+09 0
001 448 1 1 2.52818e+09 2.52843e+09 2.52945e+09 2.52953e+09 0
000 449 1 0 2.53897e+09 2.53922e+09 2.54024e+09 2.54179e+09 1
001 450 2 0 2.54557e+09 2.54584e+09 2.54686e+09 2.54687e+09 0
000 451 2 1 2.55408e+09 2.55433e+09 2.55535e+09 2.55548e+09 1
001 452 2 0 2.56343e+09 2.56369e+09 2.56471e+09 2.56479e+09 0
000 453 2 0 2.57644e+09 2.5767e+09 2.57772e+09 2.57846e+09 1
000 454 2 0 2.58559e+09 2.58583e+09 2.58685e+09 2.58713e+09 1
000 455 2 0 2.59445e+09 2.59471e+09 2.59573e+09 2.60009e+09 1
000 456 1 0 2.60995e+09 2.61021e+09 2.61123e+09 2.61272e+09 0
001 457 1 0 2.61671e+09 2.61697e+09 2.61799e+09 2.61803e+09 0
001 458 2 0 2.62236e+09 2.62261e+09 2.62363e+09 2.62375e+09 0
000 459 2 0 2.63381e+09 2.63407e+09 2.63509e+09 2.64003e+09 1
000 460 2 0 2.64741e+09 2.64765e+09 2.64867e+09 2.65173e+09 1
000 461 2 0 2.66397e+09 2.66423e+09 2.66525e+09 2.66713e+09 1
000 462 1 0 2.67635e+09 2.67661e+09 2.67763e+09 2.67801e+09 0
001 463 1 1 2.68396e+09 2.68422e+09 2.68524e+09 2.68605e+09 0
000 464 1 0 2.6936e+09 2.69387e+09 2.69489e+09 2.70814e+09 1
001 465 2 0 2.7156e+09 2.71585e+09 2.71687e+09 2.71767e+09 0
000 466 2 0 2.72525e+09 2.72551e+09 2.72653e+09 2.72656e+09 1
000 467 2 0 2.73406e+09 2.73431e+09 2.73533e+09 2.73574e+09 1
000 468 2 0 2.74307e+09 2.74332e+09 2.74434e+09 2.75168e+09 1
000 469 1 0 2.76013e+09 2.76039e+09 2.76141e+09 2.76151e+09 0
001 470 1 0 2.76478e+09 2.76503e+09 2.76605e+09 2.7664e+09 0
001 471 1 0 2.77472e+09 2.77497e+09 2.77599e+09 2.78139e+09 0
001 472 2 0 2.78409e+09 2.78435e+09 2.78537e+09 2.78561e+09 0
000 473 2 0 2.7958e+09 2.79606e+09 2.79708e+09 2.80051e+09 1
000 474 2 0 2.80788e+09 2.80813e+09 2.80915e+09 2.80931e+09 1
000 475 2 0 2.81913e+09 2.81938e+09 2.8204e+09 2.8255e+09 1
000 476 2 0 2.83435e+09 2.8346e+09 2.83562e+09 2.83574e+09 0
000 477 1 0 2.84581e+09 2.84606e+09 2.84708e+09 2.85201e+09 0
001 478 2 0 2.85492e+09 2.85517e+09 2.85619e+09 2.85625e+09 0
000 479 2 0 2.86359e+09 2.86384e+09 2.86486e+09 2.86527e+09 1
000 480 2 0 2.87372e+09 2.87398e+09 2.875e+09 2.87506e+09 1
000 481 2 0 2.88244e+09 2.8827e+09 2.88372e+09 2.88693e+09 1
000 482 1 0 2.90324e+09 2.90349e+09 2.90451e+09 2.91409e+09 0
001 483 1 0 2.91753e+09 2.91779e+09 2.91881e+09 2.91882e+09 0
001 484 2 0 2.9244e+09 2.92465e+09 2.92567e+09 2.9261e+09 0
000 485 2 0 2.93832e+09 2.93858e+09 2.9396e+09 2.94001e+09 1
000 