trial trialType response stillTime stimOnset stimOffset respTime correctionTrial correct
001 1 0 3.18977e+06 3.50754e+06 4.52783e+06 1.24117e+08 0
001 002 1 0 1.26619e+08 1.26894e+08 1.27915e+08 1.29072e+08 0
001 003 2 0 1.31384e+08 1.3167e+08 1.3269e+08 1.43475e+08 0
000 004 2 0 1.53762e+08 1.54048e+08 1.55068e+08 1.57456e+08 1
000 005 2 0 1.66311e+08 1.66556e+08 1.67576e+08 1.77185e+08 1
000 006 2 0 1.84493e+08 1.84741e+08 1.85761e+08 6.49463e+08 1
000 007 2 1 6.57602e+08 6.57862e+08 6.58882e+08 6.61882e+08 0
001 008 1 1 6.71424e+08 6.71677e+08 6.72698e+08 6.74954e+08 0
000 009 1 1 6.87066e+08 6.87318e+08 6.88338e+08 6.88367e+08 1
000 010 1 1 7.20999e+08 7.2126e+08 7.2228e+08 7.22305e+08 1
000 011 1 1 7.34412e+08 7.3467e+08 7.3569e+08 7.36545e+08 1
000 012 2 1 7.44589e+08 7.44846e+08 7.45867e+08 7.46809e+08 0
001 013 1 0 7.72402e+08 7.72648e+08 7.73668e+08 7.73769e+08 0
001 014 1 0 7.7632e+08 7.7657e+08 7.7759e+08 7.77594e+08 0
001 015 1 0 7.87717e+08 7.8798e+08 7.89e+08 7.89049e+08 0
001 016 1 0 7.9472e+08 7.94974e+08 7.95994e+08 7.96255e+08 0
001 017 2 0 7.9881e+08 7.99056e+08 8.00076e+08 8.00134e+08 0
000 018 2 1 8.29445e+08 8.29711e+08 8.30731e+08 8.31819e+08 1
001 019 2 0 8.36274e+08 8.36522e+08 8.37542e+08 8.37658e+08 0
000 020 2 0 8.48876e+08 8.49138e+08 8.50158e+08 8.50165e+08 1
000 021 2 1 8.60657e+08 8.60917e+08 8.61937e+08 8.61943e+08 1
001 022 1 0 8.64336e+08 8.64587e+08 8.65607e+08 8.65611e+08 0
001 023 2 1 8.73046e+08 8.73301e+08 8.74321e+08 8.74544e+08 0
001 024 2 0 8.78893e+08 8.79155e+08 8.80175e+08 8.80552e+08 0
000 025 2 0 8.93322e+08 8.93579e+08 8.94599e+08 8.94845e+08 1
000 026 2 1 9.04233e+08 9.04478e+08 9.05499e+08 9.05506e+08 1
001 027 2 0 9.09464e+08 9.09717e+08 9.10737e+08 9.10955e+08 0
000 028 2 0 9.18274e+08 9.18518e+08 9.19539e+08 9.19575e+08 1
000 029 2 1 9.27814e+08 9.28065e+08 9.29085e+08 9.29102e+08 1
001 030 1 1 9.41838e+08 9.42098e+08 9.43118e+08 9.43401e+08 0
000 031 1 0 9.55854e+08 9.56107e+08 9.57127e+08 9.57153e+08 1
001 032 1 1 9.66631e+08 9.66884e+08 9.67904e+08 9.69333e+08 0
000 033 1 0 9.77051e+08 9.77314e+08 9.78334e+08 9.79546e+08 1
001 034 2 0 9.86509e+08 9.86756e+08 9.87776e+08 9.88115e+08 0
000 035 2 1 9.98716e+08 9.98965e+08 9.99985e+08 1.00052e+09 1
001 036 2 1 1.01077e+09 1.01103e+09 1.01205e+09 1.01206e+09 0
001 037 2 0 1.02163e+09 1.02188e+09 1.0229e+09 1.02292e+09 0
000 038 2 0 1.03228e+09 1.03254e+09 1.03356e+09 1.03357e+09 1
000 039 2 0 1.04384e+09 1.0441e+09 1.04512e+09 1.0452e+09 1
000 040 2 1 1.05525e+09 1.05549e+09 1.05651e+09 1.05753e+09 1
001 041 2 1 1.09726e+09 1.09751e+09 1.09853e+09 1.10472e+09 0
001 042 2 1 1.119e+09 1.11926e+09 1.12028e+09 1.12079e+09 0
001 043 2 1 1.13535e+09 1.13559e+09 1.13661e+09 1.13662e+09 0
001 044 1 1 1.1458e+09 1.14606e+09 1.14708e+09 1.14711e+09 0
000 045 1 0 1.16365e+09 1.1639e+09 1.16492e+09 1.16515e+09 1
001 046 1 1 1.1734e+09 1.17364e+09 1.17466e+09 1.17467e+09 0
000 047 1 0 1.18193e+09 1.18219e+09 1.18321e+09 1.18785e+09 1
001 048 2 1 1.2023e+09 1.20256e+09 1.20358e+09 1.20436e+09 0
001 049 1 1 1.20669e+09 1.20695e+09 1.20797e+09 1.21006e+09 0
000 050 1 0 1.22225e+09 1.2225e+09 1.22352e+09 1.22391e+09 1
001 051 2 1 1.22989e+09 1.23015e+09 1.23117e+09 1.2312e+09 0
001 052 1 1 1.24007e+09 1.24032e+09 1.24134e+09 1.24137e+09 0
000 053 1 1 1.255e+09 1.25526e+09 1.25628e+09 1.2564e+09 1
000 054 1 0 1.27096e+09 1.27123e+09 1.27225e+09 1.27238e+09 1
001 055 1 0 1.28092e+09 1.28117e+09 1.28219e+09 1.2829e+09 0
001 056 1 0 1.30972e+09 1.30999e+09 1.31101e+09 1.31197e+09 0
001 057 2 0 1.31561e+09 1.31587e+09 1.31689e+09 1.31693e+09 0
000 058 2 0 1.33098e+09 1.33124e+09 1.33226e+09 1.33228e+09 1
000 059 2 1 1.33964e+09 1.33991e+09 1.34093e+09 1.34093e+09 1
001 060 2 0 1.36793e+09 1.36819e+09 1.36921e+09 1.36955e+09 0
000 061 2 1 1.37734e+09 1.37759e+09 1.37861e+09 1.37868e+09 1
001 062 1 1 1.39916e+09 1.39942e+09 1.40044e+09 1.40142e+09 0
000 063 1 0 1.40849e+09 1.40875e+09 1.40977e+09 1.40994e+09 1
001 064 1 1 1.41268e+09 1.41294e+09 1.41396e+09 1.41493e+09 0
000 065 1 0 1.42951e+09 1.42977e+09 1.43079e+09 1.43345e+09 1
001 066 1 0 1.43593e+09 1.43619e+09 1.43721e+09 1.43806e+09 0
001 067 1 1 1.4722e+09 1.47247e+09 1.47349e+09 1.47618e+09 0
000 068 1 1 1.48611e+09 1.48639e+09 1.48741e+09 1.48782e+09 1
000 069 1 1 1.49897e+09 1.49923e+09 1.50025e+09 1.50091e+09 1
000 070 1 0 1.50838e+09 1.50864e+09 1.50966e+09 1.51007e+09 1
001 071 2 1 1.51853e+09 1.5188e+09 1.51982e+09 1.51983e+09 0
001 072 1 0 1.53353e+09 1.53379e+09 1.53481e+09 1.53556e+09 0
001 073 2 0 1.53809e+09 1.53834e+09 1.53936e+09 1.54037e+09 0
000 074 2 1 1.55175e+09 1.55199e+09 1.55301e+09 1.55379e+09 1
001 075 1 0 1.56058e+09 1.56083e+09 1.56186e+09 1.56362e+09 0
001 076 1 0 1.56737e+09 1.56763e+09 1.56865e+09 1.56875e+09 0
001 077 2 1 1.57348e+09 1.57373e+09 1.57476e+09 1.58004e+09 0
001 078 2 1 1.58255e+09 1.58282e+09 1.58384e+09 1.58666e+09 0
001 079 2 0 1.58925e+09 1.58951e+09 1.59053e+09 1.59055e+09 0
000 080 2 1 1.59803e+09 1.59829e+09 1.59931e+09 1.60403e+09 1
001 081 2 1 1.60799e+09 1.60826e+09 1.60928e+09 1.60958e+09 0
001 082 1 1 1.61182e+09 1.61208e+09 1.6131e+09 1.61311e+09 0
000 083 1 0 1.6233e+09 1.62357e+09 1.62459e+09 1.62469e+09 1
001 084 1 0 1.6278e+09 1.62807e+09 1.62909e+09 1.63213e+09 0
001 085 2 0 1.63429e+09 1.63455e+09 1.63557e+09 1.64246e+09 0
000 086 2 0 1.65259e+09 1.65286e+09 1.65388e+09 1.65413e+09 1
000 087 2 0 1.67396e+09 1.67422e+09 1.67524e+09 1.67535e+09 1
000 088 2 1 1.68605e+09 1.68631e+09 1.68733e+09 1.68736e+09 1
001 089 1 1 1.6943e+09 1.69455e+09 1.69557e+09 1.6956e+09 0
000 090 1 0 1.70529e+09 1.70555e+09 1.70657e+09 1.70657e+09 1
001 091 2 0 1.71516e+09 1.71542e+09 1.71644e+09 1.7181e+09 0
000 092 2 1 1.72582e+09 1.72608e+09 1.7271e+09 1.72866e+09 1
001 093 2 0 1.73642e+09 1.73668e+09 1.7377e+09 1.73791e+09 0
000 094 2 1 1.74739e+09 1.74764e+09 1.74866e+09 1.74936e+09 1
001 095 1 0 1.75337e+09 1.75363e+09 1.75465e+09 1.75482e+09 0
001 096 2 0 1.75922e+09 1.75948e+09 1.7605e+09 1.76068e+09 0
000 097 2 1 1.77095e+09 1.77121e+09 1.77223e+09 1.77329e+09 1
001 098 1 0 1.77608e+09 1.77634e+09 1.77736e+09 1.77896e+09 0
001 099 2 1 1.79671e+09 1.79696e+09 1.79798e+09 1.79803e+09 0
001 100 1 0 1.80737e+09 1.80763e+09 1.80865e+09 1.80893e+09 0
001 101 2 0 1.81145e+09 1.8117e+09 1.81272e+09 1.81775e+09 0
000 102 2 1 1.82604e+09 1.82631e+09 1.82733e+09 1.82756e+09 1
001 103 2 1 1.83008e+09 1.83035e+09 1.83137e+09 1.83138e+09 0
001 104 2 1 1.8347e+09 1.83496e+09 1.83598e+09 1.83602e+09 0
001 105 2 0 1.83863e+09 1.83889e+09 1.83991e+09 1.83993e+09 0
000 106 2 0 1.84732e+09 1.84757e+09 1.84859e+09 1.85285e+09 1
000 107 2 1 1.8629e+09 1.86316e+09 1.86418e+09 1.86622e+09 1
001 108 2 0 1.86877e+09 1.86903e+09 1.87005e+09 1.87068e+09 0
000 109 2 1 1.878e+09 1.87827e+09 1.87929e+09 1.87971e+09 1
001 110 1 0 1.89553e+09 1.89578e+09 1.8968e+09 1.89704e+09 0
001 111 1 1 1.89982e+09 1.90009e+09 1.90111e+09 1.90163e+09 0
000 112 1 0 1.9129e+09 1.91316e+09 1.91418e+09 1.91441e+09 1
001 113 1 0 1.9168e+09 1.91705e+09 1.91807e+09 1.91985e+09 0
001 114 2 1 1.92217e+09 1.92244e+09 1.92346e+09 1.92347e+09 0
001 115 1 0 1.92602e+09 1.92628e+09 1.9273e+09 1.92803e+09 0
001 116 2 1 1.93047e+09 1.93073e+09 1.93175e+09 1.93695e+09 0
001 117 1 0 1.94002e+09 1.94027e+09 1.94129e+09 1.94502e+09 0
001 118 2 0 1.94876e+09 1.94901e+09 1.95003e+09 1.95044e+09 0
000 119 2 1 1.96188e+09 1.96213e+09 1.96315e+09 1.96316e+09 1
001 120 1 1 1.97327e+09 1.97352e+09 1.97454e+09 1.97455e+09 0
000 121 1 0 1.98184e+09 1.9821e+09 1.98312e+09 1.98318e+09 1
001 122 1 0 1.99664e+09 1.99689e+09 1.99791e+09 2.00101e+09 0
001 123 1 1 2.01061e+09 2.01086e+09 2.01188e+09 2.01189e+09 0
000 124 1 0 2.01894e+09 2.0192e+09 2.02022e+09 2.02042e+09 1
001 125 1 0 2.02296e+09 2.02321e+09 2.02423e+09 2.02634e+09 0
001 126 1 1 2.03068e+09 2.03094e+09 2.03196e+09 2.03288e+09 0
000 127 1 1 2.04463e+09 2.04489e+09 2.04591e+09 2.04592e+09 1
000 128 1 1 2.0587e+09 2.05896e+09 2.05998e+09 2.06006e+09 1
000 129 1 0 2.07513e+09 2.07539e+09 2.07641e+09 2.07642e+09 1
001 130 2 0 2.07958e+09 2.07983e+09 2.08085e+09 2.08226e+09 0
000 131 2 1 2.0921e+09 2.09235e+09 2.09337e+09 2.09341e+09 1
001 132 1 0 2.09595e+09 2.0962e+09 2.09722e+09 2.09738e+09 0
001 133 2 0 2.10116e+09 2.10141e+09 2.10243e+09 2.10473e+09 0
000 134 2 0 2.11212e+09 2.11237e+09 2.11339e+09 2.11942e+09 1
000 135 2 1 2.12671e+09 2.12696e+09 2.12798e+09 2.12862e+09 1
001 136 2 0 2.13263e+09 2.13289e+09 2.13391e+09 2.13403e+09 0
000 137 2 1 2.15054e+09 2.1508e+09 2.15182e+09 2.15257e+09 1
001 138 1 0 2.15493e+09 2.1552e+09 2.15622e+09 2.15819e+09 0
001 139 1 1 2.16059e+09 2.16085e+09 2.16187e+09 2.16215e+09 0
000 140 1 1 2.17675e+09 2.17701e+09 2.17803e+09 2.17804e+09 1
000 141 1 1 2.18625e+09 2.1865e+09 2.18752e+09 2.18766e+09 1
000 142 1 1 2.19674e+09 2.19699e+09 2.19801e+09 2.19871e+09 1
000 143 1 1 2.20683e+09 2.20709e+09 2.20811e+09 2.20909e+09 0
000 144 1 1 2.21847e+09 2.21873e+09 2.21975e+09 2.21998e+09 0
000 145 1 0 2.2332e+09 2.23346e+09 2.23448e+09 2.23467e+09 0
001 146 2 0 2.24432e+09 2.24458e+09 2.2456e+09 2.24565e+09 0
000 147 2 0 2.25332e+09 2.25358e+09 2.2546e+09 2.25549e+09 1
000 148 2 1 2.26782e+09 2.26807e+09 2.26909e+09 2.2692e+09 1
001 149 1 1 2.27643e+09 2.27669e+09 2.27771e+09 2.27894e+09 0
000 150 1 1 2.28867e+09 2.28892e+09 2.28994e+09 2.29078e+09 1
000 151 1 1 2.29999e+09 2.30026e+09 2.30128e+09 2.30462e+09 1
000 152 1 1 2.31251e+09 2.31276e+09 2.31378e+09 2.31453e+09 1
000 153 2 1 2.32904e+09 2.32929e+09 2.33031e+09 2.33045e+09 0
001 154 2 0 2.33723e+09 2.33749e+09 2.33851e+09 2.33959e+09 0
000 155 2 0 2.34708e+09 2.34733e+09 2.34835e+09 2.36037e+09 1
000 156 2 1 2.36817e+09 2.36842e+09 2.36944e+09 2.3695e+09 1
001 157 2 1 2.37304e+09 2.3733e+09 2.37432e+09 2.3783e+09 0
001 158 2 1 2.38071e+09 2.38096e+09 2.38198e+09 2.38474e+09 0
001 159 1 0 2.3893e+09 2.38956e+09 2.39058e+09 2.3917e+09 0
001 160 1 0 2.39928e+09 2.39954e+09 2.40056e+09 2.40056e+09 0
001 161 2 1 2.4074e+09 2.40766e+09 2.40868e+09 2.40869e+09 0
001 162 2 1 2.41085e+09 2.4111e+09 2.41212e+09 2.41824e+09 0
001 163 2 0 2.4207e+09 2.42096e+09 2.42198e+09 2.42267e+09 0
000 164 2 1 2.43952e+09 2.43979e+09 2.44081e+09 2.44263e+09 1
001 165 1 0 2.44576e+09 2.44601e+09 2.44703e+09 2.4471e+09 0
001 166 2 1 2.45e+09 2.45026e+09 2.45128e+09 2.46347e+09 0
001 167 1 0 2.47023e+09 2.47049e+09 2.47151e+09 2.4721e+09 0
001 168 2 1 2.47473e+09 2.47499e+09 2.47601e+09 2.47625e+09 0
001 169 2 0 2.47938e+09 2.47965e+09 2.48067e+09 2.48174e+09 0
000 170 2 0 2.4888e+09 2.48906e+09 2.49008e+09 2.4901e+09 1
000 171 2 1 2.50464e+09 2.5049e+09 2.50592e+09 2.50626e+09 1
001 172 1 0 2.50953e+09 2.50978e+09 2.5108e+09 2.51081e+09 0
001 173 1 0 2.51937e+09 2.51962e+09 2.52064e+09 2.52106e+09 0
001 174 1 1 2.52553e+09 2.5258e+09 2.52682e+09 2.52735e+09 0
000 175 1 0 2.53502e+09 2.53528e+09 2.5363e+09 2.5392e+09 1
001 176 2 1 2.54854e+09 2.5488e+09 2.54982e+09 2.5499e+09 0
001 177 1 1 2.55549e+09 2.55575e+09 2.55677e+09 2.55678e+09 0
000 178 1 0 2.56809e+09 2.56835e+09 2.56937e+09 2.56957e+09 1
001 179 2 1 2.57244e+09 2.5727e+09 2.57372e+09 2.57379e+09 0
001 180 1 1 2.59622e+09 2.59649e+09 2.59751e+09 2.59804e+09 0
000 181 1 0 2.60546e+09 2.60572e+09 2.60674e+09 2.60773e+09 1
001 182 2 0 2.6101e+09 2.61036e+09 2.61138e+09 2.61139e+09 0
000 183 2 1 2.61886e+09 2.61912e+09 2.62014e+09 2.62014e+09 1
001 184 1 1 2.62274e+09 2.623e+09 2.62402e+09 2.62403e+09 0
000 185 1 1 2.63286e+09 2.63312e+09 2.63414e+09 2.6397e+09 1
000 186 1 0 2.65089e+09 2.65115e+09 2.65217e+09 2.65219e+09 1
001 187 1 1 2.6588e+09 2.65906e+09 2.66008e+09 2.66009e+09 0
000 188 1 1 2.6675e+09 2.66776e+09 2.66878e+09 2.66936e+09 1
000 189 1 0 2.67742e+09 2.67768e+09 2.6787e+09 2.67983e+09 1
001 190 2 0 2.68242e+09 2.68267e+09 2.68369e+09 2.68385e+09 0
000 191 2 0 2.69103e+09 2.69128e+09 2.6923e+09 2.69446e+09 1
000 192 2 0 2.70711e+09 2.70737e+09 2.70839e+09 2.7098e+09 1
000 193 2 1 2.71852e+09 2.71878e+09 2.7198e+09 2.72038e+09 1
001 194 1 1 2.72328e+09 2.72353e+09 2.72455e+09 2.72456e+09 0
000 195 1 1 2.73511e+09 2.73535e+09 2.73637e+09 2.73698e+09 1
000 196 1 1 2.74614e+09 2.74639e+09 2.74741e+09 2.74879e+09 1
000 197 1 1 2.75587e+09 2.75613e+09 2.75715e+09 2.76154e+09 1
000 198 1 1 2.76863e+09 2.76889e+09 2.76991e+09 2.77397e+09 0
000 199 1 1 2.78492e+09 2.78516e+09 2.78618e+09 2.78627e+09 0
000 200 1 1 2.79352e+09 2.79377e+09 2.79479e+09 2.7951e+09 0
000 201 2 1 2.80744e+09 2.80769e+09 2.80871e+09 2.80906e+09 0
001 202 1 1 2.81875e+09 2.81901e+09 2.82003e+09 2.82005e+09 0
000 203 1 1 2.82745e+09 2.8277e+09 2.82872e+09 2.83902e+09 1
000 204 1 1 2.84848e+09 2.84874e+09 2.84976e+09 2.8499e+09 1
000 205 1 1 2.8596e+09 2.85985e+09 2.86087e+09 2.86612e+09 1
000 206 2 1 2.87506e+09 2.87532e+09 2.87634e+09 2.87944e+09 0
001 207 2 1 2.88209e+09 2.88234e+09 2.88336e+09 2.88493e+09 0
001 208 1 1 2.89551e+09 2.89577e+09 2.89679e+09 2.89957e+09 0
000 209 1 0 2.9087e+09 2.90895e+09 2.90997e+09 2.91019e+09 1
001 210 1 1 2.9276e+09 2.92785e+09 2.92887e+09 2.92889e+09 0
000 211 1 0 2.9378e+09 2.93806e+09 2.93908e+09 2.93909e+09 1
001 212 1 1 2.94129e+09 2.94155e+09 2.94257e+09 2.94274e+09 0
000 213 1 0 2.95274e+09 2.95299e+09 2.95401e+09 2.95404e+09 1
001 214 1 0 2.95642e+09 2.95669e+09 2.95771e+09 2.95806e+09 0
001 215 1 1 2.96145e+09 2.9617e+09 2.96272e+09 2.96296e+09 0
000 216 1 1 2.97513e+09 2.97538e+09 2.9764e+09 2.97754e+09 1
000 217 1 1 2.98488e+09 2.98513e+09 2.98615e+09 2.992e+09 1
000 218 1 1 3.00159e+09 3.00185e+09 3.00287e+09 3.00292e+09 1
000 219 2 1 3.0105e+09 3.01075e+09 3.01177e+09 3.01185e+09 0
001 220 1 1 3.01413e+09 3.01439e+09 3.01541e+09 3.01556e+09 0
000 221 1 1 3.03186e+09 3.03211e+09 3.03313e+09 3.0334e+09 1
000 222 1 1 3.04349e+09 3.04373e+09 3.04475e+09 3.04599e+09 1
000 223 1 1 3.05437e+09 3.05462e+09 3.05564e+09 3.05678e+09 1
000 224 2 1 3.06641e+09 3.06667e+09 3.06769e+09 3.06836e+09 0
001 225 1 1 3.07079e+09 3.07105e+09 3.07207e+09 3.07236e+09 0
000 226 1 1 3.07984e+09 3.08009e+09 3.08111e+09 3.08264e+09 1
000 227 1 1 3.09316e+09 3.09341e+09 3.09443e+09 3.0956e+09 1
000 228 1 1 3.10391e+09 3.10417e+09 3.10519e+09 3.10667e+09 1
000 229 2 1 3.11382e+09 3.11408e+09 3.1151e+09 3.11552e+09 0
001 230 1 1 3.12303e+09 3.12329e+09 3.12431e+09 3.12432e+09 0
000 231 1 1 3.13393e+09 3.13418e+09 3.1352e+09 3.13577e+09 1
000 232 1 0 3.144e+09 3.14425e+09 3.14527e+09 3.1474e+09 1
001 233 1 1 3.15235e+09 3.15261e+09 3.15363e+09 3.15446e+09 0
000 234 1 1 3.16397e+09 3.16423e+09 3.16525e+09 3.16843e+09 1
000 235 1 1 3.17675e+09 3.177e+09 3.17802e+09 3.1792e+09 1
000 236 1 1 3.18654e+09 3.1868e+09 3.18782e+09 3.18826e+09 1
000 237 2 1 3.19886e+09 3.19911e+09 3.20013e+09 3.20024e+09 0
001 238 1 1 3.20241e+09 3.20266e+09 3.20368e+09 3.2037e+09 0
000 239 1 1 3.2138e+09 3.21406e+09 3.21508e+09 3.21516e+09 1
000 240 1 1 3.22247e+09 3.22272e+09 3.22375e+09 3.23475e+09 1
000 241 1 1 3.24195e+09 3.24221e+09 3.24323e+09 3.25294e+09 1
000 242 2 0 3.26093e+09 3.26119e+09 3.26221e+09 3.26231e+09 0
000 243 1 1 3.27281e+09 3.27306e+09 3.27408e+09 3.27414e+09 0
000 244 2 1 3.28245e+09 3.28273e+09 3.28375e+09 3.28479e+09 0
001 245 1 1 3.29021e+09 3.29046e+09 3.29148e+09 3.31046e+09 0
000 246 1 1 3.33042e+09 3.33066e+09 3.33168e+09 3.3319e+09 1
000 247 1 1 3.33912e+09 3.33938e+09 3.3404e+09 3.34083e+09 1
000 248 1 1 3.34833e+09 3.34858e+09 3.3496e+09 3.3517e+09 1
000 249 2 1 3.35935e+09 3.3596e+09 3.36062e+09 3.36275e+09 0
001 250 1 0 3.36574e+09 3.366e+09 3.36702e+09 3.36712e+09 0
001 251 1 0 3.37464e+09 3.3749e+09 3.37592e+09 3.37595e+09 0
001 252 2 0 3.37826e+09 3.37851e+09 3.37953e+09 3.38012e+09 0
000 253 2 1 3.388e+09 3.38826e+09 3.38928e+09 3.3898e+09 1
001 254 1 1 3.39246e+09 3.39272e+09 3.39374e+09 3.39428e+09 0
000 255 1 0 3.405e+09 3.40525e+09 3.40628e+09 3.40628e+09 1
001 256 1 1 3.40897e+09 3.40923e+09 3.41025e+09 3.41067e+09 0
000 257 1 0 3.41918e+09 3.41943e+09 3.42045e+09 3.42048e+09 1
001 258 2 1 3.42313e+09 3.42338e+09 3.4244e+09 3.42441e+09 0
001 259 2 1 3.4282e+09 3.42846e+09 3.42948e+09 3.43114e+09 0
001 260 1 1 3.44436e+09 3.44463e+09 3.44565e+09 3.44658e+09 0
000 261 1 1 3.45605e+09 3.4563e+09 3.45732e+09 3.46076e+09 1
000 262 1 1 3.47062e+09 3.47088e+09 3.4719e+09 3.47191e+09 1
000 263 1 0 3.48463e+09 3.48489e+09 3.48591e+09 3.48784e+09 1
001 264 2 0 3.49018e+09 3.49045e+09 3.49147e+09 3.4915e+09 0
000 265 2 1 3.49896e+09 3.4992e+09 3.50022e+09 3.50179e+09 1
001 266 2 1 3.50466e+09 3.50491e+09 3.50593e+09 3.50664e+09 0
001 267 2 0 3.50885e+09 3.50911e+09 3.51013e+09 3.51038e+09 0
000 268 2 1 3.52146e+09 3.52171e+09 3.52273e+09 3.52274e+09 1
001 269 2 1 3.52564e+09 3.52589e+09 3.52691e+09 3.52751e+09 0
001 270 2 1 3.52971e+09 3.52996e+09 3.53098e+09 3.53109e+09 0
001 271 2 1 3.53689e+09 3.53715e+09 3.53817e+09 3.53821e+09 0
001 272 1 0 3.54074e+09 3.54099e+09 3.54201e+09 3.54265e+09 0
001 273 2 1 3.55252e+09 3.55277e+09 3.55379e+09 3.55424e+09 0
001 274 1 1 3.55665e+09 3.55691e+09 3.55793e+09 3.55906e+09 0
000 275 1 0 3.56625e+09 3.5665e+09 3.56752e+09 3.56779e+09 1
001 276 2 0 3.57279e+09 3.57305e+09 3.57407e+09 3.57453e+09 0
000 277 2 1 3.58478e+09 3.58503e+09 3.58605e+09 3.5861e+09 1
001 278 2 0 3.58903e+09 3.58929e+09 3.59031e+09 3.59088e+09 0
000 279 2 0 3.59797e+09 3.59823e+09 3.59925e+09 3.60245e+09 1
000 280 2 1 3.61119e+09 3.61144e+09 3.61246e+09 3.61358e+09 1
001 281 2 1 3.61834e+09 3.6186e+09 3.61962e+09 3.62114e+09 0
001 282 2 0 3.62398e+09 3.62423e+09 3.62525e+09 3.62529e+09 0
000 283 2 1 3.6378e+09 3.63805e+09 3.63907e+09 3.63987e+09 1
001 284 1 1 3.65212e+09 3.65238e+09 3.6534e+09 3.65441e+09 0
000 285 1 1 3.66451e+09 3.66476e+09 3.66578e+09 3.66651e+09 1
000 286 1 1 3.67629e+09 3.67654e+09 3.67756e+09 3.6776e+09 1
000 287 1 1 3.68852e+09 3.68878e+09 3.6898e+09 3.69032e+09 1
000 288 2 1 3.70126e+09 3.70151e+09 3.70253e+09 3.70257e+09 0
001 289 2 0 3.70511e+09 3.70536e+09 3.70638e+09 3.70819e+09 0
000 290 2 1 3.72e+09 3.72025e+09 3.72127e+09 3.72143e+09 1
001 291 2 0 3.7238e+09 3.72406e+09 3.72508e+09 3.72575e+09 0
000 292 2 1 3.73379e+09 3.73404e+09 3.73506e+09 3.81643e+09 1
001 293 2 1 3.82545e+09 3.8257e+09 3.82672e+09 3.82737e+09 0
001 294 1 1 3.83667e+09 3.83692e+09 3.83794e+09 3.83795e+09 0
000 295 1 1 3.84544e+09 3.84571e+09 3.84673e+09 3.84694e+09 1
000 296 1 1 3.85451e+09 3.85477e+09 3.85579e+09 3.86083e+09 1
000 297 1 1 3.87035e+09 3.8706e+09 3.87162e+09 3.87238e+09 1
000 298 1 1 3.88129e+09 3.88155e+09 3.88257e+09 3.885e+09 0
000 299 2 1 3.89484e+09 3.8951e+09 3.89612e+09 3.90383e+09 0
001 300 2 1 3.90796e+09 3.90822e+09 3.90924e+09 3.90926e+09 0
001 301 1 0 3.91179e+09 3.91205e+09 3.91307e+09 3.91332e+09 0
001 302 1 0 3.91629e+09 3.91654e+09 3.91756e+09 3.91926e+09 0
001 303 2 0 3.92277e+09 3.92303e+09 3.92405e+09 3.92448e+09 0
000 304 2 1 3.93342e+09 3.93367e+09 3.93469e+09 3.93501e+09 1
001 305 1 1 3.93757e+09 3.93784e+09 3.93886e+09 3.94003e+09 0
000 306 1 1 3.9475e+09 3.94775e+09 3.94877e+09 3.94969e+09 1
000 307 1 1 3.96302e+09 3.96328e+09 3.9643e+09 3.96435e+09 1
000 308 1 1 3.97293e+09 3.97318e+09 3.9742e+09 3.97776e+09 1
000 309 1 1 3.98735e+09 3.98761e+09 3.98863e+09 3.98884e+09 0
000 310 1 1 3.99648e+09 3.99674e+09 3.99776e+09 3.99828e+09 0
000 311 1 1 4.00918e+09 4.00943e+09 4.01045e+09 4.01047e+09 0
000 312 2 1 4.02033e+09 4.02058e+09 4.0216e+09 4.02445e+09 0
001 313 1 1 4.03362e+09 4.03388e+09 4.0349e+09 4.03977e+09 0
000 314 1 0 4.04852e+09 4.04878e+09 4.0498e+09 4.05071e+09 1
001 315 1 1 4.05707e+09 4.05733e+09 4.05835e+09 4.05865e+09 0
000 316 1 1 4.06742e+09 4.06766e+09 4.06868e+09 4.06871e+09 1
000 317 1 1 4.08517e+09 4.08543e+09 4.08645e+09 4.08828e+09 1
000 318 1 1 4.09575e+09 4.09601e+09 4.09703e+09 4.09955e+09 1
000 319 1 1 4.10856e+09 4.10882e+09 4.10984e+09 4.11309e+09 0
000 320 1 1 4.12228e+09 4.12254e+09 4.12356e+09 4.12475e+09 0
000 321 2 1 4.13215e+09 4.13241e+09 4.13343e+09 4.13862e+09 0
001 322 2 1 4.14214e+09 4.14239e+09 4.14341e+09 4.14345e+09 0
001 323 2 0 4.14646e+09 4.14672e+09 4.14774e+09 4.14774e+09 0
000 324 2 1 4.16116e+09 4.16142e+09 4.16244e+09 4.16448e+09 1
001 325 2 0 4.17064e+09 4.17089e+09 4.17191e+09 4.17192e+09 0
000 326 2 1 4.18117e+09 4.18142e+09 4.18244e+09 4.18245e+09 1
001 327 2 1 4.19719e+09 4.19745e+09 4.19847e+09 4.19912e+09 0
001 328 1 1 4.20192e+09 4.20218e+09 4.2032e+09 4.2032e+09 0
000 329 1 1 4.21274e+09 4.213e+09 4.21402e+09 4.21404e+09 1
000 330 1 1 4.22327e+09 4.22353e+09 4.22455e+09 4.2246e+09 1
000 331 1 1 4.23381e+09 4.23406e+09 4.23508e+09 4.23509e+09 1
000 332 1 0 4.24675e+09 4.24701e+09 4.24803e+09 4.24821e+09 0
001 333 2 1 4.25096e+09 4.25121e+09 4.25223e+09 4.25357e+09 0
001 334 1 0 4.2566e+09 4.25686e+09 4.25788e+09 4.25841e+09 0
001 335 2 0 4.26093e+09 4.26118e+09 4.2622e+09 4.26224e+09 0
000 336 2 1 4.27079e+09 4.27105e+09 4.27208e+09 4.27211e+09 1
001 337 2 0 4.27455e+09 4.27481e+09 4.27583e+09 4.27585e+09 0
000 338 2 1 4.29363e+09 4.29389e+09 4.29491e+09 3.47756e+06 1
001 339 2 1 1.30202e+07 1.32718e+07 1.42921e+07 1.42998e+07 0
001 340 1 1 1.76292e+07 1.78912e+07 1.89115e+07 1.91315e+07 0
000 341 1 1 4.71788e+07 4.74263e+07 4.84466e+07 4.84541e+07 1
000 342 1 1 5.57107e+07 5.59774e+07 5.69977e+07 5.80235e+07 1
000 343 1 1 6.83387e+07 6.85911e+07 6.96114e+07 7.14114e+07 1
000 344 2 1 8.3199e+07 8.34572e+07 8.44775e+07 8.45901e+07 0
001 345 2 0 8.68567e+07 8.71096e+07 8.81299e+07 8.92947e+07 0
000 346 2 0 9.65622e+07 9.68184e+07 9.78387e+07 9.81224e+07 1
000 347 2 1 1.06412e+08 1.06673e+08 1.07693e+08 1.11203e+08 1
001 348 2 1 1.13792e+08 1.14047e+08 1.15067e+08 1.15152e+08 0
001 349 2 0 1.17364e+08 1.1761e+08 1.1863e+08 1.19189e+08 0
000 350 2 0 1.26575e+08 1.26828e+08 1.27849e+08 1.27915e+08 1
000 351 2 0 1.3507e+08 1.35322e+08 1.36342e+08 1.37295e+08 1
000 352 2 0 1.45952e+08 1.46213e+08 1.47234e+08 1.47241e+08 1
000 353 1 1 1.56002e+08 1.56262e+08 1.57282e+08 1.57365e+08 0
000 354 1 0 1.71165e+08 1.71409e+08 1.7243e+08 1.7258e+08 0
001 355 1 1 1.80794e+08 1.81051e+08 1.82071e+08 1.82079e+08 0
000 356 1 0 1.97705e+08 1.97948e+08 1.98968e+08 1.99384e+08 1
001 357 2 0 2.01894e+08 2.02141e+08 2.03161e+08 2.03559e+08 0
000 358 2 1 2.11037e+08 2.11286e+08 2.12306e+08 2.12313e+08 1
001 359 2 1 2.14716e+08 2.14973e+08 2.15994e+08 2.18796e+08 0
001 360 1 0 2.20985e+08 2.21234e+08 2.22254e+08 2.22711e+08 0
001 361 2 1 2.39529e+08 2.39776e+08 2.40796e+08 2.41017e+08 0
001 362 1 1 2.43762e+08 2.44023e+08 2.45043e+08 2.45049e+08 0
000 363 1 1 2.55805e+08 2.56054e+08 2.57074e+08 2.57149e+08 1
000 364 1 0 2.64649e+08 2.64906e+08 2.65926e+08 2.6666e+08 1
001 365 1 1 2.80304e+08 2.80554e+08 2.81574e+08 2.81588e+08 0
000 366 1 1 2.911e+08 2.91353e+08 2.92374e+08 2.92379e+08 1
000 367 1 1 3.00959e+08 3.0121e+08 3.0223e+08 3.04833e+08 1
000 368 1 1 3.15824e+08 3.16071e+08 3.17091e+08 3.17506e+08 1
000 369 1 1 3.26481e+08 3.26733e+08 3.27753e+08 3.27797e+08 0
000 370 1 1 3.37043e+08 3.37296e+08 3.38316e+08 3.39305e+08 0
000 371 1 0 3.46872e+08 3.47117e+08 3.48138e+08 3.48217e+08 0
001 372 2 1 3.60835e+08 3.61093e+08 3.62114e+08 3.62127e+08 0
001 373 1 0 3.65053e+08 3.65312e+08 3.66332e+08 3.66408e+08 0
001 374 2 0 3.69602e+08 3.69851e+08 3.70871e+08 3.70877e+08 0
000 375 2 1 3.79699e+08 3.79954e+08 3.80974e+08 3.82403e+08 1
001 376 1 0 3.85034e+08 3.85279e+08 3.86299e+08 3.8632e+08 0
001 377 1 0 3.98047e+08 3.98302e+08 3.99322e+08 3.9961e+08 0
001 378 1 1 4.02214e+08 4.02473e+08 4.03493e+08 4.03498e+08 0
000 379 1 0 4.12505e+08 4.12764e+08 4.13784e+08 4.13875e+08 1
001 380 1 0 4.16178e+08 4.16434e+08 4.17454e+08 4.18827e+08 0
001 381 2 0 4.3398e+08 4.34227e+08 4.35248e+08 4.35251e+08 0
000 382 2 1 4.42383e+08 4.42632e+08 4.43652e+08 4.44101e+08 1
001 383 2 1 4.4667e+08 4.46927e+08 4.47947e+08 4.47963e+08 0
001 384 1 1 4.59696e+08 4.5995e+08 4.6097e+08 4.62353e+08 0
000 385 1 0 4.69831e+08 4.70097e+08 4.71117e+08 4.7171e+08 1
001 386 2 1 4.74112e+08 4.74396e+08 4.75416e+08 4.76376e+08 0
001 387 2 0 4.79018e+08 4.79281e+08 4.80301e+08 4.80305e+08 0
000 388 2 1 4.88359e+08 4.88613e+08 4.89634e+08 4.91191e+08 1
001 389 1 1 4.93766e+08 4.94017e+08 4.95038e+08 4.95063e+08 0
000 390 1 1 5.02113e+08 5.02373e+08 5.03393e+08 5.03401e+08 1
000 391 1 1 5.11349e+08 5.11606e+08 5.12626e+08 5.12723e+08 1
000 392 1 0 5.20012e+08 5.20271e+08 5.21292e+08 5.22166e+08 1
001 393 1 1 5.2435e+08 5.24609e+08 5.2563e+08 5.26152e+08 0
000 394 1 1 5.35166e+08 5.35413e+08 5.36433e+08 5.3804e+08 1
000 395 1 1 5.52012e+08 5.52256e+08 5.53276e+08 5.53312e+08 1
000 396 1 1 5.6077e+08 5.61029e+08 5.62049e+08 5.62074e+08 1
000 397 2 0 5.73917e+08 5.74173e+08 5.75193e+08 5.75267e+08 0
000 398 2 0 5.87198e+08 5.87449e+08 5.88469e+08 5.88497e+08 0
000 399 1 1 6.02747e+08 6.02997e+08 6.04017e+08 6.04614e+08 0
000 400 1 1 6.14676e+08 6.14931e+08 6.15952e+08 6.17533e+08 0
000 401 2 1 6.28856e+08 6.29121e+08 6.30141e+08 6.30151e+08 0
001 402 2 0 6.3267e+08 6.32917e+08 6.33937e+08 6.34041e+08 0
000 403 2 1 6.43276e+08 6.43528e+08 6.44548e+08 6.44559e+08 1
001 404 2 1 6.6227e+08 6.62532e+08 6.63552e+08 6.63639e+08 0
001 405 2 0 6.66192e+08 6.6644e+08 6.6746e+08 6.67532e+08 0
000 406 2 1 6.76229e+08 6.76487e+08 6.77507e+08 6.77704e+08 1
001 407 1 1 6.91883e+08 6.92137e+08 6.93158e+08 6.96748e+08 0
000 408 1 1 7.04486e+08 7.04731e+08 7.05752e+08 7.06081e+08 1
000 409 1 1 7.13154e+08 7.13411e+08 7.14431e+08 7.2167e+08 1
000 410 1 1 7.3065e+08 7.30906e+08 7.31926e+08 7.32482e+08 1
000 411 2 1 7.45206e+08 7.45456e+08 7.46477e+08 7.46637e+08 0
001 412 1 1 7.59256e+08 7.59515e+08 7.60536e+08 7.60549e+08 0
000 413 1 0 7.71145e+08 7.71402e+08 7.72423e+08 7.72429e+08 1
001 414 1 1 7.75181e+08 7.75441e+08 7.76461e+08 7.76529e+08 0
000 415 1 1 7.84693e+08 7.84952e+08 7.85973e+08 7.86023e+08 1
000 416 1 0 7.95475e+08 7.95733e+08 7.96753e+08 7.96767e+08 1
001 417 1 0 7.99702e+08 7.9995e+08 8.0097e+08 8.00984e+08 0
001 418 1 1 8.05778e+08 8.0603e+08 8.0705e+08 8.0781e+08 0
000 419 1 1 8.15586e+08 8.15836e+08 8.16856e+08 8.16964e+08 1
000 420 1 0 8.25855e+08 8.26101e+08 8.27122e+08 8.27305e+08 1
001 421 2 1 8.30172e+08 8.30418e+08 8.31438e+08 8.31446e+08 0
001 422 1 1 8.40356e+08 8.4061e+08 8.4163e+08 8.43867e+08 0
000 423 1 1 8.51654e+08 8.51908e+08 8.52929e+08 8.53003e+08 1
000 424 1 1 8.60319e+08 8.60574e+08 8.61594e+08 8.62216e+08 1
000 425 1 1 8.71753e+08 8.7201e+08 8.7303e+08 8.73459e+08 1
000 426 2 1 8.80624e+08 8.80884e+08 8.81904e+08 8.94037e+08 0
001 427 1 1 8.96312e+08 8.9657e+08 8.97591e+08 8.97846e+08 0
000 428 1 1 9.09054e+08 9.09297e+08 9.10317e+08 9.1034e+08 1
000 429 1 0 9.20474e+08 9.2073e+08 9.21751e+08 9.21769e+08 1
001 430 1 1 9.24552e+08 9.24799e+08 9.2582e+08 9.26849e+08 0
000 431 1 1 9.38949e+08 9.39199e+08 9.40219e+08 9.40741e+08 1
000 432 1 1 9.48077e+08 9.48334e+08 9.49354e+08 9.53213e+08 1
000 433 1 1 9.60578e+08 9.60838e+08 9.61858e+08 9.66074e+08 1
000 434 1 1 9.73258e+08 9.73511e+08 9.74532e+08 9.76228e+08 0
000 435 1 1 9.8434e+08 9.84593e+08 9.85614e+08 9.8989e+08 0
000 436 2 1 9.97461e+08 9.97709e+08 9.98729e+08 1.0015e+09 0
001 437 2 1 1.0106e+09 1.01086e+09 1.01188e+09 1.01189e+09 0
001 438 1 1 1.01987e+09 1.02014e+09 1.02116e+09 1.02253e+09 0
000 439 1 1 1.03753e+09 1.03777e+09 1.03879e+09 1.03888e+09 1
000 440 1 0 1.0483e+09 1.04855e+09 1.04957e+09 1.04963e+09 1
001 441 2 1 1.05271e+09 1.05295e+09 1.05397e+09 1.05399e+09 0
001 442 2 1 1.0646e+09 1.06486e+09 1.06588e+09 1.06588e+09 0
001 443 2 1 1.07768e+09 1.07792e+09 1.07894e+09 1.07903e+09 0
001 444 2 0 1.08565e+09 1.08591e+09 1.08693e+09 1.08697e+09 0
000 445 2 1 1.09509e+09 1.09534e+09 1.09636e+09 1.09794e+09 1
001 446 1 0 1.10415e+09 1.1044e+09 1.10542e+09 1.10555e+09 0
001 447 2 0 1.10805e+09 1.1083e+09 1.10932e+09 1.10937e+09 0
000 448 2 1 1.11859e+09 1.11884e+09 1.11986e+09 1.12305e+09 1
001 449 2 0 1.12607e+09 1.12632e+09 1.12734e+09 1.1279e+09 0
000 450 2 1 1.13688e+09 1.13714e+09 1.13816e+09 1.13993e+09 1
001 451 2 1 1.15394e+09 1.15419e+09 1.15521e+09 1.15597e+09 0
001 452 2 1 1.15903e+09 1.15928e+09 1.1603e+09 1.16031e+09 0
001 453 2 1 1.16343e+09 1.16369e+09 1.16471e+09 1.16581e+09 0
001 454 2 0 1.16809e+09 1.16834e+09 1.16936e+09 1.17063e+09 0
000 455 2 1 1.18119e+09 1.18144e+09 1.18246e+09 1.18403e+09 1
001 456 1 1 1.19128e+09 1.19153e+09 1.19255e+09 1.19274e+09 0
000 457 1 1 1.21061e+09 1.21085e+09 1.21187e+09 1.21197e+09 1
000 458 1 1 1.22059e+09 1.22083e+09 1.22185e+09 1.2221e+09 1
000 459 1 1 1.2337e+09 1.23395e+09 1.23497e+09 1.24241e+09 1
000 460 1 1 1.25696e+09 1.25722e+09 1.25824e+09 1.26189e+09 0
000 461 1 1 1.27444e+09 1.2747e+09 1.27572e+09 1.27647e+09 0
000 462 1 1 1.2837e+09 1.28396e+09 1.28498e+09 1.2858e+09 0
000 463 2 1 1.30589e+09 1.30613e+09 1.30715e+09 1.30718e+09 0
001 464 2 1 1.32912e+09 1.32937e+09 1.33039e+09 1.33094e+09 0
001 465 1 1 1.34285e+09 1.34309e+09 1.34411e+09 1.34412e+09 0
000 466 1 0 1.35389e+09 1.35415e+09 1.35517e+09 1.35529e+09 1
001 467 1 1 1.35764e+09 1.35789e+09 1.35892e+09 1.35937e+09 0
000 468 1 1 1.37162e+09 1.37187e+09 1.37289e+09 1.37305e+09 1
000 469 1 0 1.38808e+09 1.38833e+09 1.38935e+09 1.38941e+09 1
001 470 2 1 1.39346e+09 1.39373e+09 1.39475e+09 1.39537e+09 0
001 471 2 1 1.4059e+09 1.40616e+09 1.40718e+09 1.40721e+09 0
001 472 2 1 1.41803e+09 1.41828e+09 1.4193e+09 1.41959e+09 0
001 473 2 1 1.42213e+09 1.42239e+09 1.42341e+09 1.42387e+09 0
001 474 1 1 1.43999e+09 1.44024e+09 1.44126e+09 1.44505e+09 0
000 475 1 1 1.45501e+09 1.45526e+09 1.45628e+09 1.45629e+09 1
000 476 1 1 1.46718e+09 1.46744e+09 1.46846e+09 1.46864e+09 1
000 477 1 0 1.48256e+09 1.48283e+09 1.48385e+09 1.48403e+09 1
001 478 2 1 1.50028e+09 1.50053e+09 1.50155e+09 1.50157e+09 0
001 479 1 0 1.50471e+09 1.50497e+09 1.50599e+09 1.50601e+09 0
001 480 2 1 1.51633e+09 1.51658e+09 1.5176e+09 1.52044e+09 0
001 481 1 0 1.52285e+09 1.52311e+09 1.52413e+09 1.5247e+09 0
001 482 2 0 1.52693e+09 1.52718e+09 1.5282e+09 1.52869e+09 0
000 483 2 1 1.5367e+09 1.53695e+09 1.53797e+09 1.53799e+09 1
001 484 1 1 1.54062e+09 1.54087e+09 1.54189e+09 1.54293e+09 0
000 485 1 1 1.55583e+09 1.55608e+09 1.5571e+09 1.55991e+09 1
000 486 1 1 1.5693e+09 1.56956e+09 1.57058e+09 1.57153e+09 1
000 487 1 1 1.58136e+09 1.58162e+09 1.58264e+09 1.58326e+09 1
000 488 2 0 1.59567e+09 1.59592e+09 1.59694e+09 1.59725e+09 0
000 489 2 1 1.60553e+09 1.60578e+09 1.6068e+09 1.60681e+09 0
001 490 2 1 1.61392e+09 1.61417e+09 1.61519e+09 1.61985e+09 0
001 491 1 1 1.62243e+09 1.62269e+09 1.62371e+09 1.62403e+09 0
000 492 1 1 1.63115e+09 1.63141e+09 1.63243e+09 1.63793e+09 1
000 493 1 1 1.64518e+09 1.64543e+09 1.64645e+09 1.64774e+09 1
000 494 1 1 1.65792e+09 1.65819e+09 1.65921e+09 1.65968e+09 1
000 495 1 1 1.6709e+09 1.67116e+09 1.67218e+09 1.6729e+09 0
000 496 2 1 1.68035e+09 1.68062e+09 1.68164e+09 1.68165e+09 0
001 497 1 0 1.68524e+09 1.6855e+09 1.68652e+09 1.68682e+09 0
001 498 2 1 1.69427e+09 1.69452e+09 1.69554e+09 1.69593e+09 0
001 499 1 1 1.7064e+09 1.70666e+09 1.70768e+09 1.70772e+09 0
000 500 1 0 1.72121e+09 1.72147e+09 1.72249e+09 1.72251e+09 1
001 501 2 1 1.72669e+09 1.72694e+09 1.72796e+09 1.72872e+09 0
001 502 2 1 1.73528e+09 1.73553e+09 1.73655e+09 1.73665e+09 0
001 503 2 1 1.74644e+09 1.7467e+09 1.74772e+09 1.74773e+09 0
001 504 1 0 1.75241e+09 1.75267e+09 1.75369e+09 1.75383e+09 0
001 505 1 1 1.76203e+09 1.76228e+09 1.7633e+09 1.76343e+09 0
000 506 1 0 1.77547e+09 1.77573e+09 1.77675e+09 1.77679e+09 1
001 507 2 0 1.78858e+09 1.78884e+09 1.78986e+09 1.78991e+09 0
000 508 2 1 1.79853e+09 1.79879e+09 1.79981e+09 1.80167e+09 1
001 509 1 0 1.80491e+09 1.80517e+09 1.80619e+09 1.80625e+09 0
001 510 1 1 1.81008e+09 1.81033e+09 1.81135e+09 1.8114e+09 0
000 511 1 0 1.82404e+09 1.82429e+09 1.82531e+09 1.82733e+09 1
001 512 1 1 1.82996e+09 1.83022e+09 1.83124e+09 2.25153e+09 0
000 513 1 1 2.26482e+09 2.26507e+09 2.26609e+09 2.26628e+09 1
000 