trial trialType response stillTime stimOnset stimOffset respTime correctionTrial correct
001 2 1 1.5742e+07 1.6067e+07 1.70873e+07 1.72008e+07 0
001 002 1 0 2.48832e+07 2.51594e+07 2.61797e+07 2.61975e+07 0
001 003 2 1 2.88871e+07 2.9168e+07 3.01883e+07 3.05861e+07 0
001 004 2 1 3.48611e+07 3.51147e+07 3.6135e+07 3.61405e+07 0
001 005 1 0 9.78012e+07 9.80614e+07 9.90817e+07 9.91021e+07 0
001 006 1 1 1.0796e+08 1.08229e+08 1.09249e+08 1.09491e+08 0
000 007 1 1 1.20258e+08 1.20519e+08 1.2154e+08 1.22349e+08 1
000 008 1 1 1.31738e+08 1.32009e+08 1.3303e+08 1.33038e+08 1
000 009 1 0 1.57424e+08 1.5768e+08 1.58701e+08 1.58848e+08 1
001 010 2 1 1.65413e+08 1.65666e+08 1.66686e+08 1.66703e+08 0
001 011 1 1 1.7338e+08 1.7364e+08 1.7466e+08 1.76127e+08 0
000 012 1 1 1.84158e+08 1.84422e+08 1.85442e+08 1.85448e+08 1
000 013 1 0 1.95571e+08 1.95828e+08 1.96848e+08 1.96868e+08 1
001 014 2 1 2.03732e+08 2.03994e+08 2.05014e+08 2.06491e+08 0
001 015 1 0 2.26217e+08 2.2647e+08 2.2749e+08 2.28737e+08 0
001 016 2 1 2.37801e+08 2.38063e+08 2.39083e+08 2.39111e+08 0
001 017 2 1 2.53911e+08 2.54177e+08 2.55198e+08 2.55211e+08 0
001 018 2 0 2.66716e+08 2.66983e+08 2.68003e+08 2.78304e+08 0
000 019 2 1 2.91101e+08 2.9136e+08 2.9238e+08 2.92391e+08 1
001 020 2 1 3.06932e+08 3.07194e+08 3.08214e+08 3.08738e+08 0
001 021 2 1 3.16199e+08 3.16457e+08 3.17477e+08 3.17484e+08 0
001 022 2 1 3.23597e+08 3.2386e+08 3.24881e+08 3.25335e+08 0
001 023 1 1 3.33363e+08 3.3361e+08 3.3463e+08 3.35217e+08 0
000 024 1 1 3.68257e+08 3.68509e+08 3.69529e+08 3.69956e+08 1
000 025 1 1 4.15614e+08 4.1587e+08 4.1689e+08 4.17468e+08 1
000 026 1 1 4.25844e+08 4.26104e+08 4.27124e+08 4.2912e+08 1
000 027 2 1 4.39152e+08 4.39409e+08 4.4043e+08 4.42899e+08 0
001 028 1 1 4.56056e+08 4.56318e+08 4.57339e+08 4.57484e+08 0
000 029 1 1 4.70612e+08 4.70876e+08 4.71896e+08 4.71903e+08 1
000 030 1 0 4.79262e+08 4.79517e+08 4.80537e+08 4.80569e+08 1
001 031 1 0 4.98701e+08 4.98961e+08 4.99981e+08 5.0036e+08 0
001 032 2 1 5.08531e+08 5.08783e+08 5.09803e+08 5.09818e+08 0
001 033 2 1 5.19286e+08 5.1955e+08 5.2057e+08 5.20606e+08 0
001 034 1 1 5.27327e+08 5.27586e+08 5.28606e+08 5.34108e+08 0
000 035 1 0 5.41458e+08 5.41715e+08 5.42735e+08 5.43987e+08 1
001 036 2 1 5.52286e+08 5.52542e+08 5.53563e+08 5.58046e+08 0
001 037 1 1 5.70414e+08 5.7067e+08 5.7169e+08 5.75946e+08 0
000 038 1 1 5.83858e+08 5.84119e+08 5.85139e+08 5.89723e+08 1
000 039 1 1 5.99288e+08 5.99545e+08 6.00566e+08 6.07788e+08 1
000 040 1 0 6.15152e+08 6.15418e+08 6.16438e+08 6.22839e+08 1
001 041 2 0 6.29736e+08 6.29997e+08 6.31018e+08 6.32984e+08 0
000 042 2 1 6.40202e+08 6.40452e+08 6.41472e+08 6.4181e+08 1
001 043 2 1 6.47634e+08 6.479e+08 6.4892e+08 6.82164e+08 0
001 044 1 0 7.32852e+08 7.33108e+08 7.34128e+08 7.36281e+08 0
001 045 1 1 7.4028e+08 7.40533e+08 7.41553e+08 7.62499e+08 0
000 046 1 0 7.71984e+08 7.72239e+08 7.73259e+08 7.73886e+08 1
001 047 1 1 7.77669e+08 7.77922e+08 7.78942e+08 8.00803e+08 0
000 048 1 1 8.08031e+08 8.08289e+08 8.09309e+08 8.11051e+08 1
000 049 1 1 8.23479e+08 8.2373e+08 8.2475e+08 8.25683e+08 1
000 050 1 0 8.34776e+08 8.35029e+08 8.36049e+08 8.36097e+08 1
001 051 1 1 8.40473e+08 8.40751e+08 8.41771e+08 8.42658e+08 0
000 052 1 1 8.60696e+08 8.60952e+08 8.61972e+08 8.62064e+08 1
000 053 1 0 8.7131e+08 8.71561e+08 8.72581e+08 8.75836e+08 1
001 054 2 1 8.85638e+08 8.85887e+08 8.86908e+08 9.03195e+08 0
001 055 2 1 9.05939e+08 9.06198e+08 9.07218e+08 9.08483e+08 0
001 056 1 1 9.11895e+08 9.12142e+08 9.13163e+08 9.15343e+08 0
000 057 1 1 9.2262e+08 9.2288e+08 9.23901e+08 9.26253e+08 1
000 058 1 1 9.34417e+08 9.3468e+08 9.357e+08 9.35937e+08 1
000 059 1 0 9.43484e+08 9.43741e+08 9.44761e+08 9.46014e+08 1
001 060 1 1 1.01167e+09 1.01194e+09 1.01296e+09 1.01385e+09 0
000 061 1 1 1.023e+09 1.02326e+09 1.02428e+09 1.02429e+09 1
000 062 1 0 1.03721e+09 1.03746e+09 1.03848e+09 1.03922e+09 1
001 063 2 0 1.04549e+09 1.04576e+09 1.04678e+09 1.0468e+09 0
000 064 2 0 1.05707e+09 1.05733e+09 1.05835e+09 1.05841e+09 1
000 065 2 1 1.06733e+09 1.06758e+09 1.0686e+09 1.06862e+09 1
001 066 2 1 1.07645e+09 1.0767e+09 1.07772e+09 1.08045e+09 0
001 067 2 0 1.08412e+09 1.08437e+09 1.08539e+09 1.08545e+09 0
000 068 2 0 1.10403e+09 1.10429e+09 1.10531e+09 1.10634e+09 1
000 069 2 0 1.11728e+09 1.11754e+09 1.11856e+09 1.11937e+09 1
000 070 2 1 1.12774e+09 1.12799e+09 1.12901e+09 1.12902e+09 1
001 071 1 1 1.13179e+09 1.13206e+09 1.13308e+09 1.13339e+09 0
000 072 1 1 1.14091e+09 1.14118e+09 1.1422e+09 1.15171e+09 1
000 073 1 1 1.15889e+09 1.15914e+09 1.16016e+09 1.16754e+09 1
000 074 1 1 1.1746e+09 1.17485e+09 1.17587e+09 1.21979e+09 1
000 075 2 1 1.23047e+09 1.23072e+09 1.23174e+09 1.23175e+09 0
001 076 2 0 1.243e+09 1.24326e+09 1.24428e+09 1.24429e+09 0
000 077 2 0 1.25562e+09 1.25587e+09 1.25689e+09 1.2569e+09 1
000 078 2 0 1.26396e+09 1.26422e+09 1.26524e+09 1.26526e+09 1
000 079 2 0 1.28361e+09 1.28387e+09 1.28489e+09 1.28491e+09 1
000 080 1 1 1.29317e+09 1.29342e+09 1.29444e+09 1.29445e+09 0
000 081 2 0 1.30218e+09 1.30243e+09 1.30345e+09 1.30438e+09 0
000 082 1 0 1.31322e+09 1.31347e+09 1.3145e+09 1.31568e+09 0
001 083 2 1 1.32406e+09 1.32431e+09 1.32533e+09 1.3255e+09 0
001 084 2 1 1.32893e+09 1.32918e+09 1.3302e+09 1.33021e+09 0
001 085 1 0 1.33792e+09 1.33816e+09 1.33918e+09 1.33942e+09 0
001 086 1 1 1.34322e+09 1.34348e+09 1.3445e+09 1.36287e+09 0
000 087 1 1 1.3724e+09 1.37266e+09 1.37368e+09 1.37372e+09 1
000 088 1 0 1.38162e+09 1.38187e+09 1.38289e+09 1.38331e+09 1
001 089 2 1 1.38737e+09 1.38762e+09 1.38864e+09 1.38864e+09 0
001 090 2 1 1.39143e+09 1.39169e+09 1.39271e+09 1.39333e+09 0
001 091 1 1 1.39611e+09 1.39637e+09 1.39739e+09 1.41813e+09 0
000 092 1 0 1.4253e+09 1.42554e+09 1.42657e+09 1.53966e+09 1
001 093 2 1 1.54308e+09 1.54333e+09 1.54435e+09 1.58318e+09 0
001 094 1 1 1.58638e+09 1.58665e+09 1.58767e+09 1.59388e+09 0
000 095 1 1 1.60118e+09 1.60143e+09 1.60245e+09 1.67114e+09 1
000 096 1 1 1.6802e+09 1.68046e+09 1.68148e+09 1.68712e+09 1
000 097 1 0 1.6986e+09 1.69885e+09 1.69987e+09 1.71105e+09 1
001 098 2 0 1.72015e+09 1.7204e+09 1.72142e+09 1.72202e+09 0
000 099 2 1 1.73538e+09 1.73563e+09 1.73665e+09 1.73713e+09 1
001 100 2 1 1.74123e+09 1.74148e+09 1.7425e+09 1.74357e+09 0
001 101 1 0 1.7475e+09 1.74777e+09 1.74879e+09 1.74936e+09 0
001 102 1 1 1.75276e+09 1.75302e+09 1.75404e+09 1.75412e+09 0
000 103 1 0 1.76268e+09 1.76294e+09 1.76396e+09 1.76472e+09 1
001 104 1 1 1.76835e+09 1.7686e+09 1.76962e+09 1.76967e+09 0
000 105 1 1 1.77887e+09 1.77912e+09 1.78014e+09 1.78166e+09 1
000 106 1 0 1.79406e+09 1.79432e+09 1.79534e+09 1.79567e+09 1
001 107 2 0 1.79953e+09 1.79979e+09 1.80081e+09 1.80153e+09 0
000 108 2 0 1.8143e+09 1.81455e+09 1.81557e+09 1.81572e+09 1
000 109 2 0 1.82755e+09 1.82781e+09 1.82883e+09 1.83191e+09 1
000 110 2 0 1.83934e+09 1.8396e+09 1.84062e+09 1.84711e+09 1
000 111 2 1 1.85431e+09 1.85457e+09 1.85559e+09 1.85652e+09 0
001 112 1 0 1.86021e+09 1.86047e+09 1.86149e+09 1.86315e+09 0
001 113 2 0 1.867e+09 1.86727e+09 1.86829e+09 1.87055e+09 0
000 114 2 1 1.88129e+09 1.88155e+09 1.88257e+09 1.88418e+09 1
001 115 1 1 1.8892e+09 1.88945e+09 1.89047e+09 1.89082e+09 0
000 116 1 0 1.90077e+09 1.90102e+09 1.90204e+09 1.90206e+09 1
001 117 2 1 1.90548e+09 1.90573e+09 1.90675e+09 1.90754e+09 0
001 118 1 0 1.91127e+09 1.91151e+09 1.91254e+09 1.9127e+09 0
001 119 1 0 1.91616e+09 1.91642e+09 1.91744e+09 1.91746e+09 0
001 120 1 1 1.93106e+09 1.93132e+09 1.93234e+09 1.93235e+09 0
000 121 1 1 1.94054e+09 1.94079e+09 1.94181e+09 1.94212e+09 1
000 122 1 1 1.94922e+09 1.94947e+09 1.95049e+09 1.95065e+09 1
000 123 1 1 1.95777e+09 1.95803e+09 1.95905e+09 1.9616e+09 1
000 124 1 1 1.96965e+09 1.96991e+09 1.97093e+09 1.97258e+09 0
000 125 1 1 1.98039e+09 1.98064e+09 1.98166e+09 1.98445e+09 0
000 126 2 0 2.00311e+09 2.00338e+09 2.0044e+09 2.00499e+09 0
000 127 1 0 2.01821e+09 2.01848e+09 2.0195e+09 2.02386e+09 0
001 128 1 1 2.03084e+09 2.03108e+09 2.0321e+09 2.03275e+09 0
000 129 1 1 2.04194e+09 2.04219e+09 2.04321e+09 2.04377e+09 1
000 130 1 1 2.05162e+09 2.05188e+09 2.0529e+09 2.05307e+09 1
000 131 1 0 2.06248e+09 2.06275e+09 2.06377e+09 2.06385e+09 1
001 132 2 0 2.07184e+09 2.0721e+09 2.07312e+09 2.07354e+09 0
000 133 2 1 2.08682e+09 2.08709e+09 2.08811e+09 2.09042e+09 1
001 134 2 1 2.09786e+09 2.09811e+09 2.09913e+09 2.09929e+09 0
001 135 1 1 2.10204e+09 2.10229e+09 2.10331e+09 2.10417e+09 0
000 136 1 0 2.11185e+09 2.1121e+09 2.11312e+09 2.11314e+09 1
001 137 2 1 2.11602e+09 2.11627e+09 2.11729e+09 2.11751e+09 0
001 138 2 1 2.12426e+09 2.1245e+09 2.12553e+09 2.12553e+09 0
001 139 1 1 2.13421e+09 2.13446e+09 2.13548e+09 2.13549e+09 0
000 140 1 0 2.14434e+09 2.14459e+09 2.14561e+09 2.14565e+09 1
001 141 2 1 2.14875e+09 2.14899e+09 2.15001e+09 2.15101e+09 0
001 142 1 0 2.15397e+09 2.15422e+09 2.15524e+09 2.15554e+09 0
001 143 2 1 2.16484e+09 2.16509e+09 2.16611e+09 2.16612e+09 0
001 144 1 0 2.17671e+09 2.17697e+09 2.17799e+09 2.17828e+09 0
001 145 2 0 2.18771e+09 2.18796e+09 2.18898e+09 2.18931e+09 0
000 146 2 1 2.20007e+09 2.20032e+09 2.20134e+09 2.20199e+09 1
001 147 2 0 2.20849e+09 2.20875e+09 2.20977e+09 2.20981e+09 0
000 148 2 0 2.21749e+09 2.21775e+09 2.21877e+09 2.22254e+09 1
000 149 2 1 2.22991e+09 2.23017e+09 2.23119e+09 2.23207e+09 1
001 150 1 1 2.2376e+09 2.23786e+09 2.23888e+09 2.23934e+09 0
000 151 1 0 2.24968e+09 2.24993e+09 2.25095e+09 2.25132e+09 1
001 152 1 1 2.2548e+09 2.25505e+09 2.25607e+09 2.25616e+09 0
000 153 1 1 2.26535e+09 2.2656e+09 2.26662e+09 2.26675e+09 1
000 154 1 0 2.27514e+09 2.27539e+09 2.27641e+09 2.27679e+09 1
001 155 1 1 2.28169e+09 2.28195e+09 2.28297e+09 2.28303e+09 0
000 156 1 1 2.29127e+09 2.29153e+09 2.29255e+09 2.29639e+09 1
000 157 1 1 2.30481e+09 2.30506e+09 2.30608e+09 2.30687e+09 1
000 158 1 0 2.31685e+09 2.3171e+09 2.31812e+09 2.31831e+09 1
001 159 1 1 2.32559e+09 2.32584e+09 2.32686e+09 2.32737e+09 0
000 160 1 0 2.33792e+09 2.33817e+09 2.33919e+09 2.33989e+09 1
001 161 1 1 2.34768e+09 2.34795e+09 2.34897e+09 2.34899e+09 0
000 162 1 1 2.35738e+09 2.35764e+09 2.35866e+09 2.35877e+09 1
000 163 1 1 2.3674e+09 2.36765e+09 2.36867e+09 2.36906e+09 1
000 164 1 1 2.37709e+09 2.37735e+09 2.37837e+09 2.37954e+09 1
000 165 1 1 2.38688e+09 2.38714e+09 2.38816e+09 2.3892e+09 0
000 166 2 1 2.39677e+09 2.39703e+09 2.39805e+09 2.39884e+09 0
001 167 1 0 2.40338e+09 2.40365e+09 2.40467e+09 2.40531e+09 0
001 168 2 0 2.41363e+09 2.41389e+09 2.41491e+09 2.41512e+09 0
000 169 2 0 2.42253e+09 2.42277e+09 2.4238e+09 2.42419e+09 1
000 170 2 1 2.43132e+09 2.43158e+09 2.4326e+09 2.43311e+09 1
001 171 1 1 2.4396e+09 2.43985e+09 2.44087e+09 2.44107e+09 0
000 172 1 1 2.45098e+09 2.45124e+09 2.45226e+09 2.45227e+09 1
000 173 1 0 2.46091e+09 2.46117e+09 2.46219e+09 2.46223e+09 1
001 174 1 1 2.47151e+09 2.47176e+09 2.47278e+09 2.47294e+09 0
000 175 1 1 2.4815e+09 2.48175e+09 2.48277e+09 2.48561e+09 1
000 176 1 1 2.49533e+09 2.49558e+09 2.4966e+09 2.49663e+09 1
000 177 1 0 2.50425e+09 2.50451e+09 2.50554e+09 2.50557e+09 1
001 178 1 1 2.51855e+09 2.5188e+09 2.51982e+09 2.52376e+09 0
000 179 1 1 2.53114e+09 2.53139e+09 2.53241e+09 2.53348e+09 1
000 180 1 0 2.54292e+09 2.54318e+09 2.5442e+09 2.54452e+09 1
001 181 2 1 2.56235e+09 2.5626e+09 2.56362e+09 2.56364e+09 0
001 182 2 1 2.56689e+09 2.56716e+09 2.56818e+09 2.56821e+09 0
001 183 2 1 2.57625e+09 2.5765e+09 2.57752e+09 2.57753e+09 0
001 184 1 0 2.5807e+09 2.58096e+09 2.58198e+09 2.58201e+09 0
001 185 1 1 2.58569e+09 2.58595e+09 2.58697e+09 2.58725e+09 0
000 186 1 0 2.59967e+09 2.59993e+09 2.60095e+09 2.601e+09 1
001 187 1 1 2.61076e+09 2.61102e+09 2.61204e+09 2.6127e+09 0
000 188 1 0 2.62013e+09 2.62039e+09 2.62141e+09 2.62143e+09 1
001 189 2 1 2.62872e+09 2.62898e+09 2.63e+09 2.63178e+09 0
001 190 2 0 2.63546e+09 2.63573e+09 2.63675e+09 2.63736e+09 0
000 191 2 0 2.64536e+09 2.6456e+09 2.64662e+09 2.64665e+09 1
000 192 2 1 2.65586e+09 2.6561e+09 2.65712e+09 2.65751e+09 1
001 193 2 1 2.66437e+09 2.66463e+09 2.66565e+09 2.66588e+09 0
001 194 2 0 2.67087e+09 2.67113e+09 2.67215e+09 2.67238e+09 0
000 195 2 0 2.68151e+09 2.68176e+09 2.68278e+09 2.68279e+09 1
000 196 2 0 2.6901e+09 2.69036e+09 2.69138e+09 2.69139e+09 1
000 197 2 1 2.69851e+09 2.69877e+09 2.69979e+09 2.70028e+09 1
001 198 1 0 2.70506e+09 2.70531e+09 2.70633e+09 2.70649e+09 0
001 199 1 1 2.71346e+09 2.71373e+09 2.71475e+09 2.71531e+09 0
000 200 1 1 2.723e+09 2.72327e+09 2.72429e+09 2.72488e+09 1
000 201 1 0 2.73489e+09 2.73514e+09 2.73616e+09 2.73633e+09 1
001 202 1 0 2.75458e+09 2.75484e+09 2.75586e+09 2.75591e+09 0
001 203 1 0 2.76063e+09 2.76089e+09 2.76191e+09 2.763e+09 0
001 204 2 1 2.7669e+09 2.76717e+09 2.76819e+09 2.76821e+09 0
001 205 1 1 2.77215e+09 2.77241e+09 2.77343e+09 2.77369e+09 0
000 206 1 1 2.78304e+09 2.7833e+09 2.78432e+09 2.78434e+09 1
000 207 1 1 2.79445e+09 2.7947e+09 2.79572e+09 2.79579e+09 1
000 208 1 0 2.80347e+09 2.80373e+09 2.80475e+09 2.8049e+09 1
001 209 2 1 2.81975e+09 2.82e+09 2.82102e+09 2.8215e+09 0
001 210 1 0 2.83083e+09 2.83109e+09 2.83211e+09 2.83221e+09 0
001 211 1 1 2.83541e+09 2.83567e+09 2.83669e+09 2.83728e+09 0
000 212 1 1 2.84724e+09 2.84749e+09 2.84851e+09 2.84871e+09 1
000 213 1 1 2.85607e+09 2.85632e+09 2.85734e+09 2.85745e+09 1
000 214 1 0 2.86809e+09 2.86835e+09 2.86937e+09 2.8695e+09 1
001 215 2 1 2.87917e+09 2.87943e+09 2.88045e+09 2.88378e+09 0
001 216 2 1 2.89726e+09 2.89752e+09 2.89854e+09 2.89861e+09 0
001 217 1 0 2.90563e+09 2.90588e+09 2.9069e+09 2.90691e+09 0
001 218 1 0 2.91083e+09 2.91108e+09 2.9121e+09 2.91217e+09 0
001 219 1 1 2.916e+09 2.91626e+09 2.91728e+09 2.9175e+09 0
000 220 1 1 2.92792e+09 2.92817e+09 2.92919e+09 2.92978e+09 1
000 221 1 0 2.93863e+09 2.93888e+09 2.9399e+09 2.93992e+09 1
001 222 2 1 2.95247e+09 2.95272e+09 2.95374e+09 2.95386e+09 0
001 223 2 0 2.96034e+09 2.96059e+09 2.96161e+09 2.96172e+09 0
000 224 2 1 2.97088e+09 2.97114e+09 2.97216e+09 2.97462e+09 1
001 225 2 0 2.97832e+09 2.97858e+09 2.9796e+09 2.97969e+09 0
000 226 2 1 2.98948e+09 2.98973e+09 2.99075e+09 2.99119e+09 1
001 227 1 0 2.99631e+09 2.99656e+09 2.99758e+09 2.99858e+09 0
001 228 1 0 3.00177e+09 3.00202e+09 3.00304e+09 3.00324e+09 0
001 229 2 0 3.00769e+09 3.00796e+09 3.00898e+09 3.00917e+09 0
000 230 2 0 3.01868e+09 3.01894e+09 3.01996e+09 3.02019e+09 1
000 231 2 1 3.03387e+09 3.03412e+09 3.03514e+09 3.03515e+09 1
001 232 2 0 3.03942e+09 3.03967e+09 3.04069e+09 3.04107e+09 0
000 233 2 0 3.04978e+09 3.05004e+09 3.05106e+09 3.05158e+09 1
000 234 2 1 3.06351e+09 3.06376e+09 3.06478e+09 3.06487e+09 1
001 235 1 0 3.07191e+09 3.07216e+09 3.07319e+09 3.07408e+09 0
001 236 2 0 3.08209e+09 3.08236e+09 3.08338e+09 3.08393e+09 0
000 237 2 1 3.09286e+09 3.09311e+09 3.09413e+09 3.09414e+09 1
001 238 2 1 3.10142e+09 3.10167e+09 3.10269e+09 3.10303e+09 0
001 239 1 0 3.1102e+09 3.11046e+09 3.11148e+09 3.11149e+09 0
001 240 2 0 3.12317e+09 3.12343e+09 3.12445e+09 3.12499e+09 0
000 241 2 1 3.13488e+09 3.13514e+09 3.13616e+09 3.13699e+09 1
001 242 1 0 3.1418e+09 3.14205e+09 3.14307e+09 3.14387e+09 0
001 243 1 1 3.14741e+09 3.14767e+09 3.14869e+09 3.14885e+09 0
000 244 1 0 3.15588e+09 3.15614e+09 3.15716e+09 3.15718e+09 1
001 245 1 0 3.16169e+09 3.16196e+09 3.16298e+09 3.16323e+09 0
001 246 2 1 3.17064e+09 3.17091e+09 3.17193e+09 3.1721e+09 0
001 247 2 1 3.18348e+09 3.18373e+09 3.18475e+09 3.18486e+09 0
001 248 2 0 3.18825e+09 3.18851e+09 3.18953e+09 3.19037e+09 0
000 249 2 0 3.19839e+09 3.19865e+09 3.19967e+09 3.19969e+09 1
000 250 2 1 3.20979e+09 3.21005e+09 3.21107e+09 3.2111e+09 1
001 251 1 0 3.22021e+09 3.22047e+09 3.22149e+09 3.2219e+09 0
001 252 2 1 3.24099e+09 3.24124e+09 3.24226e+09 3.24243e+09 0
001 253 2 0 3.24838e+09 3.24864e+09 3.24966e+09 3.24984e+09 0
000 254 2 0 3.26468e+09 3.26493e+09 3.26596e+09 3.26605e+09 1
000 255 2 1 3.27513e+09 3.2754e+09 3.27642e+09 3.27644e+09 1
001 256 1 0 3.27965e+09 3.27992e+09 3.28094e+09 3.28115e+09 0
001 257 2 0 3.29178e+09 3.29204e+09 3.29306e+09 3.29345e+09 0
000 258 2 0 3.3007e+09 3.30097e+09 3.30199e+09 3.30232e+09 1
000 259 2 1 3.30976e+09 3.31001e+09 3.31103e+09 3.31104e+09 1
001 260 2 1 3.32297e+09 3.32323e+09 3.32425e+09 3.32426e+09 0
001 261 1 1 3.33706e+09 3.33731e+09 3.33834e+09 3.34116e+09 0
000 262 1 1 3.35433e+09 3.35458e+09 3.3556e+09 3.35583e+09 1
000 263 1 1 3.36398e+09 3.36424e+09 3.36526e+09 3.36795e+09 1
000 264 1 0 3.38671e+09 3.38696e+09 3.38798e+09 3.388e+09 1
001 265 2 0 3.39783e+09 3.39808e+09 3.3991e+09 3.39914e+09 0
000 266 2 1 3.4097e+09 3.40996e+09 3.41098e+09 3.41422e+09 1
001 267 1 0 3.42255e+09 3.4228e+09 3.42382e+09 3.42413e+09 0
001 268 2 1 3.43416e+09 3.43442e+09 3.43544e+09 3.43564e+09 0
001 269 2 0 3.44104e+09 3.44129e+09 3.44231e+09 3.44233e+09 0
000 270 2 0 3.45287e+09 3.45313e+09 3.45415e+09 3.45416e+09 1
000 271 2 0 3.46616e+09 3.46643e+09 3.46745e+09 3.46757e+09 1
000 272 2 1 3.47465e+09 3.47491e+09 3.47593e+09 3.47612e+09 1
001 273 1 1 3.48147e+09 3.48173e+09 3.48275e+09 3.4832e+09 0
000 274 1 1 3.4905e+09 3.49077e+09 3.49179e+09 3.49181e+09 1
000 275 1 1 3.49891e+09 3.49916e+09 3.50018e+09 3.50436e+09 1
000 276 1 0 3.51302e+09 3.51327e+09 3.51429e+09 3.51434e+09 1
001 277 2 0 3.52055e+09 3.52081e+09 3.52183e+09 3.52186e+09 0
000 278 2 0 3.52984e+09 3.5301e+09 3.53112e+09 3.5313e+09 1
000 279 2 1 3.54055e+09 3.54081e+09 3.54183e+09 3.54184e+09 1
001 280 1 0 3.5504e+09 3.55066e+09 3.55168e+09 3.55176e+09 0
001 281 2 1 3.55996e+09 3.56022e+09 3.56124e+09 3.56125e+09 0
001 282 1 0 3.56876e+09 3.56901e+09 3.57003e+09 3.57025e+09 0
001 283 2 1 3.57492e+09 3.57518e+09 3.5762e+09 3.57654e+09 0
001 284 2 1 3.5811e+09 3.58137e+09 3.58239e+09 3.5825e+09 0
001 285 1 1 3.58577e+09 3.58603e+09 3.58705e+09 3.58769e+09 0
000 286 1 1 3.59513e+09 3.5954e+09 3.59642e+09 3.59644e+09 1
000 287 1 1 3.60373e+09 3.60398e+09 3.605e+09 3.60502e+09 1
000 288 1 0 3.62004e+09 3.6203e+09 3.62132e+09 3.62137e+09 1
001 289 2 0 3.62545e+09 3.6257e+09 3.62672e+09 3.62679e+09 0
000 290 2 0 3.64103e+09 3.64128e+09 3.6423e+09 3.64258e+09 1
000 291 2 1 3.65184e+09 3.6521e+09 3.65312e+09 3.65318e+09 1
001 292 1 0 3.65662e+09 3.65687e+09 3.65789e+09 3.65815e+09 0
001 293 2 1 3.6614e+09 3.66165e+09 3.66267e+09 3.66316e+09 0
001 294 2 1 3.68247e+09 3.68273e+09 3.68375e+09 3.68398e+09 0
001 295 1 1 3.6915e+09 3.69177e+09 3.69279e+09 3.69299e+09 0
000 296 1 0 3.70285e+09 3.70311e+09 3.70413e+09 3.70417e+09 1
001 297 2 1 3.70953e+09 3.7098e+09 3.71082e+09 3.71091e+09 0
001 298 1 0 3.72003e+09 3.72029e+09 3.72131e+09 3.72135e+09 0
001 299 2 0 3.72551e+09 3.72576e+09 3.72678e+09 3.72701e+09 0
000 300 2 1 3.73556e+09 3.73582e+09 3.73684e+09 3.73712e+09 1
001 301 2 1 3.74313e+09 3.7434e+09 3.74442e+09 3.74492e+09 0
001 302 1 1 3.75563e+09 3.75589e+09 3.75691e+09 3.75695e+09 0
000 303 1 0 3.76836e+09 3.76862e+09 3.76964e+09 3.77033e+09 1
001 304 1 1 3.77421e+09 3.77447e+09 3.7755e+09 3.77556e+09 0
000 305 1 1 3.78464e+09 3.7849e+09 3.78592e+09 3.78595e+09 1
000 306 1 0 3.79622e+09 3.79649e+09 3.79751e+09 3.79763e+09 1
001 307 1 0 3.80544e+09 3.80571e+09 3.80673e+09 3.80767e+09 0
001 308 1 1 3.81392e+09 3.81419e+09 3.81521e+09 3.81527e+09 0
000 309 1 1 3.82594e+09 3.82619e+09 3.82721e+09 3.82724e+09 1
000 310 1 0 3.83466e+09 3.83492e+09 3.83594e+09 3.836e+09 1
001 311 1 1 3.84026e+09 3.84051e+09 3.84153e+09 3.8416e+09 0
000 312 1 1 3.85502e+09 3.85528e+09 3.8563e+09 3.85634e+09 1
000 313 1 1 3.86344e+09 3.86371e+09 3.86473e+09 3.8651e+09 1
000 314 1 1 3.88097e+09 3.88124e+09 3.88226e+09 3.88234e+09 1
000 315 2 1 3.8896e+09 3.88986e+09 3.89088e+09 3.89095e+09 0
001 316 1 0 3.90239e+09 3.90264e+09 3.90366e+09 3.90369e+09 0
001 317 1 0 3.90749e+09 3.90774e+09 3.90876e+09 3.90948e+09 0
001 318 2 0 3.91286e+09 3.91312e+09 3.91414e+09 3.91422e+09 0
000 319 2 0 3.93385e+09 3.9341e+09 3.93512e+09 3.93521e+09 1
000 320 2 1 3.94673e+09 3.94699e+09 3.94801e+09 3.95019e+09 1
001 321 1 0 3.9536e+09 3.95387e+09 3.95489e+09 3.95542e+09 0
001 322 2 0 3.96379e+09 3.96405e+09 3.96507e+09 3.96528e+09 0
000 323 2 1 3.97409e+09 3.97435e+09 3.97537e+09 3.97561e+09 1
001 324 1 1 3.98548e+09 3.98573e+09 3.98675e+09 3.98679e+09 0
000 325 1 1 3.99403e+09 3.99429e+09 3.99531e+09 3.99851e+09 1
000 326 1 1 4.01475e+09 4.01501e+09 4.01603e+09 4.01996e+09 1
000 327 1 0 4.02801e+09 4.02827e+09 4.02929e+09 4.02953e+09 1
001 328 1 0 4.03707e+09 4.03733e+09 4.03835e+09 4.03851e+09 0
001 329 2 0 4.04841e+09 4.04866e+09 4.04968e+09 4.04974e+09 0
000 330 2 1 4.05809e+09 4.05836e+09 4.05938e+09 4.05939e+09 1
001 331 1 0 4.06341e+09 4.06365e+09 4.06467e+09 4.06507e+09 0
001 332 2 0 4.07342e+09 4.07367e+09 4.07469e+09 4.07501e+09 0
000 333 2 1 4.08243e+09 4.08268e+09 4.0837e+09 4.08381e+09 1
001 334 1 0 4.09003e+09 4.0903e+09 4.09132e+09 4.09196e+09 0
001 335 2 0 4.10073e+09 4.10097e+09 4.10199e+09 4.10202e+09 0
000 336 2 0 4.10926e+09 4.10952e+09 4.11054e+09 4.11062e+09 1
000 337 2 1 4.12267e+09 4.12293e+09 4.12395e+09 4.12438e+09 1
001 338 1 1 4.13362e+09 4.13388e+09 4.1349e+09 4.13491e+09 0
000 339 1 0 4.14238e+09 4.14264e+09 4.14366e+09 4.14382e+09 1
001 340 1 1 4.15419e+09 4.15444e+09 4.15546e+09 4.15619e+09 0
000 341 1 1 4.17356e+09 4.17382e+09 4.17484e+09 4.1772e+09 1
000 342 1 1 4.18446e+09 4.18471e+09 4.18573e+09 4.18583e+09 1
000 343 1 1 4.19917e+09 4.19943e+09 4.20045e+09 4.20128e+09 1
000 344 2 1 4.20842e+09 4.20868e+09 4.2097e+09 4.20978e+09 0
001 345 2 1 4.21935e+09 4.2196e+09 4.22063e+09 4.22066e+09 0
001 346 1 1 4.22726e+09 4.22752e+09 4.22854e+09 4.22861e+09 0
000 347 1 1 4.23566e+09 4.23592e+09 4.23694e+09 4.23757e+09 1
000 348 1 1 4.24503e+09 4.24528e+09 4.2463e+09 4.24724e+09 1
000 349 1 0 4.2546e+09 4.25486e+09 4.25588e+09 4.25644e+09 1
001 350 2 1 4.26504e+09 4.2653e+09 4.26632e+09 4.26894e+09 0
001 351 2 0 4.27893e+09 4.2792e+09 4.28022e+09 4.28029e+09 0
000 352 2 1 4.28744e+09 4.2877e+09 4.28872e+09 4.28912e+09 1
001 353 2 1 706572 966528 1.98682e+06 5.53001e+06 0
001 354 2 1 1.63758e+07 1.66354e+07 1.76557e+07 2.38334e+07 0
001 355 1 0 2.78426e+07 2.80942e+07 2.91145e+07 2.91369e+07 0
001 356 1 1 3.71569e+07 3.74045e+07 3.84248e+07 3.8451e+07 0
000 357 1 0 4.62346e+07 4.64947e+07 4.75149e+07 4.75334e+07 1
001 358 2 1 5.21165e+07 5.23779e+07 5.33982e+07 5.34767e+07 0
001 359 1 0 7.08997e+07 7.1163e+07 7.21833e+07 7.22089e+07 0
001 360 1 0 7.61508e+07 7.64145e+07 7.74348e+07 7.74952e+07 0
001 361 2 1 8.7294e+07 8.75507e+07 8.8571e+07 8.87237e+07 0
001 362 1 1 9.91724e+07 9.94282e+07 1.00448e+08 1.0051e+08 0
000 363 1 0 1.13684e+08 1.1394e+08 1.1496e+08 1.15221e+08 1
001 364 1 0 1.31366e+08 1.31626e+08 1.32646e+08 1.32716e+08 0
001 365 1 1 1.3775e+08 1.38004e+08 1.39024e+08 1.39219e+08 0
000 366 1 1 1.48067e+08 1.48313e+08 1.49333e+08 1.51402e+08 1
000 367 1 1 1.60638e+08 1.60895e+08 1.61915e+08 1.61943e+08 1
000 368 1 1 1.70909e+08 1.71161e+08 1.72181e+08 1.76757e+08 1
000 369 1 1 1.88123e+08 1.88389e+08 1.8941e+08 1.90018e+08 0
000 370 2 1 1.99392e+08 1.99653e+08 2.00673e+08 2.00981e+08 0
001 371 1 0 2.11052e+08 2.11302e+08 2.12322e+08 2.12376e+08 0
001 372 1 0 2.16198e+08 2.16465e+08 2.17486e+08 2.17502e+08 0
001 373 2 1 2.27569e+08 2.27824e+08 2.28844e+08 2.31573e+08 0
001 374 2 0 2.54683e+08 2.54942e+08 2.55963e+08 2.55968e+08 0
000 375 2 1 2.63156e+08 2.63404e+08 2.64425e+08 2.67233e+08 1
001 376 1 0 2.76809e+08 2.77058e+08 2.78078e+08 2.78352e+08 0
001 377 2 1 2.91321e+08 2.91587e+08 2.92608e+08 2.92886e+08 0
001 378 1 0 3.00711e+08 3.00969e+08 3.0199e+08 3.02007e+08 0
001 379 1 1 3.28654e+08 3.28906e+08 3.29927e+08 3.30133e+08 0
000 380 1 1 3.37739e+08 3.37985e+08 3.39005e+08 3.39207e+08 1
000 381 1 0 3.48901e+08 3.49148e+08 3.50168e+08 3.50623e+08 1
001 382 1 1 3.55415e+08 3.55674e+08 3.56694e+08 3.57667e+08 0
000 383 1 1 3.68762e+08 3.69022e+08 3.70042e+08 3.70469e+08 1
000 384 1 0 3.78903e+08 3.79164e+08 3.80185e+08 3.80285e+08 1
001 385 1 1 3.87001e+08 3.87256e+08 3.88276e+08 3.88555e+08 0
000 386 1 1 3.95811e+08 3.96063e+08 3.97083e+08 3.9717e+08 1
000 387 1 0 4.10254e+08 4.10522e+08 4.11543e+08 4.11707e+08 1
001 388 2 1 4.23941e+08 4.24195e+08 4.25215e+08 4.25226e+08 0
001 389 1 1 4.37272e+08 4.37518e+08 4.38538e+08 4.38599e+08 0
000 390 1 1 4.47283e+08 4.47538e+08 4.48558e+08 4.4864e+08 1
000 391 1 1 4.56703e+08 4.56953e+08 4.57973e+08 4.58512e+08 1
000 392 1 1 4.69048e+08 4.69311e+08 4.70331e+08 4.70813e+08 1
000 393 2 1 4.78565e+08 4.78808e+08 4.79829e+08 4.80459e+08 0
001 394 1 0 4.89817e+08 4.90072e+08 4.91092e+08 4.9186e+08 0
001 395 1 1 4.96312e+08 4.96568e+08 4.97588e+08 4.97791e+08 0
000 396 1 1 5.06775e+08 5.07025e+08 5.08045e+08 5.08584e+08 1
000 397 1 1 5.18244e+08 5.18501e+08 5.19521e+08 5.21087e+08 1
000 398 1 1 5.28508e+08 5.28756e+08 5.29777e+08 5.33648e+08 1
000 399 1 0 5.48111e+08 5.48374e+08 5.49395e+08 5.49469e+08 0
001 400 1 0 5.5207e+08 5.52326e+08 5.53346e+08 5.55607e+08 0
001 401 1 1 5.63119e+08 5.63373e+08 5.64393e+08 5.64883e+08 0
000 402 1 1 5.74653e+08 5.74905e+08 5.75925e+08 5.75936e+08 1
000 403 1 1 5.8513e+08 5.85384e+08 5.86404e+08 5.87473e+08 1
000 404 1 1 6.00014e+08 6.00268e+08 6.01288e+08 6.02784e+08 1
000 405 1 1 6.10827e+08 6.1108e+08 6.121e+08 6.1305e+08 0
000 406 2 1 6.20924e+08 6.21173e+08 6.22193e+08 6.23332e+08 0
001 407 2 0 6.32328e+08 6.32596e+08 6.33617e+08 6.3366e+08 0
000 408 2 0 6.43808e+08 6.44058e+08 6.45079e+08 6.45224e+08 1
000 409 2 1 6.52964e+08 6.53219e+08 6.54239e+08 6.54812e+08 1
001 410 2 1 6.59931e+08 6.60184e+08 6.61204e+08 6.64304e+08 0
001 411 1 0 6.74765e+08 6.75033e+08 6.76053e+08 6.76611e+08 0
001 412 2 0 6.83039e+08 6.83302e+08 6.84322e+08 6.84688e+08 0
000 413 2 1 6.93865e+08 6.94125e+08 6.95145e+08 6.98957e+08 1
001 414 2 0 7.02701e+08 7.02961e+08 7.03981e+08 7.04372e+08 0
000 415 2 0 7.11893e+08 7.12138e+08 7.13158e+08 7.1408e+08 1
000 416 2 1 7.21539e+08 7.21792e+08 7.22812e+08 7.23253e+08 1
001 417 2 0 7.29821e+08 7.30084e+08 7.31105e+08 7.3128e+08 0
000 418 2 1 7.40733e+08 7.40999e+08 7.4202e+08 7.42056e+08 1
001 419 1 0 7.50674e+08 7.5094e+08 7.5196e+08 7.52377e+08 0
001 420 1 1 7.62558e+08 7.62823e+08 7.63843e+08 7.63862e+08 0
000 421 1 1 7.72544e+08 7.72794e+08 7.73815e+08 7.77656e+08 1
000 422 1 0 7.89292e+08 7.89559e+08 7.90579e+08 7.90861e+08 1
001 423 1 1 7.99403e+08 7.99664e+08 8.00685e+08 8.00894e+08 0
000 424 1 0 8.10929e+08 8.11193e+08 8.12213e+08 8.1234e+08 1
001 425 1 0 8.20666e+08 8.20922e+08 8.21942e+08 8.22057e+08 0
001 426 2 1 8.26445e+08 8.26697e+08 8.27718e+08 8.28343e+08 0
001 427 2 0 8.41219e+08 8.41479e+08 8.42499e+08 8.42928e+08 0
000 428 2 1 8.52545e+08 8.52793e+08 8.53813e+08 8.54531e+08 1
001 429 2 1 8.63483e+08 8.63736e+08 8.64756e+08 8.65183e+08 0
001 430 2 0 8.70985e+08 8.71246e+08 8.72266e+08 8.72299e+08 0
000 431 2 0 8.84365e+08 8.84623e+08 8.85643e+08 8.86109e+08 1
000 432 2 1 8.97056e+08 8.97311e+08 8.98331e+08 9.02764e+08 1
001 433 2 1 9.08047e+08 9.08299e+08 9.09319e+08 9.0962e+08 0
001 434 1 0 9.17448e+08 9.17705e+08 9.18725e+08 9.18738e+08 0
001 435 2 1 9.31936e+08 9.32192e+08 9.33212e+08 9.33244e+08 0
001 436 1 1 9.48453e+08 9.48708e+08 9.49728e+08 9.52729e+08 0
000 437 1 1 9.61435e+08 9.61696e+08 9.62716e+08 9.63593e+08 1
000 438 1 0 9.72025e+08 9.72285e+08 9.73305e+08 9.77628e+08 1
001 439 1 0 9.91361e+08 9.91624e+08 9.92644e+08 9.93211e+08 0
001 440 2 1 9.97631e+08 9.97883e+08 9.98903e+08 1.0043e+09 0
001 441 1 1 1.01319e+09 1.01345e+09 1.01447e+09 1.0156e+09 0
000 442 1 1 1.02668e+09 1.02692e+09 1.02794e+09 1.02997e+09 1
000 443 1 1 1.04018e+09 1.04042e+09 1.04144e+09 1.04265e+09 1
000 444 1 1 1.04979e+09 1.05005e+09 1.05107e+09 1.05129e+09 1
000 445 2 1 1.06129e+09 1.06155e+09 1.06257e+09 1.06273e+09 0
001 446 1 0 1.07055e+09 1.0708e+09 1.07182e+09 1.07225e+09 0
001 447 1 1 1.08036e+09 1.08061e+09 1.08163e+09 1.08167e+09 0
000 448 1 1 1.09105e+09 1.09131e+09 1.09233e+09 1.09394e+09 1
000 449 1 1 1.10682e+09 1.10706e+09 1.10808e+09 1.10873e+09 1
000 450 1 0 1.11816e+09 1.11841e+09 1.11943e+09 1.12311e+09 1
001 451 2 1 1.12746e+09 1.12773e+09 1.12875e+09 1.12996e+09 0
001 452 2 1 1.13394e+09 1.1342e+09 1.13522e+09 1.13546e+09 0
001 453 1 1 1.14156e+09 1.14183e+09 1.14285e+09 1.14307e+09 0
000 454 1 1 1.15138e+09 1.15164e+09 1.15266e+09 1.15287e+09 1
000 455 1 1 1.16275e+09 1.16301e+09 1.16403e+09 1.16511e+09 1
000 456 1 1 1.175e+09 1.17526e+09 1.17628e+09 1.17697e+09 1
000 457 2 1 1.19841e+09 1.19866e+09 1.19968e+09 1.19982e+09 0
001 458 2 0 1.20327e+09 1.20353e+09 1.20455e+09 1.20957e+09 0
000 459 2 1 1.2182e+09 1.21846e+09 1.21948e+09 1.22162e+09 1
001 460 1 1 1.23285e+09 1.23311e+09 1.23413e+09 1.25992e+09 0
000 461 1 1 1.26762e+09 1.26788e+09 1.2689e+09 1.27094e+09 1
000 462 1 0 1.27907e+09 1.27933e+09 1.28035e+09 1.29229e+09 1
001 463 2 1 1.29864e+09 1.29888e+09 1.2999e+09 1.30001e+09 0
001 464 2 0 1.31169e+09 1.31194e+09 1.31296e+09 1.3344e+09 0
000 465 2 0 1.34174e+09 1.34199e+09 1.34301e+09 1.35572e+09 1
000 466 2 1 1.36391e+09 1.36416e+09 1.36518e+09 1.3658e+09 1
001 467 2 1 1.36851e+09 1.36876e+09 1.36978e+09 1.37201e+09 0
001 468 2 1 1.3785e+09 1.37877e+09 1.37979e+09 1.37988e+09 0
001 469 1 0 1.38665e+09 1.38691e+09 1.38793e+09 1.3882e+09 0
001 470 2 0 1.39252e+09 1.39277e+09 1.39379e+09 1.39381e+09 0
000 471 2 1 1.40098e+09 1.40124e+09 1.40226e+09 1.40717e+09 1
001 472 1 0 1.41315e+09 1.4134e+09 1.41442e+09 1.42576e+09 0
001 473 2 0 1.4333e+09 1.43355e+09 1.43457e+09 1.43468e+09 0
000 474 2 0 1.44966e+09 1.44991e+09 1.45093e+09 1.45153e+09 1
000 475 2 1 1.46292e+09 1.46317e+09 1.46419e+09 1.46503e+09 1
001 476 2 1 1.47394e+09 1.47419e+09 1.47521e+09 1.47538e+09 0
001 477 1 1 1.48324e+09 1.48349e+09 1.48451e+09 1.48502e+09 0
000 478 1 1 1.49459e+09 1.49484e+09 1.49586e+09 1.49896e+09 1
000 479 1 0 1.50621e+09 1.50647e+09 1.50749e+09 1.50755e+09 1
001 480 1 0 1.51749e+09 1.51774e+09 1.51876e+09 1.51877e+09 0
001 481 1 1 1.52473e+09 1.52499e+09 1.52601e+09 1.52619e+09 0
000 482 1 1 1.53655e+09 1.53681e+09 1.53783e+09 1.5415e+09 1
000 483 1 0 1.54993e+09 1.55019e+09 1.55121e+09 1.5539e+09 1
001 484 1 1 1.55813e+09 1.55838e+09 1.5594e+09 1.56275e+09 0
000 485 1 1 1.57259e+09 1.57285e+09 1.57387e+09 1.57474e+09 1
000 486 1 1 1.58334e+09 1.58359e+09 1.58461e+09 1.59116e+09 1
000 487 1 1 1.59962e+09 1.59988e+09 1.6009e+09 1.60308e+09 1
000 488 2 1 1.61126e+09 1.61151e+09 1.61253e+09 1.61583e+09 0
001 489 2 1 1.62412e+09 1.62438e+09 1.6254e+09 1.62954e+09 0
001 490 2 0 1.64022e+09 1.64048e+09 1.6415e+09 1.64346e+09 0
000 491 2 1 1.65441e+09 1.65467e+09 1.65569e+09 1.65677e+09 1
001 492 1 1 1.66362e+09 1.66387e+09 1.66489e+09 1.66492e+09 0
000 493 1 1 1.67567e+09 1.67591e+09 1.67694e+09 1.67801e+09 1
000 494 1 1 1.68515e+09 1.68541e+09 1.68643e+09 1.6919e+09 1
000 495 1 1 1.70456e+09 1.70482e+09 1.70584e+09 1.708e+09 1
000 496 1 1 1.71852e+09 1.71877e+09 1.71979e+09 1.72716e+09 0
000 497 2 1 1.73604e+09 1.73629e+09 1.73731e+09 1.73756e+09 0
001 498 2 0 1.74214e+09 1.74239e+09 1.74341e+09 1.74385e+09 0
000 499 2 0 1.75747e+09 1.75772e+09 1.75874e+09 1.75997e+09 1
000 500 2 1 1.7732e+09 1.77347e+09 1.77449e+09 1.7795e+09 1
001 501 1 0 1.78362e+09 1.78389e+09 1.78491e+09 1.78551e+09 0
001 502 1 0 1.79306e+09 1.79333e+09 1.79435e+09 1.79505e+09 0
001 503 2 1 1.80291e+09 1.80317e+09 1.80419e+09 1.80676e+09 0
001 504 2 1 1.81089e+09 1.81114e+09 1.81216e+09 1.82203e+09 0
001 505 1 1 1.82977e+09 1.83003e+09 1.83105e+09 1.83282e+09 0
000 506 1 1 1.84156e+09 1.84183e+09 1.84285e+09 1.84641e+09 1
000 507 1 0 1.85361e+09 1.85386e+09 1.85488e+09 1.86155e+09 1
001 508 2 1 1.86769e+09 1.86794e+09 1.86896e+09 1.86909e+09 0
001 509 2 1 1.87177e+09 1.87202e+09 1.87304e+09 1.87366e+09 0
001 510 2 1 1.87976e+09 1.88001e+09 1.88103e+09 1.88614e+09 0
001 511 2 1 1.89387e+09 1.89413e+09 1.89515e+09 1.89795e+09 0
001 512 2 1 1.9016e+09 1.90185e+09 1.90287e+09 1.96864e+09 0
001 