trial trialType response stillTime stimOnset stimOffset respTime correctionTrial correct
001 1 0 1.55044e+07 1.5827e+07 1.68471e+07 1.70185e+07 0 1
002 1 0 2.0097e+07 2.03649e+07 2.13849e+07 2.14246e+07 0 1
003 2 0 2.5472e+07 2.57686e+07 2.67887e+07 2.68315e+07 0 0
004 2 0 3.67452e+07 3.70152e+07 3.80352e+07 4.0218e+07 1 0
005 2 1 4.78505e+07 4.81094e+07 4.91295e+07 4.94107e+07 1 1
006 2 1 5.70583e+07 5.73127e+07 5.83327e+07 5.84223e+07 0 1
007 1 0 7.1594e+07 7.18649e+07 7.2885e+07 7.28897e+07 0 1
008 1 0 8.08335e+07 8.10926e+07 8.21127e+07 8.2118e+07 0 1
009 2 1 1.01691e+08 1.01962e+08 1.02982e+08 1.03759e+08 0 1
010 1 0 1.4366e+08 1.43923e+08 1.44943e+08 1.44947e+08 0 1
011 2 0 1.80197e+08 1.80457e+08 1.81477e+08 1.81515e+08 0 0
012 2 0 1.92673e+08 1.92937e+08 1.93957e+08 1.93977e+08 1 0
013 2 1 2.13258e+08 2.13519e+08 2.14539e+08 2.14573e+08 1 1
014 1 0 2.18548e+08 2.18809e+08 2.1983e+08 2.19836e+08 0 1
015 1 0 3.00812e+08 3.01082e+08 3.02102e+08 3.02107e+08 0 1
016 1 0 3.11224e+08 3.11477e+08 3.12497e+08 3.12502e+08 0 1
017 2 1 3.41058e+08 3.41316e+08 3.42336e+08 3.42458e+08 0 1
018 1 0 3.52925e+08 3.53177e+08 3.54197e+08 3.54202e+08 0 1
019 2 0 3.61063e+08 3.6133e+08 3.6235e+08 3.62368e+08 0 0
020 2 0 3.70301e+08 3.70563e+08 3.71583e+08 3.71636e+08 1 0
021 2 1 3.96424e+08 3.96679e+08 3.97699e+08 3.97759e+08 1 1
022 2 1 4.00674e+08 4.00927e+08 4.01947e+08 4.02022e+08 0 1
023 1 0 4.18653e+08 4.18917e+08 4.19937e+08 4.19943e+08 0 1
024 2 0 4.36773e+08 4.37025e+08 4.38045e+08 4.38346e+08 0 0
025 2 1 4.57718e+08 4.57972e+08 4.58992e+08 4.59291e+08 1 1
026 2 0 4.89764e+08 4.90009e+08 4.91029e+08 4.94172e+08 0 0
027 2 0 5.01967e+08 5.02223e+08 5.03243e+08 5.03441e+08 1 0
028 2 0 5.13756e+08 5.14015e+08 5.15035e+08 5.17437e+08 1 0
029 2 0 5.28708e+08 5.2896e+08 5.2998e+08 5.30237e+08 1 0
030 2 1 5.42014e+08 5.42267e+08 5.43287e+08 5.43671e+08 0 1
031 2 1 5.6677e+08 5.67033e+08 5.68053e+08 5.68148e+08 0 1
032 2 0 5.92615e+08 5.92882e+08 5.93902e+08 5.94112e+08 0 0
033 2 1 6.01354e+08 6.0163e+08 6.0265e+08 6.02919e+08 1 1
034 1 0 6.26245e+08 6.2651e+08 6.2753e+08 6.27539e+08 0 1
035 2 1 6.88323e+08 6.88582e+08 6.89602e+08 6.90011e+08 0 1
036 2 1 7.05026e+08 7.05278e+08 7.06298e+08 7.06976e+08 0 1
037 1 0 7.46674e+08 7.46927e+08 7.47947e+08 7.47977e+08 0 1
038 2 0 7.73097e+08 7.73367e+08 7.74387e+08 7.74463e+08 0 0
039 2 1 7.84545e+08 7.84799e+08 7.85819e+08 7.8605e+08 1 1
040 1 0 7.97872e+08 7.98126e+08 7.99146e+08 7.99156e+08 0 1
041 1 0 8.07446e+08 8.07697e+08 8.08717e+08 8.08723e+08 0 1
042 1 0 8.27569e+08 8.27816e+08 8.28836e+08 8.28844e+08 0 1
043 2 0 8.39412e+08 8.39665e+08 8.40685e+08 8.40706e+08 0 0
044 2 0 8.50248e+08 8.50506e+08 8.51526e+08 8.51558e+08 1 0
045 2 0 8.71553e+08 8.71809e+08 8.72829e+08 8.73163e+08 1 0
046 2 0 8.83212e+08 8.83459e+08 8.84479e+08 8.86086e+08 1 0
047 1 0 9.05786e+08 9.06051e+08 9.07071e+08 9.07077e+08 0 1
048 2 1 9.21636e+08 9.219e+08 9.2292e+08 9.22981e+08 0 1
049 2 1 9.35093e+08 9.35362e+08 9.36382e+08 9.36407e+08 0 1
050 1 0 9.46926e+08 9.47173e+08 9.48193e+08 9.48197e+08 0 1
051 1 0 9.60221e+08 9.6049e+08 9.6151e+08 9.6155e+08 0 1
052 1 0 9.67968e+08 9.68235e+08 9.69255e+08 9.6926e+08 0 1
053 1 0 9.97105e+08 9.97354e+08 9.98374e+08 9.98379e+08 0 1
054 1 0 1.0086e+09 1.00887e+09 1.00989e+09 1.0099e+09 0 1
055 1 0 1.0357e+09 1.03595e+09 1.03697e+09 1.03698e+09 0 1
056 2 1 1.05329e+09 1.05353e+09 1.05455e+09 1.0546e+09 0 1
057 2 0 1.06462e+09 1.06487e+09 1.06589e+09 1.06813e+09 0 0
058 2 1 1.08052e+09 1.08078e+09 1.0818e+09 1.08181e+09 1 1
059 1 0 1.08858e+09 1.08883e+09 1.08985e+09 1.08986e+09 0 1
060 1 0 1.10027e+09 1.10054e+09 1.10156e+09 1.10159e+09 0 1
061 2 1 1.10621e+09 1.10647e+09 1.10749e+09 1.1075e+09 0 1
062 2 0 1.11387e+09 1.11414e+09 1.11516e+09 1.1152e+09 0 0
063 2 1 1.13345e+09 1.1337e+09 1.13472e+09 1.13489e+09 1 1
064 2 0 1.14522e+09 1.14547e+09 1.14649e+09 1.14655e+09 0 0
065 2 0 1.16118e+09 1.16144e+09 1.16246e+09 1.16251e+09 1 0
066 2 0 1.17073e+09 1.171e+09 1.17202e+09 1.17228e+09 1 0
067 2 1 1.20215e+09 1.2024e+09 1.20342e+09 1.20371e+09 1 1
068 2 1 1.23277e+09 1.23304e+09 1.23406e+09 1.23424e+09 0 1
069 2 0 1.24138e+09 1.24165e+09 1.24267e+09 1.24279e+09 0 0
070 2 1 1.25899e+09 1.25924e+09 1.26026e+09 1.26044e+09 1 1
071 1 0 1.27242e+09 1.27269e+09 1.27371e+09 1.27372e+09 0 1
072 2 1 1.28451e+09 1.28477e+09 1.28579e+09 1.28597e+09 0 1
073 2 0 1.29798e+09 1.29823e+09 1.29925e+09 1.29951e+09 0 0
074 2 1 1.30656e+09 1.30682e+09 1.30784e+09 1.3091e+09 1 1
075 2 0 1.32294e+09 1.32319e+09 1.32421e+09 1.32423e+09 0 0
076 2 1 1.34058e+09 1.34083e+09 1.34185e+09 1.34188e+09 1 1
077 1 0 1.35673e+09 1.35698e+09 1.358e+09 1.35801e+09 0 1
078 1 0 1.37154e+09 1.37181e+09 1.37283e+09 1.37283e+09 0 1
079 2 1 1.38644e+09 1.3867e+09 1.38772e+09 1.38797e+09 0 1
080 2 0 1.41639e+09 1.41664e+09 1.41766e+09 1.41769e+09 0 0
081 2 1 1.43086e+09 1.43111e+09 1.43213e+09 1.43215e+09 1 1
082 2 0 1.4411e+09 1.44137e+09 1.44239e+09 1.44258e+09 0 0
083 2 1 1.4538e+09 1.45407e+09 1.45509e+09 1.45511e+09 1 1
084 2 0 1.46367e+09 1.46393e+09 1.46495e+09 1.46612e+09 0 0
085 2 0 1.47648e+09 1.47674e+09 1.47776e+09 1.47784e+09 1 0
086 2 1 1.48812e+09 1.48838e+09 1.4894e+09 1.48964e+09 1 1
087 1 0 1.49624e+09 1.4965e+09 1.49752e+09 1.49752e+09 0 1
088 1 0 1.50591e+09 1.50616e+09 1.50718e+09 1.50719e+09 0 1
089 1 0 1.52515e+09 1.5254e+09 1.52642e+09 1.52643e+09 0 1
090 2 0 1.53419e+09 1.53444e+09 1.53546e+09 1.53551e+09 0 0
091 2 0 1.54339e+09 1.54365e+09 1.54467e+09 1.54517e+09 1 0
092 2 0 1.55334e+09 1.5536e+09 1.55462e+09 1.55636e+09 1 0
093 2 0 1.56501e+09 1.56527e+09 1.56629e+09 1.5664e+09 1 0
094 1 0 1.577e+09 1.57725e+09 1.57827e+09 1.57828e+09 0 1
095 1 0 1.588e+09 1.58827e+09 1.58929e+09 1.58929e+09 0 1
096 1 0 1.59588e+09 1.59614e+09 1.59716e+09 1.59721e+09 0 1
097 1 1 1.60515e+09 1.6054e+09 1.60642e+09 1.60651e+09 0 0
098 1 0 1.61388e+09 1.61413e+09 1.61515e+09 1.61515e+09 1 1
099 1 0 1.62381e+09 1.62407e+09 1.62509e+09 1.6251e+09 0 1
100 2 0 1.6321e+09 1.63235e+09 1.63337e+09 1.63417e+09 0 0
101 2 0 1.64269e+09 1.64296e+09 1.64398e+09 1.64415e+09 1 0
102 2 1 1.65284e+09 1.6531e+09 1.65412e+09 1.65511e+09 1 1
103 1 0 1.6644e+09 1.66466e+09 1.66568e+09 1.66569e+09 0 1
104 2 0 1.68224e+09 1.6825e+09 1.68352e+09 1.68354e+09 0 0
105 2 0 1.69122e+09 1.69148e+09 1.6925e+09 1.69373e+09 1 0
106 2 0 1.70694e+09 1.70719e+09 1.70822e+09 1.70826e+09 1 0
107 2 1 1.71548e+09 1.71574e+09 1.71676e+09 1.72218e+09 1 1
108 2 1 1.73555e+09 1.73581e+09 1.73683e+09 1.73702e+09 0 1
109 1 0 1.75427e+09 1.75452e+09 1.75554e+09 1.75558e+09 0 1
110 1 0 1.75926e+09 1.75951e+09 1.76053e+09 1.76059e+09 0 1
111 2 1 1.77898e+09 1.77922e+09 1.78024e+09 1.7815e+09 0 1
112 2 1 1.79592e+09 1.79618e+09 1.7972e+09 1.79735e+09 0 1
113 1 0 1.81493e+09 1.81519e+09 1.81621e+09 1.81621e+09 0 1
114 1 0 1.82631e+09 1.82656e+09 1.82758e+09 1.82759e+09 0 1
115 1 0 1.84794e+09 1.8482e+09 1.84922e+09 1.84923e+09 0 1
116 2 1 1.85313e+09 1.85338e+09 1.8544e+09 1.8549e+09 0 1
117 1 1 1.86417e+09 1.86443e+09 1.86545e+09 1.86551e+09 0 0
118 1 0 1.87405e+09 1.8743e+09 1.87532e+09 1.87532e+09 1 1
119 2 1 1.88774e+09 1.888e+09 1.88902e+09 1.88934e+09 0 1
120 2 1 1.9053e+09 1.90556e+09 1.90658e+09 1.90874e+09 0 1
121 2 0 1.92183e+09 1.92211e+09 1.92313e+09 1.92319e+09 0 0
122 2 1 1.93616e+09 1.93643e+09 1.93745e+09 1.93791e+09 1 1
123 2 1 1.94623e+09 1.94648e+09 1.9475e+09 1.94762e+09 0 1
124 1 0 1.95039e+09 1.95064e+09 1.95166e+09 1.95174e+09 0 1
125 2 1 1.9638e+09 1.96406e+09 1.96508e+09 1.96804e+09 0 1
126 1 0 1.98666e+09 1.98693e+09 1.98795e+09 1.98797e+09 0 1
127 2 1 1.99385e+09 1.99411e+09 1.99513e+09 1.99515e+09 0 1
128 1 0 2.00965e+09 2.0099e+09 2.01092e+09 2.01094e+09 0 1
129 1 0 2.02093e+09 2.0212e+09 2.02222e+09 2.02223e+09 0 1
130 1 0 2.03107e+09 2.03133e+09 2.03235e+09 2.03237e+09 0 1
131 1 0 2.05829e+09 2.05854e+09 2.05956e+09 2.05956e+09 0 1
132 1 0 2.07642e+09 2.07668e+09 2.0777e+09 2.07771e+09 0 1
133 2 1 2.08608e+09 2.08634e+09 2.08736e+09 2.08971e+09 0 1
134 2 1 2.10368e+09 2.10394e+09 2.10496e+09 2.10512e+09 0 1
135 2 0 2.11705e+09 2.11732e+09 2.11834e+09 2.11838e+09 0 0
136 2 1 2.12717e+09 2.12743e+09 2.12845e+09 2.12944e+09 1 1
137 2 1 2.14192e+09 2.14217e+09 2.14319e+09 2.14392e+09 0 1
138 1 0 2.15666e+09 2.15691e+09 2.15793e+09 2.15794e+09 0 1
139 2 1 2.1678e+09 2.16807e+09 2.16909e+09 2.16911e+09 0 1
140 1 0 2.17202e+09 2.17227e+09 2.17329e+09 2.1733e+09 0 1
141 2 1 2.19022e+09 2.19049e+09 2.19151e+09 2.19177e+09 0 1
142 2 0 2.20059e+09 2.20084e+09 2.20186e+09 2.20208e+09 0 0
143 2 1 2.21217e+09 2.21241e+09 2.21343e+09 2.218e+09 1 1
144 1 0 2.22533e+09 2.2256e+09 2.22662e+09 2.22663e+09 0 1
145 1 0 2.23564e+09 2.23588e+09 2.2369e+09 2.23691e+09 0 1
146 2 1 2.24744e+09 2.24769e+09 2.24871e+09 2.24914e+09 0 1
147 1 0 2.27185e+09 2.27211e+09 2.27313e+09 2.27314e+09 0 1
148 1 0 2.27939e+09 2.27966e+09 2.28068e+09 2.28074e+09 0 1
149 1 0 2.30728e+09 2.30754e+09 2.30856e+09 2.3086e+09 0 1
150 2 1 2.31662e+09 2.31688e+09 2.3179e+09 2.3196e+09 0 1
151 1 0 2.34729e+09 2.34755e+09 2.34857e+09 2.34858e+09 0 1
152 2 0 2.35253e+09 2.35279e+09 2.35381e+09 2.35384e+09 0 0
153 2 1 2.367e+09 2.36726e+09 2.36828e+09 2.36832e+09 1 1
154 2 1 2.37435e+09 2.3746e+09 2.37562e+09 2.37571e+09 0 1
155 2 0 2.3878e+09 2.38806e+09 2.38908e+09 2.38911e+09 0 0
156 2 1 2.39636e+09 2.39661e+09 2.39763e+09 2.39795e+09 1 1
157 1 0 2.41014e+09 2.41039e+09 2.41141e+09 2.41141e+09 0 1
158 1 0 2.42144e+09 2.4217e+09 2.42272e+09 2.42274e+09 0 1
159 1 0 2.43085e+09 2.43111e+09 2.43213e+09 2.43213e+09 0 1
160 1 0 2.44353e+09 2.44379e+09 2.44481e+09 2.44483e+09 0 1
161 1 0 2.4501e+09 2.45035e+09 2.45137e+09 2.4514e+09 0 1
162 2 1 2.4584e+09 2.45866e+09 2.45968e+09 2.45969e+09 0 1
163 2 1 2.47177e+09 2.47202e+09 2.47304e+09 2.47305e+09 0 1
164 2 0 2.47617e+09 2.47644e+09 2.47746e+09 2.47888e+09 0 0
165 2 1 2.48818e+09 2.48843e+09 2.48945e+09 2.49052e+09 1 1
166 2 1 2.49789e+09 2.49816e+09 2.49918e+09 2.49925e+09 0 1
167 1 0 2.50371e+09 2.50396e+09 2.50498e+09 2.50498e+09 0 1
168 1 0 2.51569e+09 2.51596e+09 2.51698e+09 2.51698e+09 0 1
169 2 1 2.52405e+09 2.52432e+09 2.52534e+09 2.52598e+09 0 1
170 1 0 2.53351e+09 2.53376e+09 2.53478e+09 2.53479e+09 0 1
171 1 0 2.53924e+09 2.5395e+09 2.54052e+09 2.54053e+09 0 1
172 2 0 2.55231e+09 2.55257e+09 2.55359e+09 2.55364e+09 0 0
173 2 1 2.56103e+09 2.56128e+09 2.5623e+09 2.56239e+09 1 1
174 2 1 2.56665e+09 2.5669e+09 2.56792e+09 2.5683e+09 0 1
175 2 1 2.57204e+09 2.57229e+09 2.57331e+09 2.57375e+09 0 1
176 2 1 2.57816e+09 2.57843e+09 2.57945e+09 2.57956e+09 0 1
177 2 1 2.58576e+09 2.58602e+09 2.58704e+09 2.59202e+09 0 1
178 1 0 2.59561e+09 2.59586e+09 2.59688e+09 2.59689e+09 0 1
179 1 0 2.61097e+09 2.61122e+09 2.61224e+09 2.61225e+09 0 1
180 1 0 2.61577e+09 2.61602e+09 2.61704e+09 2.61705e+09 0 1
181 1 0 2.62107e+09 2.62134e+09 2.62236e+09 2.62236e+09 0 1
182 1 0 2.62591e+09 2.62617e+09 2.62719e+09 2.62725e+09 0 1
183 1 1 2.63954e+09 2.6398e+09 2.64082e+09 2.64713e+09 0 0
184 1 1 2.65419e+09 2.65445e+09 2.65547e+09 2.65936e+09 1 0
185 1 1 2.67445e+09 2.6747e+09 2.67572e+09 2.67595e+09 1 0
186 1 0 2.68338e+09 2.68363e+09 2.68465e+09 2.68625e+09 1 1
187 2 1 2.69525e+09 2.6955e+09 2.69652e+09 2.69656e+09 0 1
188 2 1 2.70464e+09 2.70489e+09 2.70591e+09 2.71103e+09 0 1
189 2 1 2.71409e+09 2.71434e+09 2.71536e+09 2.71982e+09 0 1
190 1 0 2.72274e+09 2.72299e+09 2.72401e+09 2.72406e+09 0 1
191 2 1 2.72849e+09 2.72875e+09 2.72977e+09 2.72984e+09 0 1
192 1 0 2.73328e+09 2.73354e+09 2.73456e+09 2.73456e+09 0 1
193 2 1 2.74399e+09 2.74424e+09 2.74526e+09 2.74535e+09 0 1
194 1 0 2.75153e+09 2.75179e+09 2.75281e+09 2.75281e+09 0 1
195 2 0 2.75642e+09 2.75669e+09 2.75771e+09 2.75781e+09 0 0
196 2 0 2.76862e+09 2.76887e+09 2.7699e+09 2.77176e+09 1 0
197 2 0 2.78096e+09 2.78122e+09 2.78224e+09 2.78449e+09 1 0
198 2 1 2.79471e+09 2.79495e+09 2.79597e+09 2.80337e+09 1 1
199 2 0 2.80811e+09 2.80838e+09 2.8094e+09 2.80955e+09 0 0
200 2 0 2.81674e+09 2.817e+09 2.81802e+09 2.8239e+09 1 0
201 2 0 2.83119e+09 2.83145e+09 2.83247e+09 2.83734e+09 1 0
202 2 0 2.84467e+09 2.84493e+09 2.84595e+09 2.84624e+09 1 0
203 1 1 2.85365e+09 2.8539e+09 2.85492e+09 2.87733e+09 0 0
204 1 1 2.88481e+09 2.88506e+09 2.88608e+09 2.88777e+09 0 0
205 1 1 2.89506e+09 2.89532e+09 2.89634e+09 2.89933e+09 0 0
206 1 0 2.90674e+09 2.907e+09 2.90802e+09 2.90867e+09 0 1
207 1 0 2.91243e+09 2.91269e+09 2.91371e+09 2.91371e+09 0 1
208 2 0 2.91708e+09 2.91734e+09 2.91836e+09 2.91839e+09 0 0
209 2 0 2.92611e+09 2.92638e+09 2.9274e+09 2.92746e+09 1 0
210 2 0 2.93489e+09 2.93515e+09 2.93617e+09 2.95827e+09 1 0
211 2 0 2.96536e+09 2.96562e+09 2.96664e+09 2.96709e+09 1 0
212 2 1 2.97422e+09 2.97448e+09 2.97551e+09 2.97568e+09 0 1
213 1 0 2.97982e+09 2.98007e+09 2.98109e+09 2.9811e+09 0 1
214 2 0 2.98453e+09 2.98479e+09 2.98581e+09 2.9883e+09 0 0
215 2 0 2.9955e+09 2.99575e+09 2.99677e+09 2.99763e+09 1 0
216 2 1 3.01069e+09 3.01093e+09 3.01195e+09 3.06818e+09 1 1
217 2 1 3.07197e+09 3.07223e+09 3.07325e+09 3.07429e+09 0 1
218 1 0 3.07718e+09 3.07743e+09 3.07845e+09 3.07857e+09 0 1
219 2 0 3.08143e+09 3.08169e+09 3.08271e+09 3.08524e+09 0 0
220 2 1 3.09305e+09 3.09331e+09 3.09433e+09 3.13178e+09 1 1
221 2 1 3.13701e+09 3.13726e+09 3.13828e+09 3.13839e+09 0 1
222 2 0 3.14229e+09 3.14254e+09 3.14356e+09 3.1437e+09 0 0
223 2 1 3.1517e+09 3.15195e+09 3.15297e+09 3.16301e+09 1 1
224 1 0 3.16578e+09 3.16603e+09 3.16705e+09 3.16709e+09 0 1
225 2 0 3.17163e+09 3.17187e+09 3.17289e+09 3.17301e+09 0 0
226 2 0 3.18167e+09 3.18192e+09 3.18294e+09 3.18709e+09 1 0
227 2 0 3.19962e+09 3.19987e+09 3.20089e+09 3.20091e+09 1 0
228 2 0 3.21402e+09 3.21426e+09 3.21528e+09 3.31216e+09 1 0
229 2 0 3.3193e+09 3.31955e+09 3.32057e+09 3.35857e+09 0 0
230 2 1 3.36597e+09 3.36622e+09 3.36724e+09 3.36868e+09 0 1
231 2 1 3.37406e+09 3.37431e+09 3.37533e+09 3.3787e+09 0 1
232 2 0 3.38675e+09 3.38701e+09 3.38803e+09 3.42243e+09 0 0
233 2 1 3.43352e+09 3.43378e+09 3.4348e+09 3.44271e+09 1 1
234 2 1 3.45001e+09 3.45026e+09 3.45128e+09 3.57668e+09 0 1
235 2 1 3.58039e+09 3.58064e+09 3.58166e+09 3.58207e+09 0 1
236 1 1 3.58619e+09 3.58645e+09 3.58747e+09 3.58761e+09 0 0
237 1 0 3.59507e+09 3.59533e+09 3.59635e+09 3.98761e+09 1 1
238 2 1 3.99016e+09 3.99042e+09 3.99144e+09 1.30285e+09 0 1
