trial trialType response stillTime stimOnset stimOffset respTime correctionTrial correct
001 2 0 3.56353e+06 3.61355e+06 4.63365e+06 5.33142e+08 0 0
002 2 0 5.40418e+08 5.40456e+08 5.41477e+08 5.41867e+08 1 0
003 2 1 5.49736e+08 5.49776e+08 5.50796e+08 5.52735e+08 1 1
004 1 0 5.57749e+08 5.57798e+08 5.58818e+08 5.58951e+08 0 1
005 2 0 5.67954e+08 5.67995e+08 5.69015e+08 5.70827e+08 0 0
006 2 0 5.82209e+08 5.82238e+08 5.83258e+08 5.8478e+08 1 0
007 2 1 5.92609e+08 5.9265e+08 5.9367e+08 5.96732e+08 1 1
008 1 0 6.04617e+08 6.04663e+08 6.05683e+08 6.05698e+08 0 1
009 1 1 6.2357e+08 6.23606e+08 6.24627e+08 6.25223e+08 0 0
010 1 0 6.32465e+08 6.32506e+08 6.33526e+08 6.33999e+08 1 1
011 2 1 6.60028e+08 6.60058e+08 6.61078e+08 6.6117e+08 0 1
012 1 1 6.68267e+08 6.68306e+08 6.69326e+08 6.69337e+08 0 0
013 1 1 6.76859e+08 6.769e+08 6.7792e+08 6.77938e+08 1 0
014 1 0 6.88516e+08 6.88555e+08 6.89575e+08 6.92291e+08 1 1
015 2 1 6.95363e+08 6.95394e+08 6.96414e+08 6.96427e+08 0 1
016 2 1 7.04067e+08 7.04114e+08 7.05134e+08 7.05352e+08 0 1
017 2 0 7.08617e+08 7.08663e+08 7.09684e+08 7.09787e+08 0 0
018 2 0 7.17488e+08 7.17519e+08 7.18539e+08 7.19459e+08 1 0
019 2 1 7.28139e+08 7.28185e+08 7.29206e+08 7.29277e+08 1 1
020 2 1 7.31819e+08 7.3186e+08 7.32881e+08 7.32933e+08 0 1
021 2 1 7.3721e+08 7.3725e+08 7.3827e+08 7.38295e+08 0 1
022 1 1 7.44329e+08 7.44362e+08 7.45382e+08 7.45459e+08 0 0
023 1 1 7.60459e+08 7.60499e+08 7.6152e+08 7.61739e+08 1 0
024 1 0 7.70077e+08 7.70112e+08 7.71133e+08 7.71168e+08 1 1
025 2 1 7.73758e+08 7.73805e+08 7.74825e+08 7.74845e+08 0 1
026 1 0 7.78089e+08 7.78132e+08 7.79152e+08 7.79226e+08 0 1
027 1 1 7.85512e+08 7.85551e+08 7.86572e+08 7.86594e+08 0 0
028 1 0 7.9748e+08 7.97526e+08 7.98546e+08 7.98792e+08 1 1
029 1 0 8.16557e+08 8.16604e+08 8.17624e+08 8.18759e+08 0 1
030 2 1 8.21248e+08 8.21294e+08 8.22314e+08 8.22334e+08 0 1
031 2 0 8.29304e+08 8.29336e+08 8.30356e+08 8.30427e+08 0 0
032 2 1 8.50431e+08 8.50464e+08 8.51484e+08 8.51617e+08 1 1
033 1 1 8.57228e+08 8.57264e+08 8.58284e+08 8.58322e+08 0 0
034 1 1 8.65625e+08 8.65669e+08 8.66689e+08 8.66709e+08 1 0
035 1 0 8.74052e+08 8.74093e+08 8.75113e+08 8.75151e+08 1 1
036 2 1 8.86923e+08 8.86961e+08 8.87981e+08 8.88127e+08 0 1
037 1 0 8.91058e+08 8.91097e+08 8.92117e+08 8.92141e+08 0 1
038 2 0 9.11556e+08 9.11591e+08 9.12611e+08 9.128e+08 0 0
039 2 0 9.28383e+08 9.28425e+08 9.29445e+08 9.30329e+08 1 0
040 2 1 9.39307e+08 9.39343e+08 9.40364e+08 9.41274e+08 1 1
041 1 0 9.4724e+08 9.47282e+08 9.48302e+08 9.48324e+08 0 1
042 2 1 9.546e+08 9.5464e+08 9.5566e+08 9.55686e+08 0 1
043 2 0 9.75174e+08 9.75211e+08 9.76231e+08 9.76547e+08 0 0
044 2 0 9.88651e+08 9.88694e+08 9.89714e+08 9.89767e+08 1 0
045 2 0 1.00248e+09 1.00251e+09 1.00353e+09 1.00392e+09 1 0
046 2 0 1.01194e+09 1.01198e+09 1.013e+09 1.01422e+09 1 0
047 2 1 1.02227e+09 1.0223e+09 1.02332e+09 1.02494e+09 0 1
048 1 0 1.03507e+09 1.0351e+09 1.03612e+09 1.03645e+09 0 1
049 2 1 1.04456e+09 1.04461e+09 1.04563e+09 1.0457e+09 0 1
050 2 0 1.05187e+09 1.0519e+09 1.05292e+09 1.05352e+09 0 0
051 2 0 1.06276e+09 1.06281e+09 1.06383e+09 1.0647e+09 1 0
052 2 1 1.07237e+09 1.07241e+09 1.07343e+09 1.07444e+09 1 1
053 2 1 1.09009e+09 1.09013e+09 1.09115e+09 1.09257e+09 0 1
054 2 1 1.09852e+09 1.09856e+09 1.09958e+09 1.0998e+09 0 1
055 2 0 1.10688e+09 1.10691e+09 1.10793e+09 1.10799e+09 0 0
056 2 1 1.11552e+09 1.11557e+09 1.11659e+09 1.11693e+09 1 1
057 2 1 1.12408e+09 1.12411e+09 1.12513e+09 1.12516e+09 0 1
058 2 1 1.13285e+09 1.13288e+09 1.1339e+09 1.13399e+09 0 1
059 2 1 1.1403e+09 1.14035e+09 1.14137e+09 1.14168e+09 0 1
060 2 0 1.15277e+09 1.1528e+09 1.15382e+09 1.15386e+09 0 0
061 2 0 1.19099e+09 1.19103e+09 1.19205e+09 1.19208e+09 1 0
062 2 0 1.19997e+09 1.20001e+09 1.20103e+09 1.20108e+09 1 0
063 2 0 1.2096e+09 1.20963e+09 1.21065e+09 1.21068e+09 1 0
064 2 1 1.22159e+09 1.22162e+09 1.22264e+09 1.2227e+09 0 1
065 2 0 1.22994e+09 1.22998e+09 1.231e+09 1.23111e+09 0 0
066 2 0 1.24979e+09 1.24983e+09 1.25085e+09 1.25103e+09 1 0
067 2 1 1.26091e+09 1.26095e+09 1.26197e+09 1.26374e+09 1 1
068 1 0 1.2825e+09 1.28255e+09 1.28357e+09 1.28386e+09 0 1
069 2 1 1.29707e+09 1.2971e+09 1.29812e+09 1.29814e+09 0 1
070 2 0 1.30125e+09 1.30129e+09 1.30231e+09 1.30236e+09 0 0
071 2 1 1.30977e+09 1.30982e+09 1.31084e+09 1.31234e+09 1 1
072 1 1 1.33345e+09 1.33349e+09 1.33451e+09 1.33583e+09 0 0
073 1 0 1.34923e+09 1.34926e+09 1.35028e+09 1.35036e+09 1 1
074 2 1 1.35483e+09 1.35488e+09 1.3559e+09 1.35608e+09 0 1
075 1 0 1.35914e+09 1.35917e+09 1.36019e+09 1.3604e+09 0 1
076 1 1 1.37557e+09 1.37561e+09 1.37663e+09 1.37667e+09 0 0
077 1 0 1.38627e+09 1.38631e+09 1.38733e+09 1.38753e+09 1 1
078 1 0 1.39352e+09 1.39355e+09 1.39457e+09 1.39459e+09 0 1
079 1 0 1.40955e+09 1.40958e+09 1.4106e+09 1.41152e+09 0 1
080 1 1 1.48521e+09 1.48524e+09 1.48626e+09 1.48715e+09 0 0
081 1 0 1.50101e+09 1.50106e+09 1.50208e+09 1.50475e+09 1 1
082 2 1 1.50957e+09 1.5096e+09 1.51062e+09 1.51074e+09 0 1
083 2 1 1.52825e+09 1.52829e+09 1.52931e+09 1.52998e+09 0 1
084 1 1 1.53304e+09 1.53309e+09 1.53411e+09 1.53416e+09 0 0
085 1 0 1.55793e+09 1.55798e+09 1.559e+09 1.56042e+09 1 1
086 1 1 1.57594e+09 1.57599e+09 1.57701e+09 1.57801e+09 0 0
087 1 1 1.58778e+09 1.58782e+09 1.58884e+09 1.58981e+09 1 0
088 1 0 1.5999e+09 1.59994e+09 1.60096e+09 1.60377e+09 1 1
089 2 0 1.60739e+09 1.60742e+09 1.60844e+09 1.6085e+09 0 0
090 2 0 1.6166e+09 1.61664e+09 1.61766e+09 1.61857e+09 1 0
091 2 0 1.62808e+09 1.62811e+09 1.62913e+09 1.63025e+09 1 0
092 2 1 1.64672e+09 1.64677e+09 1.64779e+09 1.64914e+09 1 1
093 1 1 1.65235e+09 1.65239e+09 1.65341e+09 1.65431e+09 0 0
094 1 1 1.66173e+09 1.66177e+09 1.66279e+09 1.66299e+09 1 0
095 1 1 1.67518e+09 1.67523e+09 1.67625e+09 1.67641e+09 1 0
096 1 0 1.69187e+09 1.69191e+09 1.69293e+09 1.69498e+09 1 1
097 2 1 1.69732e+09 1.69735e+09 1.69837e+09 1.6984e+09 0 1
098 1 0 1.71175e+09 1.71179e+09 1.71281e+09 1.71394e+09 0 1
099 1 1 1.76671e+09 1.76675e+09 1.76777e+09 1.76784e+09 0 0
100 1 0 1.77769e+09 1.77772e+09 1.77874e+09 1.77927e+09 1 1
101 1 1 1.79022e+09 1.79026e+09 1.79128e+09 1.79138e+09 0 0
102 1 0 1.81971e+09 1.81974e+09 1.82076e+09 1.82091e+09 1 1
103 2 1 1.83352e+09 1.83356e+09 1.83458e+09 1.83459e+09 0 1
104 1 0 1.88292e+09 1.88296e+09 1.88398e+09 1.88448e+09 0 1
105 1 0 1.8944e+09 1.89445e+09 1.89547e+09 1.89549e+09 0 1
106 2 0 1.9115e+09 1.91154e+09 1.91256e+09 1.91369e+09 0 0
107 2 0 1.93247e+09 1.9325e+09 1.93352e+09 1.93394e+09 1 0
108 2 1 1.94318e+09 1.94322e+09 1.94424e+09 1.9445e+09 1 1
109 1 0 1.96123e+09 1.96127e+09 1.96229e+09 1.96238e+09 0 1
110 2 0 1.96517e+09 1.96521e+09 1.96623e+09 1.96627e+09 0 0
111 2 0 1.97599e+09 1.97603e+09 1.97705e+09 1.97743e+09 1 0
112 2 0 1.98967e+09 1.98971e+09 1.99073e+09 1.991e+09 1 0
113 2 0 1.99918e+09 1.99922e+09 2.00024e+09 2.0003e+09 1 0
114 1 0 2.01131e+09 2.01135e+09 2.01237e+09 2.01245e+09 0 1
115 2 1 2.02528e+09 2.02532e+09 2.02634e+09 2.02646e+09 0 1
116 2 0 2.02928e+09 2.0293e+09 2.03032e+09 2.03042e+09 0 0
117 2 0 2.062e+09 2.06203e+09 2.06305e+09 2.06746e+09 1 0
118 2 0 2.078e+09 2.07803e+09 2.07905e+09 2.07955e+09 1 0
119 2 0 2.11445e+09 2.11449e+09 2.11551e+09 2.11649e+09 1 0
120 1 0 2.13737e+09 2.13741e+09 2.13843e+09 2.14199e+09 0 1
121 2 0 2.16185e+09 2.16189e+09 2.16291e+09 2.16406e+09 0 0
122 2 0 2.17115e+09 2.17119e+09 2.17221e+09 2.17239e+09 1 0
123 2 1 2.17951e+09 2.17954e+09 2.18056e+09 2.1816e+09 1 1
124 1 0 2.20507e+09 2.2051e+09 2.20612e+09 2.20642e+09 0 1
125 1 0 2.22965e+09 2.22969e+09 2.23071e+09 2.23257e+09 0 1
126 2 0 2.24307e+09 2.24311e+09 2.24413e+09 2.24476e+09 0 0
127 2 0 2.25334e+09 2.25338e+09 2.2544e+09 2.25442e+09 1 0
128 2 0 2.2759e+09 2.27594e+09 2.27696e+09 2.27697e+09 1 0
129 2 1 2.28756e+09 2.28759e+09 2.28861e+09 2.28869e+09 1 1
130 1 1 2.29445e+09 2.29449e+09 2.29551e+09 2.29563e+09 0 0
131 1 0 2.30309e+09 2.30312e+09 2.30414e+09 2.30438e+09 1 1
132 1 1 2.31883e+09 2.31888e+09 2.3199e+09 2.31991e+09 0 0
133 1 0 2.32702e+09 2.32707e+09 2.32809e+09 2.32814e+09 1 1
134 1 1 2.33231e+09 2.33235e+09 2.33337e+09 2.33341e+09 0 0
135 1 1 2.34503e+09 2.34508e+09 2.3461e+09 2.3462e+09 1 0
136 1 0 2.35657e+09 2.35661e+09 2.35763e+09 2.35843e+09 1 1
137 1 1 2.37513e+09 2.37517e+09 2.37619e+09 2.3762e+09 0 0
138 1 0 2.39583e+09 2.39587e+09 2.39689e+09 2.39695e+09 1 1
139 1 0 2.4002e+09 2.40025e+09 2.40127e+09 2.4013e+09 0 1
140 1 1 2.41518e+09 2.41521e+09 2.41623e+09 2.4171e+09 0 0
141 1 0 2.42627e+09 2.42632e+09 2.42734e+09 2.42807e+09 1 1
142 1 1 2.43833e+09 2.43837e+09 2.43939e+09 2.43941e+09 0 0
143 1 1 2.44667e+09 2.44672e+09 2.44774e+09 2.44846e+09 1 0
144 1 1 2.45554e+09 2.45557e+09 2.45659e+09 2.4566e+09 1 0
145 1 0 2.46609e+09 2.46613e+09 2.46715e+09 2.46739e+09 1 1
146 1 0 2.48273e+09 2.48277e+09 2.48379e+09 2.48386e+09 0 1
147 2 0 2.51093e+09 2.51097e+09 2.51199e+09 2.51252e+09 0 0
148 2 0 2.52327e+09 2.52332e+09 2.52434e+09 2.52456e+09 1 0
149 2 1 2.53771e+09 2.53775e+09 2.53877e+09 2.53956e+09 1 1
150 2 1 2.5428e+09 2.54285e+09 2.54387e+09 2.54394e+09 0 1
151 1 0 2.57217e+09 2.57221e+09 2.57323e+09 2.57325e+09 0 1
152 1 1 2.58087e+09 2.58091e+09 2.58193e+09 2.58195e+09 0 0
153 1 0 2.59679e+09 2.59683e+09 2.59785e+09 2.59866e+09 1 1
154 1 0 2.68409e+09 2.68412e+09 2.68514e+09 2.68555e+09 0 1
155 1 0 2.69294e+09 2.69298e+09 2.694e+09 2.69404e+09 0 1
156 2 1 2.71102e+09 2.71107e+09 2.71209e+09 2.71381e+09 0 1
157 1 0 2.73396e+09 2.73399e+09 2.73501e+09 2.73548e+09 0 1
158 2 1 2.73826e+09 2.73829e+09 2.73931e+09 2.73933e+09 0 1
159 2 0 2.74897e+09 2.74901e+09 2.75003e+09 2.75055e+09 0 0
160 2 0 2.76139e+09 2.76143e+09 2.76245e+09 2.76265e+09 1 0
161 2 0 2.77426e+09 2.77429e+09 2.77531e+09 2.77542e+09 1 0
162 2 0 2.78245e+09 2.78249e+09 2.78351e+09 2.78394e+09 1 0
163 1 0 2.79522e+09 2.79525e+09 2.79627e+09 2.79629e+09 0 1
164 1 1 2.79958e+09 2.79962e+09 2.80064e+09 2.80067e+09 0 0
165 1 0 2.814e+09 2.81403e+09 2.81505e+09 2.81525e+09 1 1
166 2 0 2.82986e+09 2.82991e+09 2.83093e+09 2.83094e+09 0 0
167 2 0 2.84589e+09 2.84593e+09 2.84695e+09 2.84795e+09 1 0
168 2 0 2.87252e+09 2.87256e+09 2.87358e+09 2.87363e+09 1 0
169 2 0 2.88521e+09 2.88525e+09 2.88627e+09 2.88846e+09 1 0
170 1 0 2.89603e+09 2.89607e+09 2.89709e+09 2.8971e+09 0 1
171 1 0 2.90342e+09 2.90345e+09 2.90447e+09 2.9045e+09 0 1
172 2 1 2.91338e+09 2.91342e+09 2.91444e+09 2.91448e+09 0 1
173 1 0 2.91824e+09 2.91828e+09 2.9193e+09 2.91934e+09 0 1
174 2 0 2.92616e+09 2.9262e+09 2.92722e+09 2.92753e+09 0 0
175 2 0 2.93908e+09 2.93912e+09 2.94014e+09 2.94155e+09 1 0
176 2 0 2.94868e+09 2.94872e+09 2.94974e+09 2.95146e+09 1 0
177 2 0 2.9646e+09 2.96464e+09 2.96566e+09 2.96567e+09 1 0
178 2 1 2.97319e+09 2.97323e+09 2.97425e+09 2.97433e+09 0 1
179 1 0 2.98728e+09 2.98732e+09 2.98834e+09 2.98853e+09 0 1
180 1 0 3.00433e+09 3.00436e+09 3.00538e+09 3.00654e+09 0 1
181 2 0 3.02423e+09 3.02427e+09 3.02529e+09 3.02772e+09 0 0
182 2 0 3.03496e+09 3.03499e+09 3.03601e+09 3.03605e+09 1 0
183 2 0 3.04586e+09 3.04591e+09 3.04693e+09 3.04857e+09 1 0
184 2 0 3.05606e+09 3.0561e+09 3.05712e+09 3.05714e+09 1 0
185 1 0 3.096e+09 3.09603e+09 3.09705e+09 3.10086e+09 0 1
186 2 0 3.11709e+09 3.11714e+09 3.11816e+09 3.11822e+09 0 0
187 2 1 3.1377e+09 3.13774e+09 3.13876e+09 3.13881e+09 1 1
188 2 0 3.15415e+09 3.15419e+09 3.15521e+09 3.15534e+09 0 0
189 2 0 3.16268e+09 3.16273e+09 3.16375e+09 3.16377e+09 1 0
190 2 1 3.1753e+09 3.17533e+09 3.17635e+09 3.17636e+09 1 1
191 2 0 3.19017e+09 3.19021e+09 3.19123e+09 3.19125e+09 0 0
192 2 0 3.20541e+09 3.20545e+09 3.20647e+09 3.21056e+09 1 0
193 2 0 3.22191e+09 3.22195e+09 3.22297e+09 3.22936e+09 1 0
194 2 0 3.23764e+09 3.23768e+09 3.2387e+09 3.24624e+09 1 0
195 2 0 3.25344e+09 3.25349e+09 3.25451e+09 3.25597e+09 0 0
196 2 0 3.26308e+09 3.26312e+09 3.26414e+09 3.26414e+09 0 0
197 1 0 3.27126e+09 3.27129e+09 3.27231e+09 3.27354e+09 0 1
198 1 0 3.28505e+09 3.28509e+09 3.28611e+09 3.28808e+09 0 1
199 1 0 3.29811e+09 3.29815e+09 3.29917e+09 3.30047e+09 0 1
200 2 1 3.31148e+09 3.31152e+09 3.31254e+09 3.31255e+09 0 1
201 2 1 3.31875e+09 3.31879e+09 3.31981e+09 3.32021e+09 0 1
202 2 1 3.32961e+09 3.32965e+09 3.33067e+09 3.33073e+09 0 1
203 1 0 3.3392e+09 3.33923e+09 3.34025e+09 3.34026e+09 0 1
204 1 0 3.35218e+09 3.35222e+09 3.35324e+09 3.35326e+09 0 1
205 1 0 3.36527e+09 3.3653e+09 3.36632e+09 3.36636e+09 0 1
206 1 0 3.3875e+09 3.38755e+09 3.38857e+09 3.38858e+09 0 1
207 1 0 3.39883e+09 3.39887e+09 3.39989e+09 3.39991e+09 0 1
208 2 1 3.40324e+09 3.40328e+09 3.4043e+09 3.40456e+09 0 1
209 2 0 3.41765e+09 3.41769e+09 3.41871e+09 3.41873e+09 0 0
210 2 0 3.4305e+09 3.43054e+09 3.43156e+09 3.43157e+09 1 0
211 2 0 3.44252e+09 3.44255e+09 3.44357e+09 3.44371e+09 1 0
212 2 0 3.45185e+09 3.45188e+09 3.4529e+09 3.45457e+09 1 0
213 1 0 3.47509e+09 3.47513e+09 3.47615e+09 3.47684e+09 0 1
214 2 0 3.48852e+09 3.48857e+09 3.48959e+09 3.48972e+09 0 0
215 2 0 3.49826e+09 3.4983e+09 3.49932e+09 3.49987e+09 1 0
216 2 0 3.52817e+09 3.52821e+09 3.52923e+09 3.53048e+09 1 0
217 2 0 3.53974e+09 3.53978e+09 3.5408e+09 3.54156e+09 1 0
218 1 1 3.55596e+09 3.556e+09 3.55702e+09 3.5571e+09 0 0
219 1 0 3.57092e+09 3.57096e+09 3.57198e+09 3.57225e+09 0 1
220 1 0 3.58106e+09 3.58109e+09 3.58211e+09 3.58242e+09 0 1
221 2 0 3.5903e+09 3.59033e+09 3.59135e+09 3.59144e+09 0 0
222 2 0 3.60655e+09 3.60659e+09 3.60761e+09 3.60762e+09 1 0
223 2 1 3.61758e+09 3.61761e+09 3.61863e+09 3.61865e+09 1 1
224 2 0 3.63235e+09 3.63239e+09 3.63341e+09 3.63343e+09 0 0
225 2 0 3.64181e+09 3.64185e+09 3.64287e+09 3.64353e+09 1 0
226 2 0 3.65205e+09 3.6521e+09 3.65312e+09 3.65388e+09 1 0
227 2 0 3.67052e+09 3.67056e+09 3.67158e+09 3.67373e+09 1 0
228 1 0 3.68779e+09 3.68784e+09 3.68886e+09 3.6907e+09 0 1
229 2 0 3.70407e+09 3.70411e+09 3.70513e+09 3.70565e+09 0 0
230 2 0 3.71761e+09 3.71766e+09 3.71868e+09 3.72762e+09 1 0
231 2 0 3.73999e+09 3.74004e+09 3.74106e+09 3.7412e+09 1 0
232 2 0 3.7546e+09 3.75464e+09 3.75566e+09 3.7557e+09 1 0
233 2 0 3.78451e+09 3.78455e+09 3.78557e+09 3.78558e+09 0 0
234 1 1 3.79313e+09 3.79317e+09 3.79419e+09 3.79475e+09 0 0
235 1 0 3.80775e+09 3.8078e+09 3.80882e+09 3.8125e+09 0 1
236 1 1 3.81879e+09 3.81883e+09 3.81985e+09 3.82137e+09 0 0
237 1 0 3.84533e+09 3.84538e+09 3.8464e+09 3.84836e+09 1 1
238 1 1 3.85073e+09 3.85076e+09 3.85178e+09 3.85189e+09 0 0
239 1 0 3.86101e+09 3.86104e+09 3.86206e+09 3.86208e+09 1 1
240 1 1 3.87725e+09 3.87728e+09 3.8783e+09 3.87842e+09 0 0
241 1 0 3.88879e+09 3.88882e+09 3.88984e+09 3.88991e+09 1 1
242 2 0 3.90255e+09 3.90259e+09 3.90361e+09 3.90384e+09 0 0
243 2 0 3.91487e+09 3.91492e+09 3.91594e+09 3.91773e+09 1 0
244 2 0 3.92616e+09 3.92619e+09 3.92721e+09 3.92869e+09 1 0
245 2 0 3.94899e+09 3.94903e+09 3.95005e+09 3.95173e+09 1 0
246 1 0 3.96689e+09 3.96694e+09 3.96796e+09 3.97016e+09 0 1
247 2 1 3.98627e+09 3.98632e+09 3.98734e+09 3.98737e+09 0 1
248 2 1 4.00077e+09 4.0008e+09 4.00182e+09 4.00185e+09 0 1
249 2 0 4.01294e+09 4.01298e+09 4.014e+09 4.01424e+09 0 0
250 2 1 4.02313e+09 4.02317e+09 4.02419e+09 4.0242e+09 1 1
251 1 0 4.03179e+09 4.03184e+09 4.03286e+09 4.0329e+09 0 1
252 1 0 4.05381e+09 4.05385e+09 4.05487e+09 4.05492e+09 0 1
253 2 1 4.06244e+09 4.06247e+09 4.06349e+09 4.06353e+09 0 1
254 2 0 4.08526e+09 4.0853e+09 4.08632e+09 4.08632e+09 0 0
255 2 0 4.09913e+09 4.09916e+09 4.10018e+09 4.1006e+09 1 0
256 2 0 4.11565e+09 4.11569e+09 4.11671e+09 4.11673e+09 1 0
257 2 0 4.14087e+09 4.1409e+09 4.14192e+09 4.14253e+09 1 0
258 1 0 4.15885e+09 4.15888e+09 4.1599e+09 4.16117e+09 0 1
259 2 0 4.17014e+09 4.17018e+09 4.1712e+09 4.17124e+09 0 0
260 2 1 4.18005e+09 4.18009e+09 4.18111e+09 4.18113e+09 1 1
261 2 0 4.20011e+09 4.20014e+09 4.20116e+09 4.20377e+09 0 0
262 2 0 4.21941e+09 4.21944e+09 4.22046e+09 4.22145e+09 1 0
263 2 0 4.23237e+09 4.23241e+09 4.23343e+09 4.23568e+09 1 0
264 2 0 4.24327e+09 4.24332e+09 4.24434e+09 4.24505e+09 1 0
265 1 0 4.25389e+09 4.25393e+09 4.25495e+09 4.25659e+09 0 1
266 1 0 4.26513e+09 4.26518e+09 4.2662e+09 4.26621e+09 0 1
267 2 1 4.27954e+09 4.27957e+09 4.28059e+09 4.28067e+09 0 1
268 2 0 1.19511e+07 1.19918e+07 1.30119e+07 1.39114e+07 0 0
269 2 1 2.15532e+07 2.15914e+07 2.26115e+07 2.26466e+07 1 1
270 2 0 3.07896e+07 3.0827e+07 3.18471e+07 3.31702e+07 0 0
271 2 0 4.05289e+07 4.05693e+07 4.15894e+07 4.17117e+07 1 0
272 2 1 4.90066e+07 4.90381e+07 5.00582e+07 5.05282e+07 1 1
273 1 0 5.46273e+07 5.46667e+07 5.56868e+07 5.57535e+07 0 1
274 1 0 7.0101e+07 7.01348e+07 7.11549e+07 7.1937e+07 0 1
275 2 0 7.89555e+07 7.89904e+07 8.00105e+07 8.00383e+07 0 0
276 2 0 1.0079e+08 1.00823e+08 1.01843e+08 1.0461e+08 1 0
277 2 0 1.18996e+08 1.1903e+08 1.2005e+08 1.21817e+08 1 0
278 2 0 1.33584e+08 1.33614e+08 1.34635e+08 1.34702e+08 1 0
279 1 0 1.47893e+08 1.47924e+08 1.48944e+08 1.52846e+08 0 1
280 1 1 1.55459e+08 1.55503e+08 1.56523e+08 1.56628e+08 0 0
281 1 0 1.68628e+08 1.68663e+08 1.69683e+08 1.69866e+08 1 1
282 2 1 1.7844e+08 1.78482e+08 1.79502e+08 1.79512e+08 0 1
283 1 0 1.89702e+08 1.89732e+08 1.90752e+08 1.91542e+08 0 1
284 2 1 1.96533e+08 1.96566e+08 1.97586e+08 1.97596e+08 0 1
285 1 0 2.01133e+08 2.01174e+08 2.02195e+08 2.02551e+08 0 1
286 2 0 2.15818e+08 2.15852e+08 2.16872e+08 2.1806e+08 0 0
287 2 0 2.43307e+08 2.43344e+08 2.44364e+08 2.45892e+08 1 0
288 2 0 2.53123e+08 2.53161e+08 2.54181e+08 2.54848e+08 1 0
289 2 1 2.92468e+08 2.92514e+08 2.93534e+08 2.93568e+08 1 1
290 1 1 3.07129e+08 3.07165e+08 3.08185e+08 3.11011e+08 0 0
291 1 0 3.18246e+08 3.18279e+08 3.19299e+08 3.23723e+08 1 1
292 2 0 3.29464e+08 3.29502e+08 3.30522e+08 3.31508e+08 0 0
293 2 0 3.39601e+08 3.39636e+08 3.40656e+08 3.40674e+08 1 0
294 2 0 3.4876e+08 3.48802e+08 3.49822e+08 3.49845e+08 1 0
295 2 0 3.58908e+08 3.58951e+08 3.59971e+08 3.60749e+08 1 0
296 2 1 4.10917e+08 4.10951e+08 4.11971e+08 4.1198e+08 0 1
297 2 0 4.17797e+08 4.17833e+08 4.18853e+08 4.2126e+08 0 0
298 2 0 4.28612e+08 4.28657e+08 4.29677e+08 4.3137e+08 1 0
299 2 0 4.38913e+08 4.38956e+08 4.39977e+08 4.40621e+08 1 0
300 2 0 4.48534e+08 4.48576e+08 4.49596e+08 4.52048e+08 1 0
301 2 0 4.59187e+08 4.59224e+08 4.60244e+08 4.64913e+08 0 0
302 2 1 4.72204e+08 4.72253e+08 4.73273e+08 4.73325e+08 0 1
303 2 0 4.90097e+08 4.90141e+08 4.91162e+08 4.91634e+08 0 0
304 2 0 5.01407e+08 5.01444e+08 5.02464e+08 5.02489e+08 1 0
305 2 0 5.11114e+08 5.11154e+08 5.12174e+08 5.12195e+08 1 0
306 2 0 5.19662e+08 5.19707e+08 5.20727e+08 5.22553e+08 1 0
307 2 0 5.29998e+08 5.30031e+08 5.31051e+08 5.31076e+08 0 0
308 1 0 5.39229e+08 5.39265e+08 5.40285e+08 5.41208e+08 0 1
309 1 0 5.50579e+08 5.50626e+08 5.51646e+08 5.52478e+08 0 1
310 1 0 5.70937e+08 5.70973e+08 5.71993e+08 5.72907e+08 0 1
311 1 0 5.75204e+08 5.75243e+08 5.76263e+08 5.76504e+08 0 1
312 1 0 5.85396e+08 5.85436e+08 5.86456e+08 5.865e+08 0 1
313 1 0 5.88786e+08 5.8883e+08 5.8985e+08 5.8994e+08 0 1
314 2 0 6.05242e+08 6.05275e+08 6.06295e+08 6.06673e+08 0 0
315 2 0 6.15267e+08 6.15314e+08 6.16334e+08 6.20593e+08 1 0
316 2 0 6.39397e+08 6.3944e+08 6.4046e+08 6.41282e+08 1 0
317 2 0 6.51501e+08 6.51531e+08 6.52551e+08 6.54657e+08 1 0
318 1 0 6.64039e+08 6.64081e+08 6.65101e+08 6.65563e+08 0 1
319 2 0 6.78364e+08 6.78409e+08 6.79429e+08 6.79504e+08 0 0
320 2 0 6.86646e+08 6.86678e+08 6.87698e+08 6.88472e+08 1 0
321 2 1 6.95834e+08 6.9587e+08 6.9689e+08 6.9696e+08 1 1
322 2 1 7.01714e+08 7.0175e+08 7.0277e+08 7.02796e+08 0 1
323 2 0 7.22292e+08 7.2233e+08 7.2335e+08 7.2372e+08 0 0
324 2 1 7.30838e+08 7.30872e+08 7.31892e+08 7.31975e+08 1 1
325 1 0 7.40592e+08 7.40627e+08 7.41647e+08 7.41713e+08 0 1
326 1 1 7.4966e+08 7.49691e+08 7.50711e+08 7.50726e+08 0 0
327 1 0 7.59504e+08 7.59542e+08 7.60563e+08 7.66153e+08 1 1
328 2 1 7.77869e+08 7.77911e+08 7.78931e+08 7.80964e+08 0 1
329 2 0 7.85709e+08 7.85742e+08 7.86762e+08 7.89192e+08 0 0
330 2 0 7.96319e+08 7.96361e+08 7.97381e+08 7.9994e+08 1 0
331 2 0 8.09796e+08 8.09829e+08 8.10849e+08 8.14275e+08 1 0
332 2 0 8.24056e+08 8.24098e+08 8.25118e+08 8.25265e+08 1 0
333 2 0 8.32713e+08 8.32752e+08 8.33772e+08 8.33803e+08 0 0
334 1 0 8.51036e+08 8.51066e+08 8.52086e+08 8.52095e+08 0 1
335 1 1 8.57433e+08 8.57477e+08 8.58497e+08 8.58986e+08 0 0
336 1 0 8.71909e+08 8.71948e+08 8.72968e+08 8.76845e+08 1 1
337 2 1 8.80082e+08 8.80126e+08 8.81146e+08 8.81295e+08 0 1
338 2 0 8.915e+08 8.91531e+08 8.92551e+08 8.92576e+08 0 0
339 2 0 9.01261e+08 9.01307e+08 9.02327e+08 9.06553e+08 1 0
340 2 0 9.14021e+08 9.14063e+08 9.15083e+08 9.1511e+08 1 0
341 2 0 9.23061e+08 9.23102e+08 9.24123e+08 9.24701e+08 1 0
342 1 1 9.34598e+08 9.34641e+08 9.35661e+08 9.35773e+08 0 0
343 2 0 9.46659e+08 9.46709e+08 9.47729e+08 9.50246e+08 0 0
344 1 0 9.5738e+08 9.5742e+08 9.58441e+08 9.59942e+08 0 1
345 1 0 9.62973e+08 9.63012e+08 9.64032e+08 9.64082e+08 0 1
346 2 0 9.72039e+08 9.72082e+08 9.73102e+08 9.73355e+08 0 0
347 2 0 9.83603e+08 9.8365e+08 9.8467e+08 9.92503e+08 1 0
348 2 0 1.0045e+09 1.00454e+09 1.00556e+09 1.00561e+09 1 0
349 2 0 1.01266e+09 1.01269e+09 1.01371e+09 1.0238e+09 1 0
350 2 1 1.04015e+09 1.0402e+09 1.04122e+09 1.04934e+09 0 1
351 1 0 1.05162e+09 1.05166e+09 1.05268e+09 1.05302e+09 0 1
352 1 0 1.05977e+09 1.0598e+09 1.06082e+09 1.06734e+09 0 1
353 2 1 1.0777e+09 1.07773e+09 1.07875e+09 1.07877e+09 0 1
354 1 0 1.08532e+09 1.08536e+09 1.08638e+09 1.09945e+09 0 1
355 1 0 1.10836e+09 1.10839e+09 1.10941e+09 1.12447e+09 0 1
356 1 0 1.14192e+09 1.14196e+09 1.14298e+09 1.14362e+09 0 1
357 2 1 1.15028e+09 1.15031e+09 1.15133e+09 1.16183e+09 0 1
358 1 0 1.16579e+09 1.16583e+09 1.16685e+09 1.17483e+09 0 1
359 2 0 1.18382e+09 1.18386e+09 1.18488e+09 1.2005e+09 0 0
360 2 0 1.20768e+09 1.20773e+09 1.20875e+09 1.21411e+09 1 0
361 2 0 1.22173e+09 1.22176e+09 1.22278e+09 1.23506e+09 1 0
362 2 0 1.24501e+09 1.24505e+09 1.24607e+09 1.25903e+09 1 0
363 1 0 1.26826e+09 1.26829e+09 1.26931e+09 1.30096e+09 0 1
364 1 0 1.30843e+09 1.30847e+09 1.30949e+09 1.30952e+09 0 1
365 1 0 1.3182e+09 1.31823e+09 1.31925e+09 1.3324e+09 0 1
366 2 0 1.3433e+09 1.34335e+09 1.34437e+09 1.3466e+09 0 0
367 2 0 1.35386e+09 1.3539e+09 1.35492e+09 1.37644e+09 1 0
368 2 0 1.38587e+09 1.38591e+09 1.38693e+09 1.4063e+09 1 0
369 2 0 1.41373e+09 1.41377e+09 1.41479e+09 1.44378e+09 1 0
370 1 0 1.45163e+09 1.45166e+09 1.45268e+09 1.45717e+09 0 1
371 1 0 1.46052e+09 1.46055e+09 1.46157e+09 1.46183e+09 0 1
372 1 0 1.46621e+09 1.46624e+09 1.46726e+09 1.47107e+09 0 1
373 2 0 1.47645e+09 1.47649e+09 1.47751e+09 1.48278e+09 0 0
374 2 0 1.49019e+09 1.49023e+09 1.49125e+09 1.49506e+09 1 0
375 2 0 1.50259e+09 1.50263e+09 1.50365e+09 1.50761e+09 1 0
376 2 1 1.5165e+09 1.51655e+09 1.51757e+09 1.53963e+09 1 1
377 2 0 1.54401e+09 1.54406e+09 1.54508e+09 1.54917e+09 0 0
