trial trialType response stillTime stimOnset stimOffset respTime correctionTrial correct
001 5 1 1.4294e+07 1.46108e+07 1.56309e+07 1.56962e+07 0 1
002 3 0 1.92911e+07 1.95747e+07 2.05948e+07 2.06054e+07 0 99
003 5 0 4.9321e+07 4.96002e+07 5.06203e+07 5.06588e+07 0 0
004 5 1 5.9862e+07 6.01209e+07 6.11409e+07 6.11511e+07 1 1
005 5 1 8.27853e+07 8.30323e+07 8.40523e+07 8.41022e+07 0 1
006 1 0 8.9131e+07 8.93823e+07 9.04023e+07 9.04075e+07 0 1
007 1 0 9.67537e+07 9.7002e+07 9.80221e+07 9.8048e+07 0 1
008 5 1 1.02604e+08 1.02864e+08 1.03884e+08 1.04066e+08 0 1
009 1 0 1.32126e+08 1.32377e+08 1.33397e+08 1.33407e+08 0 1
010 1 0 1.41745e+08 1.42004e+08 1.43024e+08 1.43103e+08 0 1
011 4 1 1.4925e+08 1.49507e+08 1.50527e+08 1.50594e+08 0 99
012 2 0 1.54453e+08 1.54714e+08 1.55734e+08 1.55739e+08 0 99
013 1 0 1.58836e+08 1.59092e+08 1.60112e+08 1.60291e+08 0 1
014 5 1 1.64368e+08 1.64626e+08 1.65646e+08 1.66137e+08 0 1
015 1 0 1.72263e+08 1.72522e+08 1.73542e+08 1.73572e+08 0 1
016 5 1 1.82771e+08 1.83033e+08 1.84053e+08 1.84136e+08 0 1
017 5 1 1.91027e+08 1.91287e+08 1.92307e+08 1.92394e+08 0 1
018 1 0 2.00781e+08 2.01046e+08 2.02066e+08 2.02074e+08 0 1
019 3 0 2.18326e+08 2.18593e+08 2.19613e+08 2.19783e+08 0 99
020 1 0 2.27425e+08 2.27674e+08 2.28694e+08 2.28704e+08 0 1
021 3 1 2.313e+08 2.31564e+08 2.32584e+08 2.32605e+08 0 99
022 1 0 2.45809e+08 2.46064e+08 2.47084e+08 2.47096e+08 0 1
023 1 0 2.65755e+08 2.66017e+08 2.67037e+08 2.67046e+08 0 1
024 1 0 2.77992e+08 2.78251e+08 2.79271e+08 2.79371e+08 0 1
025 5 0 2.83547e+08 2.83816e+08 2.84836e+08 2.84873e+08 0 0
026 5 0 2.96175e+08 2.96433e+08 2.97453e+08 2.99485e+08 1 0
027 5 1 3.10353e+08 3.10603e+08 3.11623e+08 3.12338e+08 1 1
028 5 0 3.20384e+08 3.20646e+08 3.21666e+08 3.23905e+08 0 0
029 5 1 3.31213e+08 3.31468e+08 3.32488e+08 3.32498e+08 1 1
030 2 0 3.35462e+08 3.35724e+08 3.36744e+08 3.3675e+08 0 99
031 1 0 3.78812e+08 3.79069e+08 3.80089e+08 3.80094e+08 0 1
032 5 0 3.83452e+08 3.83721e+08 3.84741e+08 3.84805e+08 0 0
033 5 1 3.97611e+08 3.97873e+08 3.98894e+08 3.98944e+08 1 1
034 5 1 4.28645e+08 4.28919e+08 4.29939e+08 4.32889e+08 0 1
035 5 0 4.55769e+08 4.56024e+08 4.57044e+08 4.57503e+08 0 0
036 5 0 4.64713e+08 4.64967e+08 4.65987e+08 4.66012e+08 1 0
037 5 0 4.78491e+08 4.78753e+08 4.79773e+08 4.79818e+08 1 0
038 5 1 4.87429e+08 4.87689e+08 4.88709e+08 4.88737e+08 1 1
039 5 0 5.1223e+08 5.12481e+08 5.13501e+08 5.13511e+08 0 0
040 5 0 5.22239e+08 5.22498e+08 5.23518e+08 5.2356e+08 1 0
041 5 0 5.33765e+08 5.34026e+08 5.35046e+08 5.35224e+08 1 0
042 5 1 5.44302e+08 5.44554e+08 5.45574e+08 5.4635e+08 1 1
043 5 0 5.61308e+08 5.61557e+08 5.62577e+08 5.62626e+08 0 0
044 5 1 5.94931e+08 5.95191e+08 5.96211e+08 5.96491e+08 1 1
045 5 1 6.05237e+08 6.05483e+08 6.06503e+08 6.06545e+08 0 1
046 5 1 6.13773e+08 6.14026e+08 6.15046e+08 6.15053e+08 0 1
047 5 1 6.49424e+08 6.49676e+08 6.50696e+08 6.50778e+08 0 1
048 3 0 6.94339e+08 6.94597e+08 6.95617e+08 6.95625e+08 0 99
049 1 0 7.13269e+08 7.13532e+08 7.14552e+08 7.14565e+08 0 1
050 5 1 7.30377e+08 7.30644e+08 7.31664e+08 7.35123e+08 0 1
051 1 0 7.43374e+08 7.43638e+08 7.44658e+08 7.44662e+08 0 1
052 1 0 7.55579e+08 7.55834e+08 7.56854e+08 7.56869e+08 0 1
053 5 1 7.68188e+08 7.6846e+08 7.6948e+08 7.69989e+08 0 1
054 5 1 7.85569e+08 7.85834e+08 7.86854e+08 7.86951e+08 0 1
055 5 0 8.09337e+08 8.09598e+08 8.10618e+08 8.10969e+08 0 0
056 5 1 8.19704e+08 8.19964e+08 8.20984e+08 8.21278e+08 1 1
057 3 0 8.28744e+08 8.28998e+08 8.30019e+08 8.30024e+08 0 99
058 1 0 8.38059e+08 8.38313e+08 8.39333e+08 8.39337e+08 0 1
059 1 0 8.46445e+08 8.46692e+08 8.47712e+08 8.47718e+08 0 1
060 1 0 8.54295e+08 8.54555e+08 8.55575e+08 8.55579e+08 0 1
061 4 1 8.62003e+08 8.62261e+08 8.63281e+08 8.63292e+08 0 99
062 1 0 8.77547e+08 8.77794e+08 8.78814e+08 8.78836e+08 0 1
063 1 0 9.06156e+08 9.06405e+08 9.07425e+08 9.07434e+08 0 1
064 5 1 9.25104e+08 9.25366e+08 9.26386e+08 9.26567e+08 0 1
065 1 0 9.34215e+08 9.34479e+08 9.35499e+08 9.35526e+08 0 1
066 4 0 9.45259e+08 9.45523e+08 9.46543e+08 9.4664e+08 0 99
067 5 0 9.50078e+08 9.50339e+08 9.51359e+08 9.52602e+08 0 0
068 5 0 9.61522e+08 9.6177e+08 9.6279e+08 9.64195e+08 1 0
069 5 0 9.73363e+08 9.73617e+08 9.74637e+08 9.7509e+08 1 0
070 5 1 9.82333e+08 9.82586e+08 9.83606e+08 9.89312e+08 1 1
071 3 0 1.00049e+09 1.00074e+09 1.00176e+09 1.00178e+09 0 99
072 5 1 1.00949e+09 1.00976e+09 1.01078e+09 1.01082e+09 0 1
073 1 0 1.02502e+09 1.02527e+09 1.02629e+09 1.02634e+09 0 1
074 3 0 1.03182e+09 1.03209e+09 1.03311e+09 1.03326e+09 0 99
075 1 0 1.03646e+09 1.03672e+09 1.03774e+09 1.03779e+09 0 1
076 4 1 1.05455e+09 1.05481e+09 1.05583e+09 1.05584e+09 0 99
077 1 0 1.06535e+09 1.06561e+09 1.06663e+09 1.06667e+09 0 1
078 2 0 1.07151e+09 1.07176e+09 1.07278e+09 1.07278e+09 0 99
079 2 1 1.07672e+09 1.07698e+09 1.078e+09 1.08083e+09 0 99
080 5 1 1.08502e+09 1.08528e+09 1.0863e+09 1.08758e+09 0 1
081 1 0 1.09097e+09 1.09122e+09 1.09224e+09 1.09227e+09 0 1
082 5 1 1.09513e+09 1.09538e+09 1.0964e+09 1.09697e+09 0 1
083 4 1 1.1057e+09 1.10596e+09 1.10698e+09 1.107e+09 0 99
084 5 0 1.11706e+09 1.11732e+09 1.11834e+09 1.11939e+09 0 0
085 5 0 1.12642e+09 1.12667e+09 1.12769e+09 1.1289e+09 1 0
086 5 1 1.13941e+09 1.13967e+09 1.14069e+09 1.14345e+09 1 1
087 5 1 1.15733e+09 1.15759e+09 1.15861e+09 1.1587e+09 0 1
088 1 0 1.18191e+09 1.18216e+09 1.18318e+09 1.1832e+09 0 1
089 5 1 1.19003e+09 1.19029e+09 1.19131e+09 1.19133e+09 0 1
090 1 1 1.1951e+09 1.19535e+09 1.19637e+09 1.19656e+09 0 0
091 1 0 1.20857e+09 1.20882e+09 1.20984e+09 1.20986e+09 1 1
092 5 1 1.21558e+09 1.21585e+09 1.21687e+09 1.21767e+09 0 1
093 5 1 1.22464e+09 1.22491e+09 1.22593e+09 1.22605e+09 0 1
094 5 1 1.25299e+09 1.25325e+09 1.25427e+09 1.2558e+09 0 1
095 1 0 1.27095e+09 1.2712e+09 1.27222e+09 1.27224e+09 0 1
096 1 0 1.27986e+09 1.28011e+09 1.28113e+09 1.28114e+09 0 1
097 5 1 1.28992e+09 1.29018e+09 1.2912e+09 1.29139e+09 0 1
098 1 0 1.29716e+09 1.29742e+09 1.29844e+09 1.29849e+09 0 1
099 1 0 1.30122e+09 1.30148e+09 1.3025e+09 1.30262e+09 0 1
100 1 0 1.32201e+09 1.32227e+09 1.32329e+09 1.32329e+09 0 1
101 2 0 1.33233e+09 1.3326e+09 1.33362e+09 1.33363e+09 0 99
102 5 1 1.34041e+09 1.34067e+09 1.34169e+09 1.3429e+09 0 1
103 1 0 1.35167e+09 1.35193e+09 1.35295e+09 1.35295e+09 0 1
104 1 0 1.35713e+09 1.35739e+09 1.35841e+09 1.35842e+09 0 1
105 4 0 1.36122e+09 1.36148e+09 1.3625e+09 1.36251e+09 0 99
106 1 1 1.36558e+09 1.36583e+09 1.36685e+09 1.36689e+09 0 0
107 1 0 1.37798e+09 1.37823e+09 1.37925e+09 1.37936e+09 1 1
108 4 0 1.38811e+09 1.38836e+09 1.38938e+09 1.38942e+09 0 99
109 4 1 1.39235e+09 1.39259e+09 1.39361e+09 1.39394e+09 0 99
110 5 1 1.39964e+09 1.39989e+09 1.40091e+09 1.40099e+09 0 1
111 2 0 1.40398e+09 1.40424e+09 1.40526e+09 1.40534e+09 0 99
112 1 1 1.41105e+09 1.41131e+09 1.41233e+09 1.4176e+09 0 0
113 1 0 1.42649e+09 1.42675e+09 1.42777e+09 1.42779e+09 1 1
114 5 1 1.44602e+09 1.44628e+09 1.4473e+09 1.4484e+09 0 1
115 2 0 1.45158e+09 1.45184e+09 1.45286e+09 1.45302e+09 0 99
116 5 1 1.4558e+09 1.45605e+09 1.45707e+09 1.45918e+09 0 1
117 1 1 1.46191e+09 1.46218e+09 1.4632e+09 1.4638e+09 0 0
118 1 0 1.4724e+09 1.47265e+09 1.47367e+09 1.47368e+09 1 1
119 3 0 1.48304e+09 1.48329e+09 1.48431e+09 1.48431e+09 0 99
120 5 1 1.49495e+09 1.49521e+09 1.49623e+09 1.49802e+09 0 1
121 1 0 1.50376e+09 1.50401e+09 1.50503e+09 1.50504e+09 0 1
122 2 1 1.51935e+09 1.51961e+09 1.52063e+09 1.52131e+09 0 99
123 1 0 1.52455e+09 1.52481e+09 1.52583e+09 1.52586e+09 0 1
124 5 1 1.53742e+09 1.53767e+09 1.53869e+09 1.53982e+09 0 1
125 1 0 1.5552e+09 1.55547e+09 1.55649e+09 1.55657e+09 0 1
126 4 0 1.56329e+09 1.56354e+09 1.56456e+09 1.56457e+09 0 99
127 1 1 1.56836e+09 1.56862e+09 1.56964e+09 1.56967e+09 0 0
128 1 0 1.57846e+09 1.57872e+09 1.57974e+09 1.57974e+09 1 1
129 5 1 1.58858e+09 1.58884e+09 1.58986e+09 1.59009e+09 0 1
130 2 0 1.60124e+09 1.60149e+09 1.60251e+09 1.60252e+09 0 99
131 1 0 1.60668e+09 1.60695e+09 1.60797e+09 1.60798e+09 0 1
132 2 0 1.6156e+09 1.61585e+09 1.61687e+09 1.61688e+09 0 99
133 3 1 1.62663e+09 1.62688e+09 1.6279e+09 1.62804e+09 0 99
134 1 0 1.63151e+09 1.63176e+09 1.63278e+09 1.63281e+09 0 1
135 5 1 1.64416e+09 1.64441e+09 1.64543e+09 1.6455e+09 0 1
136 1 0 1.64948e+09 1.64974e+09 1.65076e+09 1.65078e+09 0 1
137 5 1 1.65481e+09 1.65506e+09 1.65608e+09 1.6561e+09 0 1
138 5 1 1.66234e+09 1.66261e+09 1.66363e+09 1.66419e+09 0 1
139 4 1 1.66767e+09 1.66793e+09 1.66895e+09 1.66903e+09 0 99
140 1 0 1.6774e+09 1.67766e+09 1.67868e+09 1.67869e+09 0 1
141 5 1 1.68284e+09 1.6831e+09 1.68412e+09 1.68712e+09 0 1
142 5 1 1.71028e+09 1.71053e+09 1.71155e+09 1.71239e+09 0 1
143 1 0 1.71945e+09 1.71972e+09 1.72074e+09 1.72082e+09 0 1
144 1 0 1.72826e+09 1.72853e+09 1.72955e+09 1.72965e+09 0 1
145 5 0 1.74119e+09 1.74145e+09 1.74247e+09 1.7436e+09 0 0
146 5 1 1.75677e+09 1.75703e+09 1.75805e+09 1.75815e+09 1 1
147 5 1 1.76903e+09 1.76929e+09 1.77031e+09 1.77051e+09 0 1
148 5 1 1.77344e+09 1.7737e+09 1.77472e+09 1.77506e+09 0 1
149 5 1 1.781e+09 1.78126e+09 1.78228e+09 1.78241e+09 0 1
150 1 0 1.78661e+09 1.78686e+09 1.78788e+09 1.78789e+09 0 1
151 5 0 1.79904e+09 1.7993e+09 1.80032e+09 1.80059e+09 0 0
152 5 1 1.81531e+09 1.81556e+09 1.81658e+09 1.81661e+09 1 1
153 5 1 1.84316e+09 1.84343e+09 1.84445e+09 1.84446e+09 0 1
154 1 0 1.85522e+09 1.85549e+09 1.85651e+09 1.85659e+09 0 1
155 2 0 1.86297e+09 1.86323e+09 1.86425e+09 1.86426e+09 0 99
156 1 1 1.87025e+09 1.8705e+09 1.87152e+09 1.87311e+09 0 0
157 1 0 1.88515e+09 1.8854e+09 1.88642e+09 1.88644e+09 1 1
158 1 1 1.89527e+09 1.89553e+09 1.89655e+09 1.90002e+09 0 0
159 1 1 1.91162e+09 1.91188e+09 1.9129e+09 1.9148e+09 1 0
160 1 1 1.9254e+09 1.92566e+09 1.92668e+09 1.92879e+09 1 0
161 1 0 1.93698e+09 1.93724e+09 1.93826e+09 1.93827e+09 1 1
162 3 0 1.94262e+09 1.94288e+09 1.9439e+09 1.94391e+09 0 99
163 1 0 1.94834e+09 1.9486e+09 1.94962e+09 1.94963e+09 0 1
164 1 0 1.9525e+09 1.95276e+09 1.95378e+09 1.9538e+09 0 1
165 1 0 1.96253e+09 1.96278e+09 1.9638e+09 1.96384e+09 0 1
166 2 0 1.97209e+09 1.97235e+09 1.97337e+09 1.97371e+09 0 99
167 5 0 1.97837e+09 1.97863e+09 1.97965e+09 1.97967e+09 0 0
168 5 1 1.98686e+09 1.98712e+09 1.98814e+09 1.98969e+09 1 1
169 1 1 2.00034e+09 2.00059e+09 2.00161e+09 2.00164e+09 0 0
170 1 1 2.0117e+09 2.01195e+09 2.01297e+09 2.01301e+09 1 0
171 1 0 2.02035e+09 2.0206e+09 2.02162e+09 2.02258e+09 1 1
172 5 1 2.02676e+09 2.02702e+09 2.02804e+09 2.02872e+09 0 1
173 5 0 2.03414e+09 2.0344e+09 2.03542e+09 2.03672e+09 0 0
174 5 0 2.04701e+09 2.04726e+09 2.04828e+09 2.06764e+09 1 0
175 5 1 2.07516e+09 2.07541e+09 2.07643e+09 2.08153e+09 1 1
176 5 1 2.08473e+09 2.08499e+09 2.08601e+09 2.08737e+09 0 1
177 1 1 2.09009e+09 2.09034e+09 2.09137e+09 2.09315e+09 0 0
178 1 0 2.10416e+09 2.10443e+09 2.10545e+09 2.1254e+09 1 1
179 4 0 2.12898e+09 2.12924e+09 2.13026e+09 2.13042e+09 0 99
180 1 0 2.13541e+09 2.13566e+09 2.13668e+09 2.14082e+09 0 1
181 3 1 2.14362e+09 2.14387e+09 2.14489e+09 2.1455e+09 0 99
182 5 1 2.14827e+09 2.14854e+09 2.14956e+09 2.1529e+09 0 1
183 5 1 2.15595e+09 2.1562e+09 2.15722e+09 2.15729e+09 0 1
184 3 0 2.16494e+09 2.16519e+09 2.16621e+09 2.16637e+09 0 99
185 3 1 2.16906e+09 2.16931e+09 2.17033e+09 2.17415e+09 0 99
186 2 1 2.17796e+09 2.17823e+09 2.17925e+09 2.19054e+09 0 99
187 5 1 2.19339e+09 2.19364e+09 2.19466e+09 2.19578e+09 0 1
188 2 0 2.19913e+09 2.19939e+09 2.20041e+09 2.20047e+09 0 99
189 1 1 2.20427e+09 2.20453e+09 2.20555e+09 2.2062e+09 0 0
190 1 1 2.21601e+09 2.21627e+09 2.21729e+09 2.2205e+09 1 0
191 1 1 2.2276e+09 2.22785e+09 2.22887e+09 2.24157e+09 1 0
192 1 0 2.24892e+09 2.24916e+09 2.25018e+09 2.34497e+09 1 1
193 4 1 2.34791e+09 2.34817e+09 2.34919e+09 2.3537e+09 0 99
194 2 0 2.35868e+09 2.35893e+09 2.35995e+09 2.36002e+09 0 99
195 1 1 2.36339e+09 2.36365e+09 2.36467e+09 2.36506e+09 0 0
196 1 1 2.37238e+09 2.37264e+09 2.37366e+09 2.38611e+09 1 0
197 1 0 2.39647e+09 2.39672e+09 2.39774e+09 2.3998e+09 1 1
198 1 0 2.40649e+09 2.40674e+09 2.40776e+09 2.47017e+09 0 1
199 5 1 2.47298e+09 2.47324e+09 2.47426e+09 2.4962e+09 0 1
200 1 0 2.50013e+09 2.50038e+09 2.5014e+09 2.64327e+09 0 1
201 1 1 2.6474e+09 2.64766e+09 2.64868e+09 2.65026e+09 0 0
202 1 1 2.65775e+09 2.65801e+09 2.65903e+09 2.65907e+09 1 0
203 1 0 2.66645e+09 2.66672e+09 2.66774e+09 2.68834e+09 1 1
204 1 0 2.69831e+09 2.69857e+09 2.69959e+09 2.69959e+09 0 1
205 5 0 2.70568e+09 2.70595e+09 2.70697e+09 2.76183e+09 0 0
206 5 0 2.76902e+09 2.76929e+09 2.77031e+09 2.78233e+09 1 0
207 5 1 2.78953e+09 2.78979e+09 2.79081e+09 2.84263e+09 1 1
208 4 1 2.84534e+09 2.84559e+09 2.84661e+09 2.88364e+09 0 99
209 5 1 2.88756e+09 2.88781e+09 2.88883e+09 2.99398e+09 0 1
210 1 1 2.99722e+09 2.99747e+09 2.99849e+09 2.99859e+09 0 0
211 1 0 3.00838e+09 3.00864e+09 3.00966e+09 3.05404e+09 1 1
212 1 0 3.06072e+09 3.06099e+09 3.06201e+09 3.06244e+09 0 1
213 1 1 3.07551e+09 3.07578e+09 3.0768e+09 3.08498e+09 0 0
214 1 0 3.09281e+09 3.09307e+09 3.09409e+09 3.14842e+09 1 1
215 5 0 3.15415e+09 3.15441e+09 3.15543e+09 3.40053e+09 0 0
216 5 0 3.40989e+09 3.41014e+09 3.41117e+09 3.46303e+09 1 0
217 5 0 3.47029e+09 3.47056e+09 3.47158e+09 3.541e+09 1 0
218 5 1 3.54806e+09 3.54833e+09 3.54935e+09 3.55211e+09 1 1
219 1 0 3.55618e+09 3.55644e+09 3.55746e+09 3.6001e+09 0 1
220 2 0 3.60722e+09 3.60748e+09 3.6085e+09 3.60996e+09 0 99
221 5 1 3.61253e+09 3.6128e+09 3.61382e+09 3.61736e+09 0 1
222 4 0 3.62261e+09 3.62286e+09 3.62389e+09 3.68764e+09 0 99
223 5 0 3.69717e+09 3.69744e+09 3.69846e+09 3.73286e+09 0 0
224 5 0 3.73996e+09 3.74021e+09 3.74123e+09 3.81143e+09 1 0
225 5 0 3.82196e+09 3.8222e+09 3.82322e+09 3.90206e+09 1 0
226 5 0 3.90933e+09 3.90958e+09 3.9106e+09 3.92875e+09 1 0
227 1 0 3.9368e+09 3.93707e+09 3.93809e+09 3.97378e+09 0 1
228 1 0 3.97662e+09 3.97689e+09 3.97791e+09 3.9853e+09 0 1
229 3 0 3.98962e+09 3.98988e+09 3.9909e+09 3.99235e+09 0 99
230 5 1 3.99512e+09 3.99538e+09 3.9964e+09 7.81932e+08 0 1
