trial trialType response stillTime stimOnset stimOffset respTime correctionTrial correct
001 2 0 3.52667e+06 3.56453e+06 4.58462e+06 6.66456e+06 0 0
002 2 0 1.79016e+07 1.79338e+07 1.89539e+07 2.18963e+07 1 0
003 2 0 3.19928e+07 3.20325e+07 3.30526e+07 3.55281e+07 1 0
004 2 0 4.2709e+07 4.27535e+07 4.37735e+07 4.50254e+07 1 0
005 2 1 5.48444e+07 5.48906e+07 5.59107e+07 5.77041e+07 0 1
006 2 0 6.06874e+07 6.07204e+07 6.17405e+07 6.20068e+07 0 0
007 2 0 7.17189e+07 7.17654e+07 7.27855e+07 7.27881e+07 1 0
008 2 0 8.13077e+07 8.13397e+07 8.23598e+07 8.36166e+07 1 0
009 2 1 9.10664e+07 9.11086e+07 9.21287e+07 9.42527e+07 1 1
010 1 0 9.74807e+07 9.75292e+07 9.85492e+07 9.85587e+07 0 1
011 2 1 1.04586e+08 1.04632e+08 1.05653e+08 1.06079e+08 0 1
012 2 0 1.09436e+08 1.0948e+08 1.105e+08 1.10889e+08 0 0
013 2 0 1.18402e+08 1.1844e+08 1.19461e+08 1.20465e+08 1 0
014 2 0 1.27781e+08 1.2782e+08 1.2884e+08 1.3145e+08 1 0
015 2 0 1.3896e+08 1.39001e+08 1.40021e+08 1.40382e+08 1 0
016 2 0 1.47873e+08 1.47906e+08 1.48926e+08 1.5101e+08 0 0
017 2 0 1.58403e+08 1.58452e+08 1.59472e+08 1.599e+08 0 0
018 2 0 1.692e+08 1.69242e+08 1.70263e+08 1.70379e+08 0 0
019 1 0 1.82263e+08 1.82294e+08 1.83314e+08 1.83326e+08 0 1
020 1 1 1.8661e+08 1.86645e+08 1.87665e+08 1.87718e+08 0 0
021 1 0 1.96833e+08 1.96877e+08 1.97897e+08 1.97904e+08 1 1
022 2 0 2.01935e+08 2.01977e+08 2.02998e+08 2.05605e+08 0 0
023 2 0 2.14154e+08 2.14192e+08 2.15212e+08 2.15265e+08 1 0
024 2 0 2.22461e+08 2.22493e+08 2.23513e+08 2.26033e+08 1 0
025 2 0 2.35039e+08 2.35081e+08 2.36101e+08 2.38077e+08 1 0
026 1 0 2.45587e+08 2.45624e+08 2.46644e+08 2.46765e+08 0 1
027 2 1 2.50024e+08 2.5007e+08 2.5109e+08 2.51259e+08 0 1
028 2 0 2.60004e+08 2.60053e+08 2.61074e+08 2.61094e+08 0 0
029 2 0 2.69691e+08 2.69736e+08 2.70756e+08 2.73813e+08 1 0
030 2 0 2.8203e+08 2.82066e+08 2.83086e+08 2.83246e+08 1 0
031 2 0 2.91849e+08 2.91879e+08 2.92899e+08 2.95862e+08 1 0
032 1 0 3.0389e+08 3.03931e+08 3.04951e+08 3.04967e+08 0 1
033 2 0 3.10448e+08 3.10492e+08 3.11512e+08 3.12086e+08 0 0
034 2 1 3.19725e+08 3.19768e+08 3.20788e+08 3.22987e+08 1 1
035 1 0 3.36154e+08 3.36187e+08 3.37207e+08 3.37326e+08 0 1
036 1 0 3.42303e+08 3.42336e+08 3.43356e+08 3.46411e+08 0 1
037 2 0 3.52904e+08 3.52951e+08 3.53972e+08 3.54372e+08 0 0
038 2 0 3.69663e+08 3.69701e+08 3.70721e+08 3.72827e+08 1 0
039 2 0 3.79937e+08 3.79967e+08 3.80987e+08 3.81779e+08 1 0
040 2 0 3.89126e+08 3.89171e+08 3.90191e+08 3.90427e+08 1 0
041 2 0 3.99544e+08 3.99588e+08 4.00608e+08 4.00619e+08 0 0
042 1 0 4.08978e+08 4.09011e+08 4.10031e+08 4.10079e+08 0 1
043 1 0 4.15882e+08 4.15917e+08 4.16937e+08 4.17031e+08 0 1
044 2 1 4.23015e+08 4.23059e+08 4.24079e+08 4.25414e+08 0 1
045 1 0 4.41063e+08 4.41106e+08 4.42126e+08 4.42212e+08 0 1
046 1 1 4.49451e+08 4.49484e+08 4.50504e+08 4.59343e+08 0 0
047 1 0 4.66597e+08 4.66638e+08 4.67658e+08 4.67739e+08 1 1
048 1 0 4.72522e+08 4.72555e+08 4.73575e+08 4.77631e+08 0 1
049 2 0 4.81405e+08 4.81438e+08 4.82458e+08 4.84811e+08 0 0
050 2 0 4.92769e+08 4.92804e+08 4.93824e+08 4.96455e+08 1 0
051 2 1 5.04178e+08 5.04219e+08 5.05239e+08 5.0578e+08 1 1
052 2 0 5.15865e+08 5.15905e+08 5.16925e+08 5.1805e+08 0 0
053 2 0 5.25956e+08 5.25998e+08 5.27018e+08 5.28517e+08 1 0
054 2 0 5.37587e+08 5.37622e+08 5.38642e+08 5.38778e+08 1 0
055 2 0 5.45967e+08 5.46007e+08 5.47027e+08 5.48119e+08 1 0
056 1 0 5.56502e+08 5.56537e+08 5.57557e+08 5.57588e+08 0 1
057 1 0 5.64292e+08 5.64326e+08 5.65346e+08 5.65549e+08 0 1
058 1 0 5.71508e+08 5.7155e+08 5.7257e+08 5.76945e+08 0 1
059 1 0 5.84538e+08 5.84573e+08 5.85593e+08 5.91108e+08 0 1
060 2 0 5.97517e+08 5.97557e+08 5.98577e+08 6.01471e+08 0 0
061 2 1 6.08729e+08 6.0876e+08 6.09781e+08 6.11156e+08 1 1
062 2 0 6.15802e+08 6.15846e+08 6.16867e+08 6.1707e+08 0 0
063 2 0 6.26692e+08 6.26733e+08 6.27753e+08 6.31526e+08 1 0
064 2 0 6.38581e+08 6.38625e+08 6.39645e+08 6.42303e+08 1 0
065 2 0 6.53142e+08 6.53178e+08 6.54198e+08 6.55415e+08 1 0
066 2 0 6.64995e+08 6.65038e+08 6.66058e+08 6.68406e+08 0 0
067 2 0 6.78358e+08 6.78396e+08 6.79416e+08 6.82005e+08 0 0
068 1 0 6.89566e+08 6.89612e+08 6.90632e+08 6.90868e+08 0 1
069 2 0 6.93931e+08 6.93966e+08 6.94986e+08 6.95525e+08 0 0
070 2 0 7.03717e+08 7.03759e+08 7.04779e+08 7.06829e+08 1 0
071 2 0 7.14161e+08 7.14196e+08 7.15216e+08 7.15878e+08 1 0
072 2 0 7.24457e+08 7.24487e+08 7.25507e+08 7.26333e+08 1 0
073 1 0 7.33572e+08 7.33605e+08 7.34625e+08 7.34716e+08 0 1
074 1 0 7.38462e+08 7.38492e+08 7.39513e+08 7.39674e+08 0 1
075 2 0 7.45837e+08 7.45869e+08 7.46889e+08 7.52677e+08 0 0
076 2 0 7.63634e+08 7.63664e+08 7.64684e+08 7.6891e+08 1 0
077 2 0 7.78366e+08 7.78407e+08 7.79427e+08 7.8561e+08 1 0
078 2 0 7.95215e+08 7.95255e+08 7.96275e+08 8.02823e+08 1 0
079 2 1 8.10333e+08 8.10375e+08 8.11395e+08 8.15755e+08 0 1
080 2 0 8.22046e+08 8.22079e+08 8.23099e+08 8.31548e+08 0 0
081 2 0 8.38695e+08 8.38727e+08 8.39747e+08 8.44558e+08 1 0
082 2 0 8.54473e+08 8.54518e+08 8.55538e+08 8.58675e+08 1 0
083 2 0 8.65834e+08 8.65875e+08 8.66895e+08 8.7865e+08 1 0
084 1 0 8.85733e+08 8.85772e+08 8.86792e+08 8.86929e+08 0 1
085 2 0 8.91011e+08 8.91048e+08 8.92068e+08 9.08475e+08 0 0
086 2 0 9.15703e+08 9.15738e+08 9.16758e+08 9.25756e+08 1 0
087 2 0 9.3289e+08 9.32931e+08 9.33951e+08 9.37758e+08 1 0
088 2 0 9.45194e+08 9.45236e+08 9.46256e+08 9.60257e+08 1 0
089 1 0 9.69999e+08 9.70035e+08 9.71055e+08 9.71068e+08 0 1
090 2 0 9.75395e+08 9.75443e+08 9.76463e+08 9.76609e+08 0 0
091 2 0 9.83826e+08 9.83867e+08 9.84887e+08 9.85694e+08 1 0
092 2 0 9.9285e+08 9.92887e+08 9.93907e+08 1.00091e+09 1 0
093 2 0 1.00794e+09 1.00797e+09 1.00899e+09 1.02087e+09 1 0
094 1 1 1.03002e+09 1.03007e+09 1.03109e+09 1.03118e+09 0 0
095 2 1 1.03854e+09 1.03857e+09 1.03959e+09 1.04372e+09 0 1
096 1 0 1.04859e+09 1.04863e+09 1.04965e+09 1.04974e+09 0 1
097 1 0 1.05544e+09 1.05549e+09 1.05651e+09 1.05953e+09 0 1
098 1 1 1.06363e+09 1.06367e+09 1.06469e+09 1.06482e+09 0 0
099 1 1 1.07365e+09 1.07369e+09 1.07471e+09 1.07816e+09 1 0
100 1 1 1.0871e+09 1.08714e+09 1.08816e+09 1.08831e+09 1 0
101 1 1 1.09534e+09 1.09538e+09 1.0964e+09 1.10071e+09 1 0
102 2 0 1.11365e+09 1.11369e+09 1.11471e+09 1.11497e+09 0 0
103 1 1 1.12708e+09 1.12712e+09 1.12814e+09 1.12833e+09 0 0
104 1 1 1.13575e+09 1.13578e+09 1.1368e+09 1.13695e+09 0 0
105 2 0 1.14582e+09 1.14585e+09 1.14687e+09 1.1469e+09 0 0
106 1 0 1.15434e+09 1.15438e+09 1.1554e+09 1.15543e+09 0 1
107 2 1 1.16295e+09 1.16299e+09 1.16401e+09 1.16578e+09 0 1
108 1 0 1.1747e+09 1.17474e+09 1.17576e+09 1.17576e+09 0 1
109 2 0 1.18267e+09 1.18271e+09 1.18373e+09 1.18585e+09 0 0
110 2 1 1.19455e+09 1.1946e+09 1.19562e+09 1.19728e+09 1 1
111 1 0 1.20067e+09 1.20071e+09 1.20173e+09 1.2019e+09 0 1
112 1 0 1.20732e+09 1.20736e+09 1.20838e+09 1.20875e+09 0 1
113 2 1 1.21391e+09 1.21394e+09 1.21496e+09 1.21508e+09 0 1
114 1 0 1.22215e+09 1.22219e+09 1.22321e+09 1.22665e+09 0 1
115 2 0 1.23015e+09 1.23019e+09 1.23121e+09 1.2391e+09 0 0
116 2 0 1.24642e+09 1.24647e+09 1.24749e+09 1.24831e+09 1 0
117 2 0 1.25664e+09 1.25668e+09 1.2577e+09 1.25854e+09 1 0
118 2 0 1.26596e+09 1.266e+09 1.26702e+09 1.27238e+09 1 0
119 1 0 1.27995e+09 1.27999e+09 1.28101e+09 1.28107e+09 0 1
120 2 0 1.28545e+09 1.28548e+09 1.2865e+09 1.28654e+09 0 0
121 2 0 1.29751e+09 1.29754e+09 1.29856e+09 1.32201e+09 1 0
122 2 0 1.332e+09 1.33204e+09 1.33306e+09 1.33344e+09 1 0
123 2 1 1.34183e+09 1.34186e+09 1.34288e+09 1.3463e+09 1 1
124 2 0 1.35551e+09 1.35556e+09 1.35658e+09 1.35663e+09 0 0
125 2 0 1.36434e+09 1.36438e+09 1.3654e+09 1.37515e+09 1 0
126 2 1 1.38448e+09 1.38451e+09 1.38553e+09 1.388e+09 1 1
127 2 1 1.39066e+09 1.3907e+09 1.39172e+09 1.39259e+09 0 1
128 2 0 1.40239e+09 1.40243e+09 1.40345e+09 1.4038e+09 0 0
129 2 0 1.41218e+09 1.41222e+09 1.41324e+09 1.4133e+09 1 0
130 2 0 1.42727e+09 1.42732e+09 1.42834e+09 1.43436e+09 1 0
131 2 1 1.44266e+09 1.44269e+09 1.44371e+09 1.44571e+09 1 1
132 1 0 1.45466e+09 1.4547e+09 1.45572e+09 1.45574e+09 0 1
133 2 0 1.46375e+09 1.46379e+09 1.46481e+09 1.46855e+09 0 0
134 2 0 1.47811e+09 1.47815e+09 1.47917e+09 1.47948e+09 1 0
135 2 0 1.4911e+09 1.49114e+09 1.49216e+09 1.49218e+09 1 0
136 2 0 1.49953e+09 1.49956e+09 1.50058e+09 1.5007e+09 1 0
137 1 0 1.508e+09 1.50803e+09 1.50905e+09 1.50906e+09 0 1
138 2 0 1.51234e+09 1.51237e+09 1.51339e+09 1.51534e+09 0 0
139 2 1 1.5278e+09 1.52784e+09 1.52886e+09 1.52895e+09 1 1
140 1 0 1.54822e+09 1.54826e+09 1.54928e+09 1.54929e+09 0 1
141 1 0 1.55331e+09 1.55334e+09 1.55436e+09 1.55438e+09 0 1
142 1 0 1.55842e+09 1.55846e+09 1.55948e+09 1.55949e+09 0 1
143 2 0 1.56573e+09 1.56578e+09 1.5668e+09 1.57125e+09 0 0
144 2 0 1.57834e+09 1.57837e+09 1.57939e+09 1.5842e+09 1 0
145 2 1 1.59353e+09 1.59357e+09 1.59459e+09 1.59666e+09 1 1
146 1 0 1.60049e+09 1.60052e+09 1.60155e+09 1.60389e+09 0 1
147 2 1 1.61215e+09 1.61219e+09 1.61321e+09 1.61326e+09 0 1
148 1 0 1.62066e+09 1.62071e+09 1.62173e+09 1.62174e+09 0 1
149 2 0 1.63067e+09 1.63072e+09 1.63174e+09 1.6318e+09 0 0
150 2 0 1.63896e+09 1.63899e+09 1.64001e+09 1.64004e+09 1 0
151 2 1 1.66078e+09 1.66082e+09 1.66184e+09 1.66221e+09 1 1
152 2 0 1.66551e+09 1.66555e+09 1.66657e+09 1.66702e+09 0 0
153 2 0 1.67994e+09 1.67997e+09 1.68099e+09 1.68107e+09 1 0
154 2 0 1.70009e+09 1.70012e+09 1.70114e+09 1.70118e+09 1 0
155 2 0 1.71128e+09 1.71131e+09 1.71233e+09 1.71235e+09 1 0
156 1 0 1.71967e+09 1.7197e+09 1.72072e+09 1.72074e+09 0 1
157 1 0 1.72817e+09 1.72821e+09 1.72923e+09 1.72924e+09 0 1
158 2 0 1.73375e+09 1.73379e+09 1.73481e+09 1.73506e+09 0 0
159 2 1 1.74386e+09 1.7439e+09 1.74492e+09 1.74497e+09 1 1
160 2 0 1.75703e+09 1.75707e+09 1.75809e+09 1.75865e+09 0 0
161 2 1 1.7719e+09 1.77194e+09 1.77296e+09 1.77309e+09 1 1
162 1 0 1.7977e+09 1.79773e+09 1.79875e+09 1.79877e+09 0 1
163 1 0 1.81194e+09 1.81197e+09 1.81299e+09 1.813e+09 0 1
164 2 1 1.83338e+09 1.83343e+09 1.83445e+09 1.83457e+09 0 1
165 1 0 1.86975e+09 1.86979e+09 1.87081e+09 1.87082e+09 0 1
166 1 0 1.87981e+09 1.87984e+09 1.88086e+09 1.88089e+09 0 1
167 1 0 1.93565e+09 1.93569e+09 1.93671e+09 1.93672e+09 0 1
168 2 0 1.9682e+09 1.96823e+09 1.96925e+09 1.96928e+09 0 0
169 2 0 1.97958e+09 1.97962e+09 1.98064e+09 1.98099e+09 1 0
170 2 0 1.98992e+09 1.98995e+09 1.99097e+09 1.99269e+09 1 0
171 2 0 2.00618e+09 2.00622e+09 2.00724e+09 2.00801e+09 1 0
172 2 0 2.01549e+09 2.01553e+09 2.01655e+09 2.01658e+09 0 0
173 1 0 2.03054e+09 2.03058e+09 2.0316e+09 2.03189e+09 0 1
174 1 0 2.03719e+09 2.03723e+09 2.03825e+09 2.03827e+09 0 1
175 1 0 2.05129e+09 2.05133e+09 2.05235e+09 2.05645e+09 0 1
176 2 0 2.05988e+09 2.05992e+09 2.06094e+09 2.06204e+09 0 0
177 2 0 2.07053e+09 2.07057e+09 2.07159e+09 2.07317e+09 1 0
178 2 1 2.08122e+09 2.08127e+09 2.08229e+09 2.08242e+09 1 1
179 1 0 2.09144e+09 2.09148e+09 2.0925e+09 2.09253e+09 0 1
180 2 0 2.09836e+09 2.09841e+09 2.09943e+09 2.10171e+09 0 0
181 2 0 2.10971e+09 2.10976e+09 2.11078e+09 2.11244e+09 1 0
182 2 1 2.1206e+09 2.12063e+09 2.12165e+09 2.12175e+09 1 1
183 2 0 2.1248e+09 2.12483e+09 2.12585e+09 2.128e+09 0 0
184 2 1 2.13577e+09 2.13582e+09 2.13684e+09 2.13863e+09 1 1
185 2 0 2.14232e+09 2.14236e+09 2.14338e+09 2.14347e+09 0 0
186 2 1 2.15302e+09 2.15306e+09 2.15408e+09 2.15634e+09 1 1
187 1 0 2.17196e+09 2.172e+09 2.17302e+09 2.17843e+09 0 1
188 1 0 2.18203e+09 2.18207e+09 2.18309e+09 2.18317e+09 0 1
189 2 0 2.18884e+09 2.18888e+09 2.1899e+09 2.19038e+09 0 0
190 2 1 2.20053e+09 2.20056e+09 2.20158e+09 2.20164e+09 1 1
191 2 0 2.20557e+09 2.2056e+09 2.20662e+09 2.20671e+09 0 0
192 2 1 2.21586e+09 2.21591e+09 2.21693e+09 2.21742e+09 1 1
193 2 1 2.22878e+09 2.22882e+09 2.22984e+09 2.22987e+09 0 1
194 2 0 2.23888e+09 2.23892e+09 2.23994e+09 2.23997e+09 0 0
195 2 0 2.24842e+09 2.24846e+09 2.24948e+09 2.24956e+09 1 0
196 2 0 2.26219e+09 2.26224e+09 2.26326e+09 2.27312e+09 1 0
197 2 0 2.28712e+09 2.28717e+09 2.28819e+09 2.28973e+09 1 0
198 1 0 2.29682e+09 2.29686e+09 2.29788e+09 2.29791e+09 0 1
199 2 0 2.30118e+09 2.30123e+09 2.30225e+09 2.30385e+09 0 0
200 2 0 2.31102e+09 2.31106e+09 2.31208e+09 2.31785e+09 1 0
201 2 0 2.32583e+09 2.32586e+09 2.32688e+09 2.32817e+09 1 0
202 2 1 2.33708e+09 2.33712e+09 2.33814e+09 2.34073e+09 1 1
203 2 0 2.34476e+09 2.3448e+09 2.34582e+09 2.34588e+09 0 0
204 2 1 2.35442e+09 2.35445e+09 2.35547e+09 2.35661e+09 1 1
205 1 0 2.36507e+09 2.3651e+09 2.36612e+09 2.36857e+09 0 1
206 1 0 2.37177e+09 2.37181e+09 2.37283e+09 2.37309e+09 0 1
207 2 1 2.37656e+09 2.3766e+09 2.37762e+09 2.37803e+09 0 1
208 2 1 2.38191e+09 2.38195e+09 2.38297e+09 2.38541e+09 0 1
209 1 0 2.39434e+09 2.39438e+09 2.3954e+09 2.3954e+09 0 1
210 1 0 2.40081e+09 2.40084e+09 2.40186e+09 2.40192e+09 0 1
211 2 0 2.41048e+09 2.41052e+09 2.41154e+09 2.41373e+09 0 0
212 2 1 2.42081e+09 2.42085e+09 2.42187e+09 2.42734e+09 1 1
213 1 0 2.43638e+09 2.43642e+09 2.43744e+09 2.43772e+09 0 1
214 1 0 2.44225e+09 2.44228e+09 2.4433e+09 2.4435e+09 0 1
215 2 1 2.44683e+09 2.44687e+09 2.44789e+09 2.44792e+09 0 1
216 2 1 2.45135e+09 2.45139e+09 2.45241e+09 2.45762e+09 0 1
217 1 0 2.46078e+09 2.46083e+09 2.46185e+09 2.46231e+09 0 1
218 1 0 2.47061e+09 2.47064e+09 2.47166e+09 2.47172e+09 0 1
219 1 0 2.47623e+09 2.47626e+09 2.47728e+09 2.4773e+09 0 1
220 1 0 2.48778e+09 2.48782e+09 2.48884e+09 2.48895e+09 0 1
221 2 0 2.49513e+09 2.49518e+09 2.4962e+09 2.50044e+09 0 0
222 2 0 2.50854e+09 2.50857e+09 2.50959e+09 2.50972e+09 1 0
223 2 0 2.51725e+09 2.51729e+09 2.51831e+09 2.51907e+09 1 0
224 2 1 2.52637e+09 2.5264e+09 2.52742e+09 2.52755e+09 1 1
225 1 0 2.53041e+09 2.53044e+09 2.53146e+09 2.5315e+09 0 1
226 1 1 2.53514e+09 2.53518e+09 2.5362e+09 2.53622e+09 0 0
227 1 0 2.54362e+09 2.54367e+09 2.54469e+09 2.56159e+09 1 1
228 1 0 2.56407e+09 2.56411e+09 2.56513e+09 2.56754e+09 0 1
229 1 0 2.57011e+09 2.57014e+09 2.57116e+09 2.57398e+09 0 1
230 2 0 2.57858e+09 2.57862e+09 2.57964e+09 2.58163e+09 0 0
231 2 1 2.59144e+09 2.59148e+09 2.5925e+09 2.59538e+09 1 1
232 2 1 2.5978e+09 2.59784e+09 2.59886e+09 2.60215e+09 0 1
233 1 0 2.60625e+09 2.6063e+09 2.60732e+09 2.60961e+09 0 1
234 1 0 2.61591e+09 2.61595e+09 2.61697e+09 2.62203e+09 0 1
235 2 0 2.6281e+09 2.62814e+09 2.62916e+09 2.6422e+09 0 0
236 2 0 2.65167e+09 2.65171e+09 2.65273e+09 2.65434e+09 1 0
237 2 1 2.66583e+09 2.66586e+09 2.66688e+09 2.667e+09 1 1
238 1 0 2.6697e+09 2.66974e+09 2.67076e+09 2.67093e+09 0 1
239 2 1 2.67442e+09 2.67446e+09 2.67548e+09 2.67614e+09 0 1
240 1 0 2.68064e+09 2.68067e+09 2.68169e+09 2.6904e+09 0 1
241 1 0 2.6929e+09 2.69294e+09 2.69396e+09 2.69749e+09 0 1
242 2 0 2.70031e+09 2.70035e+09 2.70137e+09 2.70363e+09 0 0
243 2 0 2.71102e+09 2.71106e+09 2.71208e+09 2.72645e+09 1 0
244 2 1 2.73453e+09 2.73456e+09 2.73558e+09 2.74512e+09 1 1
245 1 0 2.74906e+09 2.74909e+09 2.75011e+09 2.7503e+09 0 1
246 1 0 2.75294e+09 2.75297e+09 2.75399e+09 2.75577e+09 0 1
247 2 1 2.75946e+09 2.75949e+09 2.76051e+09 2.7618e+09 0 1
248 2 0 2.76545e+09 2.7655e+09 2.76652e+09 2.77039e+09 0 0
249 2 0 2.77766e+09 2.7777e+09 2.77872e+09 2.77902e+09 1 0
250 2 1 2.78848e+09 2.78852e+09 2.78954e+09 2.7959e+09 1 1
251 1 0 2.79839e+09 2.79844e+09 2.79946e+09 2.79958e+09 0 1
252 1 0 2.80382e+09 2.80385e+09 2.80487e+09 2.80676e+09 0 1
253 2 0 2.81027e+09 2.8103e+09 2.81132e+09 2.81668e+09 0 0
254 2 0 2.8242e+09 2.82423e+09 2.82525e+09 2.83796e+09 1 0
255 2 0 2.84629e+09 2.84633e+09 2.84735e+09 2.88133e+09 1 0
256 2 1 2.89402e+09 2.89405e+09 2.89507e+09 2.9032e+09 1 1
257 2 0 2.90992e+09 2.90995e+09 2.91097e+09 2.91988e+09 0 0
258 2 0 2.92715e+09 2.92719e+09 2.92821e+09 2.94714e+09 1 0
259 2 0 2.9542e+09 2.95423e+09 2.95525e+09 2.97335e+09 1 0
260 2 0 2.98038e+09 2.98043e+09 2.98145e+09 2.98588e+09 1 0
261 1 0 2.99436e+09 2.99439e+09 2.99541e+09 2.99566e+09 0 1
262 1 0 3.00018e+09 3.00022e+09 3.00124e+09 3.00126e+09 0 1
263 1 0 3.00521e+09 3.00525e+09 3.00627e+09 3.00634e+09 0 1
264 2 0 3.00882e+09 3.00887e+09 3.00989e+09 3.01211e+09 0 0
265 2 0 3.02223e+09 3.02227e+09 3.02329e+09 3.02603e+09 1 0
266 2 0 3.03779e+09 3.03783e+09 3.03885e+09 3.04263e+09 1 0
267 2 0 3.052e+09 3.05204e+09 3.05306e+09 3.05344e+09 1 0
268 1 0 3.06403e+09 3.06407e+09 3.06509e+09 3.06935e+09 0 1
269 1 0 3.07187e+09 3.07191e+09 3.07293e+09 3.07473e+09 0 1
270 2 0 3.07857e+09 3.07862e+09 3.07964e+09 3.07998e+09 0 0
271 2 0 3.08812e+09 3.08816e+09 3.08918e+09 3.08922e+09 1 0
272 2 0 3.09871e+09 3.09875e+09 3.09977e+09 3.10188e+09 1 0
273 2 1 3.11709e+09 3.11712e+09 3.11814e+09 3.11817e+09 1 1
274 2 0 3.12196e+09 3.122e+09 3.12302e+09 3.12552e+09 0 0
275 2 0 3.13655e+09 3.1366e+09 3.13762e+09 3.13904e+09 1 0
276 2 0 3.14692e+09 3.14695e+09 3.14797e+09 3.148e+09 1 0
277 2 0 3.15545e+09 3.15548e+09 3.1565e+09 3.15796e+09 1 0
278 1 0 3.16525e+09 3.16529e+09 3.16631e+09 3.16636e+09 0 1
279 1 0 3.1697e+09 3.16974e+09 3.17076e+09 3.17077e+09 0 1
280 1 0 3.17448e+09 3.17451e+09 3.17553e+09 3.17957e+09 0 1
281 2 1 3.1822e+09 3.18224e+09 3.18326e+09 3.19242e+09 0 1
282 2 1 3.19631e+09 3.19635e+09 3.19737e+09 3.1974e+09 0 1
283 2 0 3.2007e+09 3.20074e+09 3.20176e+09 3.20193e+09 0 0
284 2 0 3.20926e+09 3.20929e+09 3.21031e+09 3.21046e+09 1 0
285 2 0 3.21753e+09 3.21756e+09 3.21858e+09 3.22215e+09 1 0
286 2 1 3.22956e+09 3.22961e+09 3.23063e+09 3.23649e+09 1 1
287 2 1 3.23938e+09 3.23941e+09 3.24043e+09 3.24102e+09 0 1
288 1 0 3.24361e+09 3.24365e+09 3.24467e+09 3.24514e+09 0 1
289 2 0 3.24872e+09 3.24876e+09 3.24978e+09 3.25351e+09 0 0
290 2 0 3.26073e+09 3.26077e+09 3.2618e+09 3.26953e+09 1 0
291 2 0 3.27676e+09 3.2768e+09 3.27782e+09 3.278e+09 1 0
292 2 0 3.28517e+09 3.2852e+09 3.28622e+09 3.32335e+09 1 0
293 1 0 3.33048e+09 3.33051e+09 3.33153e+09 3.33156e+09 0 1
294 2 0 3.33446e+09 3.3345e+09 3.33552e+09 3.33721e+09 0 0
295 2 0 3.34469e+09 3.34473e+09 3.34575e+09 3.35485e+09 1 0
296 2 0 3.36199e+09 3.36202e+09 3.36304e+09 3.3631e+09 1 0
297 2 0 3.37166e+09 3.3717e+09 3.37272e+09 3.38452e+09 1 0
298 1 0 3.39239e+09 3.39243e+09 3.39345e+09 3.4013e+09 0 1
299 1 0 3.4044e+09 3.40444e+09 3.40546e+09 3.40547e+09 0 1
300 1 0 3.40907e+09 3.4091e+09 3.41012e+09 3.41016e+09 0 1
301 2 0 3.41386e+09 3.41389e+09 3.41491e+09 3.41516e+09 0 0
302 2 0 3.42291e+09 3.42295e+09 3.42397e+09 3.42837e+09 1 0
303 2 1 3.43553e+09 3.43556e+09 3.43658e+09 3.43663e+09 1 1
304 2 0 3.43973e+09 3.43976e+09 3.44078e+09 3.44254e+09 0 0
305 2 0 3.44998e+09 3.45002e+09 3.45104e+09 3.45666e+09 1 0
306 2 0 3.46679e+09 3.46682e+09 3.46784e+09 3.46964e+09 1 0
307 2 0 3.4792e+09 3.47924e+09 3.48026e+09 3.48497e+09 1 0
308 2 1 3.49236e+09 3.4924e+09 3.49342e+09 3.49808e+09 0 1
309 1 0 3.50046e+09 3.5005e+09 3.50152e+09 3.50159e+09 0 1
310 2 0 3.50414e+09 3.50418e+09 3.5052e+09 3.50522e+09 0 0
311 2 0 3.51241e+09 3.51245e+09 3.51347e+09 3.56821e+09 1 0
312 2 0 3.57538e+09 3.57542e+09 3.57644e+09 3.58509e+09 1 0
313 2 0 3.59289e+09 3.59293e+09 3.59395e+09 3.62608e+09 1 0
314 2 0 3.63324e+09 3.63328e+09 3.6343e+09 3.69305e+09 0 0
315 2 0 3.7003e+09 3.70034e+09 3.70136e+09 3.76325e+09 0 0
316 2 0 3.7706e+09 3.77064e+09 3.77166e+09 3.85212e+09 0 0
317 2 0 3.85958e+09 3.85961e+09 3.86063e+09 3.97124e+09 0 0
318 1 0 3.97855e+09 3.97859e+09 3.97961e+09 3.98018e+09 0 1
319 1 0 3.98471e+09 3.98474e+09 3.98576e+09 4.13598e+09 0 1
320 2 0 4.14006e+09 4.1401e+09 4.14112e+09 4.14664e+09 0 0
321 2 0 4.15399e+09 4.15403e+09 4.15505e+09 4.1622e+09 1 0
322 2 0 4.1695e+09 4.16953e+09 4.17055e+09 4.29124e+09 1 0
323 2 0 6.58433e+06 6.6227e+06 7.6428e+06 2.75789e+07 1 0
324 2 0 3.47617e+07 3.47933e+07 3.58134e+07 1.18567e+08 0 0
325 1 0 1.25885e+08 1.25924e+08 1.26944e+08 1.32467e+08 0 1
326 1 1 1.37961e+08 1.37996e+08 1.39016e+08 2.765e+08 0 0
327 1 0 2.83657e+08 2.83688e+08 2.84708e+08 3.33419e+08 1 1
328 1 0 3.37706e+08 3.37737e+08 3.38757e+08 3.3888e+08 0 1
329 2 0 3.41057e+08 3.41094e+08 3.42115e+08 3.84241e+08 0 0
330 2 0 3.91358e+08 3.91394e+08 3.92414e+08 5.72769e+08 1 0
331 2 0 5.79891e+08 5.79921e+08 5.80942e+08 5.87468e+08 1 0
332 2 0 5.97308e+08 5.97346e+08 5.98366e+08 6.87349e+08 1 0
333 2 0 6.94815e+08 6.94855e+08 6.95875e+08 7.68907e+08 0 0
334 2 0 7.76305e+08 7.76351e+08 7.77371e+08 7.81088e+08 0 0
335 1 1 7.88536e+08 7.88578e+08 7.89598e+08 9.13253e+08 0 0
336 1 0 9.20542e+08 9.20579e+08 9.21599e+08 9.24287e+08 0 1
