trial trialType response stillTime stimOnset stimOffset respTime correctionTrial correct
001 2 1 3.57685e+06 3.62083e+06 4.64092e+06 1.05927e+09 0
001 002 2 0 1.06225e+09 1.06229e+09 1.06331e+09 1.07005e+09 0
000 003 2 1 1.08056e+09 1.0806e+09 1.08162e+09 1.08464e+09 1
001 004 1 1 1.08829e+09 1.08833e+09 1.08935e+09 1.08949e+09 0
000 005 1 1 1.10959e+09 1.10963e+09 1.11065e+09 1.11208e+09 1
000 006 1 1 1.12227e+09 1.12231e+09 1.12333e+09 1.13404e+09 1
000 007 1 1 1.14412e+09 1.14416e+09 1.14518e+09 1.1514e+09 1
000 008 1 0 1.16094e+09 1.16098e+09 1.162e+09 1.16608e+09 0
001 009 1 1 1.16863e+09 1.16867e+09 1.16969e+09 1.17061e+09 0
000 010 1 1 1.17857e+09 1.17861e+09 1.17963e+09 1.17998e+09 1
000 011 1 1 1.1891e+09 1.18914e+09 1.19016e+09 1.19106e+09 1
000 012 1 0 1.19917e+09 1.1992e+09 1.20022e+09 1.20196e+09 1
001 013 2 0 1.20576e+09 1.2058e+09 1.20682e+09 1.20699e+09 0
000 014 2 1 1.22044e+09 1.22049e+09 1.22151e+09 1.22277e+09 1
001 015 1 1 1.23435e+09 1.2344e+09 1.23542e+09 1.24017e+09 0
000 016 1 1 1.2472e+09 1.24724e+09 1.24826e+09 1.24895e+09 1
000 017 1 1 1.2563e+09 1.25635e+09 1.25737e+09 1.25753e+09 1
000 018 1 1 1.26688e+09 1.26693e+09 1.26795e+09 1.26799e+09 1
000 019 2 1 1.27723e+09 1.27728e+09 1.2783e+09 1.28004e+09 0
001 020 2 1 1.28435e+09 1.28439e+09 1.28541e+09 1.28543e+09 0
001 021 2 1 1.29083e+09 1.29087e+09 1.29189e+09 1.29431e+09 0
001 022 2 1 1.29683e+09 1.29687e+09 1.29789e+09 1.30018e+09 0
001 023 1 1 1.3025e+09 1.30254e+09 1.30356e+09 1.30801e+09 0
000 024 1 1 1.32017e+09 1.32021e+09 1.32123e+09 1.32268e+09 1
000 025 1 0 1.33259e+09 1.33263e+09 1.33365e+09 1.33722e+09 1
001 026 2 1 1.33977e+09 1.33982e+09 1.34084e+09 1.34092e+09 0
001 027 1 1 1.34312e+09 1.34315e+09 1.34417e+09 1.34419e+09 0
000 028 1 1 1.35642e+09 1.35647e+09 1.35749e+09 1.35759e+09 1
000 029 1 1 1.36493e+09 1.36497e+09 1.36599e+09 1.36702e+09 1
000 030 1 1 1.37438e+09 1.37441e+09 1.37543e+09 1.37713e+09 1
000 031 2 1 1.38497e+09 1.38501e+09 1.38603e+09 1.38919e+09 0
001 032 2 0 1.39516e+09 1.3952e+09 1.39622e+09 1.3965e+09 0
000 033 2 1 1.40355e+09 1.4036e+09 1.40462e+09 1.40466e+09 1
001 034 1 1 1.40706e+09 1.4071e+09 1.40812e+09 1.40927e+09 0
000 035 1 1 1.41894e+09 1.41897e+09 1.41999e+09 1.4222e+09 1
000 036 1 0 1.43033e+09 1.43037e+09 1.43139e+09 1.43294e+09 1
001 037 1 1 1.43653e+09 1.43657e+09 1.43759e+09 1.43812e+09 0
000 038 1 1 1.44531e+09 1.44535e+09 1.44637e+09 1.44638e+09 1
000 039 1 1 1.45378e+09 1.45382e+09 1.45484e+09 1.45621e+09 1
000 040 1 0 1.47097e+09 1.471e+09 1.47202e+09 1.47203e+09 1
001 041 2 1 1.4795e+09 1.47955e+09 1.48057e+09 1.48066e+09 0
001 042 2 1 1.48521e+09 1.48524e+09 1.48626e+09 1.4863e+09 0
001 043 2 1 1.49712e+09 1.49716e+09 1.49818e+09 1.49967e+09 0
001 044 2 1 1.50214e+09 1.50218e+09 1.5032e+09 1.50674e+09 0
001 045 2 1 1.50937e+09 1.5094e+09 1.51042e+09 1.51184e+09 0
001 046 1 1 1.51448e+09 1.51452e+09 1.51554e+09 1.51559e+09 0
000 047 1 1 1.52458e+09 1.52462e+09 1.52564e+09 1.52711e+09 1
000 048 1 1 1.53422e+09 1.53426e+09 1.53528e+09 1.53616e+09 1
000 049 1 1 1.54696e+09 1.547e+09 1.54802e+09 1.54803e+09 1
000 050 1 1 1.55546e+09 1.55549e+09 1.55651e+09 1.55691e+09 0
000 051 1 1 1.57097e+09 1.571e+09 1.57202e+09 1.57224e+09 0
000 052 2 1 1.57947e+09 1.57951e+09 1.58053e+09 1.58126e+09 0
001 053 1 1 1.5862e+09 1.58624e+09 1.58726e+09 1.58813e+09 0
000 054 1 0 1.5982e+09 1.59824e+09 1.59926e+09 1.5994e+09 1
001 055 1 0 1.60286e+09 1.60289e+09 1.60391e+09 1.60467e+09 0
001 056 2 1 1.61236e+09 1.61241e+09 1.61343e+09 1.61369e+09 0
001 057 1 0 1.62234e+09 1.62238e+09 1.6234e+09 1.62342e+09 0
001 058 2 1 1.62695e+09 1.62699e+09 1.62801e+09 1.62864e+09 0
001 059 2 1 1.63605e+09 1.63609e+09 1.63711e+09 1.64035e+09 0
001 060 2 0 1.64286e+09 1.6429e+09 1.64392e+09 1.64473e+09 0
000 061 2 1 1.65198e+09 1.65202e+09 1.65304e+09 1.65305e+09 1
001 062 2 1 1.65869e+09 1.65873e+09 1.65975e+09 1.6655e+09 0
001 063 2 1 1.66767e+09 1.66771e+09 1.66873e+09 1.67275e+09 0
001 064 2 1 1.67491e+09 1.67495e+09 1.67597e+09 1.67701e+09 0
001 065 2 1 1.67945e+09 1.67949e+09 1.68051e+09 1.68154e+09 0
001 066 1 1 1.68402e+09 1.68406e+09 1.68508e+09 1.68761e+09 0
000 067 1 0 1.69512e+09 1.69515e+09 1.69617e+09 1.69707e+09 1
001 068 1 1 1.71408e+09 1.71412e+09 1.71514e+09 1.71541e+09 0
000 069 1 1 1.72266e+09 1.7227e+09 1.72372e+09 1.72381e+09 1
000 070 1 1 1.73282e+09 1.73285e+09 1.73387e+09 1.73577e+09 1
000 071 1 1 1.74311e+09 1.74315e+09 1.74417e+09 1.7468e+09 1
000 072 2 1 1.75641e+09 1.75645e+09 1.75747e+09 1.7578e+09 0
001 073 2 1 1.76006e+09 1.7601e+09 1.76112e+09 1.76175e+09 0
001 074 2 1 1.76579e+09 1.76583e+09 1.76685e+09 1.76687e+09 0
001 075 1 1 1.76934e+09 1.76939e+09 1.77041e+09 1.77117e+09 0
000 076 1 1 1.7795e+09 1.77954e+09 1.78056e+09 1.78912e+09 1
000 077 1 0 1.79967e+09 1.79971e+09 1.80073e+09 1.80687e+09 1
001 078 1 1 1.80931e+09 1.80936e+09 1.81038e+09 1.81065e+09 0
000 079 1 1 1.81811e+09 1.81814e+09 1.81916e+09 1.82132e+09 1
000 080 1 0 1.83078e+09 1.83082e+09 1.83184e+09 1.83225e+09 1
001 081 2 1 1.83448e+09 1.83452e+09 1.83554e+09 1.83813e+09 0
001 082 2 0 1.84154e+09 1.84158e+09 1.8426e+09 1.85059e+09 0
000 083 2 1 1.85776e+09 1.8578e+09 1.85882e+09 1.85923e+09 1
001 084 1 1 1.86138e+09 1.86142e+09 1.86244e+09 1.86627e+09 0
000 085 1 1 1.87331e+09 1.87335e+09 1.87437e+09 1.87703e+09 1
000 086 1 1 1.88425e+09 1.88429e+09 1.88531e+09 1.89351e+09 1
000 087 1 1 1.90065e+09 1.90068e+09 1.9017e+09 1.90388e+09 1
000 088 1 0 1.91136e+09 1.9114e+09 1.91242e+09 1.91935e+09 0
001 089 1 1 1.92312e+09 1.92316e+09 1.92418e+09 1.93307e+09 0
000 090 1 1 1.94501e+09 1.94505e+09 1.94608e+09 1.95858e+09 1
000 091 1 1 1.96638e+09 1.96641e+09 1.96743e+09 1.97943e+09 1
000 092 1 1 1.98658e+09 1.98662e+09 1.98764e+09 2.00046e+09 1
000 093 1 1 2.00754e+09 2.00757e+09 2.00859e+09 2.01094e+09 0
000 094 1 1 2.01988e+09 2.01992e+09 2.02094e+09 2.02897e+09 0
000 095 2 1 2.03628e+09 2.03632e+09 2.03734e+09 2.04431e+09 0
001 096 1 1 2.0465e+09 2.04653e+09 2.04755e+09 2.04915e+09 0
000 097 1 0 2.05643e+09 2.05646e+09 2.05748e+09 2.08579e+09 1
001 098 1 0 2.08825e+09 2.08829e+09 2.08931e+09 2.0978e+09 0
001 099 2 1 2.10083e+09 2.10087e+09 2.10189e+09 2.10298e+09 0
001 100 2 1 2.10816e+09 2.10819e+09 2.10921e+09 2.10926e+09 0
001 101 1 1 2.11596e+09 2.116e+09 2.11702e+09 2.11709e+09 0
000 102 1 0 2.12771e+09 2.12775e+09 2.12877e+09 2.12892e+09 1
001 103 1 1 2.139e+09 2.13904e+09 2.14006e+09 2.14008e+09 0
000 104 1 1 2.14867e+09 2.14871e+09 2.14973e+09 2.14994e+09 1
000 105 1 1 2.15722e+09 2.15725e+09 2.15827e+09 2.15885e+09 1
000 106 1 1 2.16701e+09 2.16706e+09 2.16808e+09 2.17149e+09 1
000 107 1 1 2.17903e+09 2.17907e+09 2.18009e+09 2.18033e+09 0
000 108 1 1 2.18902e+09 2.18906e+09 2.19008e+09 2.19338e+09 0
000 109 2 1 2.20087e+09 2.20091e+09 2.20193e+09 2.20369e+09 0
001 110 2 1 2.21066e+09 2.2107e+09 2.21172e+09 2.21457e+09 0
001 111 2 1 2.21782e+09 2.21786e+09 2.21888e+09 2.219e+09 0
001 112 2 1 2.22683e+09 2.22687e+09 2.22789e+09 2.22873e+09 0
001 113 2 1 2.23621e+09 2.23624e+09 2.23726e+09 2.23731e+09 0
001 114 2 0 2.23999e+09 2.24003e+09 2.24105e+09 2.24126e+09 0
000 115 2 0 2.24841e+09 2.24844e+09 2.24946e+09 2.24982e+09 1
000 116 2 0 2.25714e+09 2.25719e+09 2.25821e+09 2.2599e+09 1
000 117 2 1 2.26888e+09 2.26893e+09 2.26995e+09 2.27213e+09 1
001 118 2 1 2.28376e+09 2.28381e+09 2.28483e+09 2.28846e+09 0
001 119 2 1 2.29865e+09 2.29868e+09 2.2997e+09 2.30225e+09 0
001 120 2 1 2.30538e+09 2.30541e+09 2.30643e+09 2.30862e+09 0
001 121 1 0 2.3111e+09 2.31114e+09 2.31216e+09 2.31228e+09 0
001 122 2 1 2.31447e+09 2.31451e+09 2.31553e+09 2.31575e+09 0
001 123 2 1 2.32276e+09 2.3228e+09 2.32382e+09 2.32397e+09 0
001 124 2 1 2.32848e+09 2.32853e+09 2.32955e+09 2.3298e+09 0
001 125 1 0 2.33233e+09 2.33237e+09 2.33339e+09 2.33369e+09 0
001 126 1 1 2.33655e+09 2.33659e+09 2.33761e+09 2.33809e+09 0
000 127 1 0 2.35299e+09 2.35302e+09 2.35404e+09 2.35512e+09 1
001 128 2 1 2.36889e+09 2.36893e+09 2.36995e+09 2.37165e+09 0
001 129 1 1 2.37379e+09 2.37383e+09 2.37485e+09 2.37649e+09 0
000 130 1 1 2.39525e+09 2.39529e+09 2.39631e+09 2.39645e+09 1
000 131 1 0 2.4071e+09 2.40714e+09 2.40816e+09 2.40817e+09 1
001 132 1 1 2.41068e+09 2.41072e+09 2.41174e+09 2.41611e+09 0
000 133 1 1 2.42323e+09 2.42326e+09 2.42428e+09 2.43267e+09 1
000 134 1 1 2.44005e+09 2.44009e+09 2.44111e+09 2.4416e+09 1
000 135 1 1 2.44889e+09 2.44893e+09 2.44995e+09 2.45679e+09 1
000 136 1 1 2.46844e+09 2.46848e+09 2.4695e+09 2.47641e+09 0
000 137 2 1 2.48368e+09 2.48372e+09 2.48474e+09 2.49683e+09 0
001 138 1 1 2.50013e+09 2.50017e+09 2.50119e+09 2.50123e+09 0
000 139 1 1 2.50843e+09 2.50846e+09 2.50948e+09 2.50973e+09 1
000 140 1 1 2.52004e+09 2.52008e+09 2.5211e+09 2.52643e+09 1
000 141 1 1 2.53355e+09 2.53359e+09 2.53461e+09 2.53479e+09 1
000 142 1 1 2.5422e+09 2.54225e+09 2.54327e+09 2.54338e+09 0
000 143 2 0 2.55565e+09 2.55569e+09 2.55671e+09 2.57433e+09 0
000 144 1 0 2.58163e+09 2.58167e+09 2.58269e+09 2.58641e+09 0
001 145 1 0 2.58864e+09 2.58868e+09 2.5897e+09 2.59496e+09 0
001 146 1 0 2.59738e+09 2.59742e+09 2.59844e+09 2.60283e+09 0
001 147 2 0 2.60509e+09 2.60514e+09 2.60616e+09 2.61016e+09 0
000 148 2 1 2.62034e+09 2.62038e+09 2.6214e+09 2.62227e+09 1
001 149 1 1 2.62764e+09 2.62767e+09 2.62869e+09 2.63016e+09 0
000 150 1 0 2.63971e+09 2.63974e+09 2.64076e+09 2.64228e+09 1
001 151 2 0 2.645e+09 2.64504e+09 2.64606e+09 2.64646e+09 0
000 152 2 1 2.66068e+09 2.66071e+09 2.66173e+09 2.67283e+09 1
001 153 1 1 2.68008e+09 2.68012e+09 2.68114e+09 2.6835e+09 0
000 154 1 0 2.69085e+09 2.69088e+09 2.6919e+09 2.69678e+09 1
001 155 1 1 2.70463e+09 2.70467e+09 2.70569e+09 2.70602e+09 0
000 156 1 1 2.71328e+09 2.71332e+09 2.71434e+09 2.71779e+09 1
000 157 1 1 2.72698e+09 2.72701e+09 2.72803e+09 2.734e+09 1
000 158 1 1 2.74181e+09 2.74185e+09 2.74287e+09 2.7462e+09 1
000 159 1 1 2.75369e+09 2.75373e+09 2.75475e+09 2.7613e+09 0
000 160 1 1 2.76851e+09 2.76855e+09 2.76957e+09 2.77481e+09 0
000 161 1 1 2.78209e+09 2.78213e+09 2.78315e+09 2.78392e+09 0
000 162 1 1 2.79215e+09 2.79219e+09 2.79321e+09 2.79368e+09 0
000 163 1 0 2.80107e+09 2.80111e+09 2.80213e+09 2.80445e+09 0
001 164 1 1 2.80758e+09 2.80763e+09 2.80865e+09 2.80889e+09 0
000 165 1 1 2.81725e+09 2.81728e+09 2.8183e+09 2.82464e+09 1
000 166 1 1 2.83242e+09 2.83246e+09 2.83348e+09 2.83712e+09 1
000 167 1 0 2.84562e+09 2.84566e+09 2.84668e+09 2.85211e+09 1
001 168 2 0 2.85459e+09 2.85462e+09 2.85564e+09 2.85586e+09 0
000 169 2 1 2.86672e+09 2.86677e+09 2.86779e+09 2.8678e+09 1
001 170 1 1 2.87796e+09 2.878e+09 2.87902e+09 2.87907e+09 0
000 171 1 1 2.88878e+09 2.88883e+09 2.88985e+09 2.89075e+09 1
000 172 1 0 2.90021e+09 2.90025e+09 2.90127e+09 2.90192e+09 1
001 173 2 1 2.90494e+09 2.90498e+09 2.906e+09 2.90602e+09 0
001 174 1 0 2.91398e+09 2.91401e+09 2.91503e+09 2.9152e+09 0
001 175 2 1 2.91783e+09 2.91786e+09 2.91888e+09 2.91901e+09 0
001 176 1 1 2.92243e+09 2.92248e+09 2.9235e+09 2.92579e+09 0
000 177 1 1 2.93488e+09 2.93491e+09 2.93593e+09 2.93663e+09 1
000 178 1 1 2.94382e+09 2.94386e+09 2.94488e+09 2.94585e+09 1
000 179 1 1 2.95445e+09 2.95448e+09 2.9555e+09 2.95668e+09 1
000 180 2 0 2.9642e+09 2.96424e+09 2.96526e+09 2.96684e+09 0
000 181 1 1 2.97429e+09 2.97433e+09 2.97535e+09 2.97765e+09 0
000 182 2 0 2.98494e+09 2.98498e+09 2.986e+09 2.98697e+09 0
000 183 1 1 2.9967e+09 2.99673e+09 2.99775e+09 3.0003e+09 0
000 184 1 1 3.00914e+09 3.00918e+09 3.0102e+09 3.01631e+09 0
000 185 1 0 3.02363e+09 3.02367e+09 3.02469e+09 3.04199e+09 0
001 186 1 0 3.04501e+09 3.04505e+09 3.04607e+09 3.04986e+09 0
001 187 2 0 3.0525e+09 3.05254e+09 3.05356e+09 3.05357e+09 0
000 188 2 0 3.06198e+09 3.06201e+09 3.06303e+09 3.06323e+09 1
000 189 2 1 3.07038e+09 3.07043e+09 3.07145e+09 3.07152e+09 1
001 190 2 1 3.08039e+09 3.08042e+09 3.08144e+09 3.08158e+09 0
001 191 1 1 3.08669e+09 3.08672e+09 3.08774e+09 3.08914e+09 0
000 192 1 1 3.10086e+09 3.10091e+09 3.10193e+09 3.10297e+09 1
000 193 1 1 3.11231e+09 3.11235e+09 3.11337e+09 3.11425e+09 1
000 194 1 1 3.12169e+09 3.12172e+09 3.12274e+09 3.1258e+09 1
000 195 1 1 3.13561e+09 3.13565e+09 3.13667e+09 3.14209e+09 0
000 196 2 1 3.1492e+09 3.14924e+09 3.15026e+09 3.15526e+09 0
001 197 2 1 3.15744e+09 3.15748e+09 3.1585e+09 3.16016e+09 0
001 198 2 0 3.16559e+09 3.16564e+09 3.16666e+09 3.16683e+09 0
000 199 2 1 3.17466e+09 3.17471e+09 3.17573e+09 3.17583e+09 1
001 200 2 1 3.17986e+09 3.1799e+09 3.18092e+09 3.18095e+09 0
001 201 1 1 3.18433e+09 3.18437e+09 3.18539e+09 3.1857e+09 0
000 202 1 1 3.19303e+09 3.19307e+09 3.19409e+09 3.19467e+09 1
000 203 1 1 3.20488e+09 3.20491e+09 3.20593e+09 3.20599e+09 1
000 204 1 1 3.21522e+09 3.21527e+09 3.21629e+09 3.22205e+09 1
000 205 1 1 3.22983e+09 3.22987e+09 3.23089e+09 3.23174e+09 0
000 206 2 1 3.23913e+09 3.23917e+09 3.24019e+09 3.24151e+09 0
001 207 2 1 3.24414e+09 3.24417e+09 3.24519e+09 3.24578e+09 0
001 208 2 1 3.24847e+09 3.24851e+09 3.24953e+09 3.24967e+09 0
001 209 2 1 3.25298e+09 3.25302e+09 3.25404e+09 3.25484e+09 0
001 210 2 0 3.26572e+09 3.26575e+09 3.26677e+09 3.27024e+09 0
000 211 2 1 3.27744e+09 3.27749e+09 3.27851e+09 3.27979e+09 1
001 212 1 1 3.28216e+09 3.2822e+09 3.28322e+09 3.28359e+09 0
000 213 1 1 3.29094e+09 3.29099e+09 3.29201e+09 3.29221e+09 1
000 214 1 0 3.30071e+09 3.30075e+09 3.30177e+09 3.30399e+09 1
001 215 1 1 3.30876e+09 3.3088e+09 3.30982e+09 3.31007e+09 0
000 216 1 0 3.31909e+09 3.31913e+09 3.32015e+09 3.32301e+09 1
001 217 1 1 3.32915e+09 3.32919e+09 3.33021e+09 3.33026e+09 0
000 218 1 1 3.33768e+09 3.33771e+09 3.33873e+09 3.3388e+09 1
000 219 1 1 3.3461e+09 3.34613e+09 3.34715e+09 3.35562e+09 1
000 220 1 0 3.36277e+09 3.36282e+09 3.36384e+09 3.36496e+09 1
001 221 2 0 3.37343e+09 3.37347e+09 3.37449e+09 3.37573e+09 0
000 222 2 1 3.38314e+09 3.38319e+09 3.38421e+09 3.38843e+09 1
001 223 2 1 3.39137e+09 3.39141e+09 3.39243e+09 3.39278e+09 0
001 224 2 1 3.40273e+09 3.40276e+09 3.40378e+09 3.41212e+09 0
001 225 1 1 3.42082e+09 3.42085e+09 3.42188e+09 3.42203e+09 0
000 226 1 0 3.43225e+09 3.4323e+09 3.43332e+09 3.43481e+09 1
001 227 2 1 3.44217e+09 3.4422e+09 3.44322e+09 3.44361e+09 0
001 228 2 1 3.44747e+09 3.44751e+09 3.44853e+09 3.44857e+09 0
001 229 1 1 3.45671e+09 3.45676e+09 3.45778e+09 3.4585e+09 0
000 230 1 1 3.46994e+09 3.46998e+09 3.471e+09 3.4714e+09 1
000 231 1 1 3.48032e+09 3.48035e+09 3.48137e+09 3.4857e+09 1
000 232 1 0 3.49278e+09 3.49283e+09 3.49385e+09 3.49392e+09 1
001 233 1 1 3.49712e+09 3.49715e+09 3.49817e+09 3.49841e+09 0
000 234 1 0 3.50689e+09 3.50693e+09 3.50795e+09 3.50822e+09 1
001 235 1 1 3.51087e+09 3.51091e+09 3.51193e+09 3.51282e+09 0
000 236 1 0 3.52015e+09 3.5202e+09 3.52122e+09 3.5234e+09 1
001 237 1 0 3.52613e+09 3.52618e+09 3.5272e+09 3.52731e+09 0
001 238 2 1 3.53074e+09 3.53077e+09 3.53179e+09 3.53191e+09 0
001 239 2 1 3.536e+09 3.53605e+09 3.53707e+09 3.5373e+09 0
001 240 2 0 3.54522e+09 3.54527e+09 3.54629e+09 3.54651e+09 0
000 241 2 1 3.55372e+09 3.55376e+09 3.55478e+09 3.55497e+09 1
001 242 2 1 3.55836e+09 3.55839e+09 3.55941e+09 3.5595e+09 0
001 243 1 1 3.56409e+09 3.56414e+09 3.56516e+09 3.5652e+09 0
000 244 1 1 3.57563e+09 3.57567e+09 3.57669e+09 3.57684e+09 1
000 245 1 0 3.58476e+09 3.5848e+09 3.58582e+09 3.58585e+09 1
001 246 2 1 3.58918e+09 3.58921e+09 3.59023e+09 3.5903e+09 0
001 247 2 0 3.59736e+09 3.5974e+09 3.59842e+09 3.59845e+09 0
000 248 2 1 3.60559e+09 3.60562e+09 3.60664e+09 3.6067e+09 1
001 249 2 1 3.61318e+09 3.61322e+09 3.61424e+09 3.61436e+09 0
001 250 2 0 3.62141e+09 3.62145e+09 3.62247e+09 3.62265e+09 0
000 251 2 1 3.63082e+09 3.63087e+09 3.63189e+09 3.63346e+09 1
001 252 1 1 3.65129e+09 3.65132e+09 3.65234e+09 3.65623e+09 0
000 253 1 1 3.66701e+09 3.66705e+09 3.66807e+09 3.66817e+09 1
000 254 1 0 3.6757e+09 3.67574e+09 3.67676e+09 3.67679e+09 1
001 255 2 1 3.67975e+09 3.67979e+09 3.68081e+09 3.68094e+09 0
001 256 1 1 3.69114e+09 3.69117e+09 3.69219e+09 3.6928e+09 0
000 257 1 1 3.70143e+09 3.70148e+09 3.7025e+09 3.70432e+09 1
000 258 1 1 3.71246e+09 3.71249e+09 3.71351e+09 3.71762e+09 1
000 259 1 0 3.72468e+09 3.72472e+09 3.72574e+09 3.73214e+09 1
001 260 2 1 3.73738e+09 3.73742e+09 3.73844e+09 3.74179e+09 0
001 261 1 1 3.74436e+09 3.7444e+09 3.74542e+09 3.74907e+09 0
000 262 1 0 3.75978e+09 3.75982e+09 3.76084e+09 3.76882e+09 1
001 263 2 1 3.77241e+09 3.77244e+09 3.77346e+09 3.77351e+09 0
001 264 1 1 3.77689e+09 3.77693e+09 3.77795e+09 3.78032e+09 0
000 265 1 1 3.78779e+09 3.78784e+09 3.78886e+09 3.80714e+09 1
000 266 1 0 3.81439e+09 3.81443e+09 3.81545e+09 3.83684e+09 1
001 267 1 1 3.85074e+09 3.85079e+09 3.85181e+09 3.85285e+09 0
000 268 1 1 3.86013e+09 3.86016e+09 3.86118e+09 3.90069e+09 1
000 269 1 0 3.90796e+09 3.908e+09 3.90902e+09 3.93411e+09 1
001 270 2 1 3.9363e+09 3.93633e+09 3.93735e+09 3.94142e+09 0
001 271 2 1 3.94386e+09 3.94391e+09 3.94493e+09 3.94508e+09 0
001 272 1 0 3.94731e+09 3.94736e+09 3.94838e+09 3.94857e+09 0
001 273 1 0 3.95662e+09 3.95665e+09 3.95767e+09 3.96092e+09 0
001 274 2 1 3.96446e+09 3.96451e+09 3.96553e+09 3.96839e+09 0
001 275 2 0 3.97059e+09 3.97062e+09 3.97164e+09 3.97166e+09 0
000 276 2 1 3.97936e+09 3.97939e+09 3.98041e+09 3.98347e+09 1
001 277 2 1 3.98577e+09 3.98581e+09 3.98683e+09 3.98723e+09 0
001 278 2 1 3.99036e+09 3.9904e+09 3.99142e+09 3.99168e+09 0
001 279 1 0 3.99396e+09 3.994e+09 3.99502e+09 3.99524e+09 0
001 280 2 1 3.99886e+09 3.99889e+09 3.99991e+09 4.00102e+09 0
001 281 1 1 4.00412e+09 4.00416e+09 4.00518e+09 4.00656e+09 0
000 282 1 1 4.01736e+09 4.0174e+09 4.01842e+09 4.02364e+09 1
000 283 1 1 4.03073e+09 4.03077e+09 4.03179e+09 4.03247e+09 1
000 284 1 1 4.03979e+09 4.03983e+09 4.04085e+09 4.04105e+09 1
000 285 2 1 4.04868e+09 4.04872e+09 4.04974e+09 4.05926e+09 0
001 286 1 0 4.06414e+09 4.06418e+09 4.0652e+09 4.06538e+09 0
001 287 1 1 4.06821e+09 4.06826e+09 4.06928e+09 4.07808e+09 0
000 288 1 1 4.08527e+09 4.08531e+09 4.08633e+09 4.09877e+09 1
000 289 1 1 4.10619e+09 4.10623e+09 4.10725e+09 4.11504e+09 1
000 290 1 1 4.12226e+09 4.12229e+09 4.12331e+09 4.12508e+09 1
000 291 1 0 4.13236e+09 4.1324e+09 4.13342e+09 4.19143e+09 0
001 292 2 1 4.19369e+09 4.19373e+09 4.19475e+09 4.19629e+09 0
001 293 2 0 4.1985e+09 4.19854e+09 4.19956e+09 4.20752e+09 0
000 294 2 0 4.22191e+09 4.22195e+09 4.22297e+09 4.23108e+09 1
000 295 2 1 4.24347e+09 4.24351e+09 4.24453e+09 4.26726e+09 1
001 296 1 1 4.26951e+09 4.26954e+09 4.27056e+09 4.27173e+09 0
000 297 1 1 4.28106e+09 4.2811e+09 4.28212e+09 5.96967e+06 1
000 298 1 0 1.37319e+07 1.37682e+07 1.47882e+07 1.72744e+08 1
001 299 1 1 1.77192e+08 1.77239e+08 1.7826e+08 2.20305e+08 0
000 300 1 1 2.27512e+08 2.27546e+08 2.28566e+08 2.91345e+08 1
000 301 1 0 2.99052e+08 2.99095e+08 3.00115e+08 3.04243e+08 1
001 302 1 1 3.07195e+08 3.07231e+08 3.08251e+08 3.15757e+08 0
000 303 1 0 3.22912e+08 3.22949e+08 3.23969e+08 3.24117e+08 1
001 304 2 1 3.27223e+08 3.27271e+08 3.28291e+08 3.29078e+08 0
001 305 1 1 3.32209e+08 3.32242e+08 3.33262e+08 3.3593e+08 0
000 306 1 1 3.44893e+08 3.44932e+08 3.45953e+08 4.06072e+08 1
000 307 1 0 4.13471e+08 4.1351e+08 4.1453e+08 6.64883e+08 1
001 308 2 1 6.70352e+08 6.70391e+08 6.71411e+08 6.87033e+08 0
001 309 2 1 6.89996e+08 6.90027e+08 6.91047e+08 6.99422e+08 0
001 310 1 0 7.02041e+08 7.02074e+08 7.03094e+08 7.05788e+08 0
001 311 2 0 7.08562e+08 7.08607e+08 7.09628e+08 7.36058e+08 0
000 312 2 0 7.43222e+08 7.43257e+08 7.44277e+08 7.95673e+08 1
000 313 2 1 8.02761e+08 8.02791e+08 8.03812e+08 8.07888e+08 1
001 314 1 1 8.11693e+08 8.11734e+08 8.12754e+08 8.71985e+08 0
000 315 1 1 8.7919e+08 8.79233e+08 8.80253e+08 9.25928e+08 1
000 316 1 0 9.34366e+08 9.344e+08 9.3542e+08 9.40437e+08 1
001 317 1 1 9.42944e+08 9.42979e+08 9.43999e+08 9.45778e+08 0
000 318 1 1 9.53024e+08 9.53067e+08 9.54087e+08 9.86149e+08 1
000 319 1 0 9.96147e+08 9.96183e+08 9.97203e+08 9.98058e+08 1
001 320 2 0 1.00183e+09 1.00187e+09 1.00289e+09 1.0029e+09 0
000 321 2 1 1.01026e+09 1.01029e+09 1.01131e+09 1.01373e+09 1
001 322 2 1 1.01941e+09 1.01945e+09 1.02047e+09 1.02854e+09 0
001 323 1 1 1.03359e+09 1.03363e+09 1.03465e+09 1.0415e+09 0
000 324 1 0 1.05259e+09 1.05263e+09 1.05365e+09 1.05936e+09 1
001 325 1 0 1.06174e+09 1.06178e+09 1.0628e+09 1.2682e+09 0
001 326 2 0 1.2736e+09 1.27364e+09 1.27466e+09 1.27992e+09 0
000 327 2 1 1.29175e+09 1.29179e+09 1.29281e+09 1.33874e+09 1
001 328 2 0 1.34107e+09 1.34111e+09 1.34213e+09 1.39554e+09 0
000 329 2 0 1.40356e+09 1.4036e+09 1.40462e+09 1.43248e+09 1
000 330 2 0 1.4396e+09 1.43963e+09 1.44065e+09 1.44342e+09 1
000 331 2 1 1.45164e+09 1.45168e+09 1.4527e+09 1.4681e+09 1
001 332 1 1 1.47213e+09 1.47216e+09 1.47318e+09 1.47504e+09 0
000 333 1 0 1.48245e+09 1.48248e+09 1.4835e+09 1.48383e+09 1
001 334 1 1 1.4889e+09 1.48894e+09 1.48996e+09 1.49599e+09 0
000 335 1 1 1.5072e+09 1.50724e+09 1.50826e+09 1.57531e+09 1
000 336 1 1 1.58254e+09 1.58258e+09 1.5836e+09 1.66785e+09 1
000 337 1 1 1.67514e+09 1.67518e+09 1.6762e+09 1.72636e+09 1
000 338 2 0 1.73391e+09 1.73395e+09 1.73497e+09 1.78819e+09 0
000 339 1 0 1.79566e+09 1.7957e+09 1.79672e+09 1.80646e+09 0
001 340 1 0 1.81005e+09 1.8101e+09 1.81112e+09 1.81121e+09 0
001 341 1 1 1.81547e+09 1.81551e+09 1.81653e+09 1.82676e+09 0
000 342 1 0 1.83403e+09 1.83407e+09 1.83509e+09 1.86632e+09 1
001 343 1 1 1.86891e+09 1.86895e+09 1.86997e+09 1.89716e+09 0
000 344 1 0 1.90424e+09 1.90428e+09 1.9053e+09 1.93537e+09 1
001 345 1 0 1.93762e+09 1.93767e+09 1.93869e+09 1.96613e+09 0
001 346 1 0 1.96853e+09 1.96857e+09 1.96959e+09 2.03187e+09 0
001 347 1 0 2.03516e+09 2.0352e+09 2.03622e+09 2.04052e+09 0
001 348 2 0 2.0431e+09 2.04314e+09 2.04416e+09 2.2116e+09 0
000 349 2 0 2.21866e+09 2.21869e+09 2.21971e+09 2.22486e+09 1
000 350 2 0 2.23682e+09 2.23686e+09 2.23788e+09 2.28336e+09 1
000 351 2 0 2.2905e+09 2.29054e+09 2.29156e+09 2.32477e+09 1
000 352 1 0 2.33196e+09 2.332e+09 2.33302e+09 2.33505e+09 0
001 353 1 0 2.34559e+09 2.34563e+09 2.34665e+09 2.35323e+09 0
001 354 1 0 2.35575e+09 2.35579e+09 2.35682e+09 2.41928e+09 0
001 355 2 0 2.42178e+09 2.42182e+09 2.42284e+09 2.51299e+09 0
000 356 2 0 2.52043e+09 2.52046e+09 2.52148e+09 2.52839e+09 1
000 357 2 0 2.54154e+09 2.54158e+09 2.5426e+09 2.56664e+09 1
000 358 2 0 2.57375e+09 2.57379e+09 2.57481e+09 2.58861e+09 1
000 359 1 0 2.59679e+09 2.59682e+09 2.59784e+09 2.62004e+09 0
001 360 2 0 2.63184e+09 2.63188e+09 2.6329e+09 2.63291e+09 0
000 361 2 0 2.63999e+09 2.64003e+09 2.64105e+09 2.6752e+09 1
000 