trial trialType response stillTime stimOnset stimOffset respTime correctionTrial correct
001 1 1 3.59323e+06 3.64461e+06 4.6647e+06 9.09679e+06 0 0
002 1 1 1.63799e+07 1.64152e+07 1.74353e+07 1.74716e+07 1 0
003 1 0 3.45897e+07 3.46289e+07 3.5649e+07 3.63231e+07 1 1
004 1 0 3.97619e+07 3.97961e+07 4.08162e+07 4.68795e+07 0 1
005 2 1 5.34037e+07 5.34361e+07 5.44562e+07 5.66309e+07 0 1
006 2 0 5.94289e+07 5.94673e+07 6.04874e+07 6.05241e+07 0 0
007 2 0 6.75881e+07 6.76308e+07 6.86509e+07 7.1144e+07 1 0
008 2 0 7.86678e+07 7.86972e+07 7.97173e+07 8.01928e+07 1 0
009 2 1 8.76534e+07 8.77008e+07 8.87209e+07 8.89515e+07 1 1
010 1 0 9.84996e+07 9.85392e+07 9.95593e+07 9.95903e+07 0 1
011 2 0 1.0991e+08 1.09944e+08 1.10964e+08 1.10995e+08 0 0
012 2 0 1.2455e+08 1.24583e+08 1.25603e+08 1.27554e+08 1 0
013 2 0 1.35342e+08 1.35375e+08 1.36395e+08 1.38282e+08 1 0
014 2 0 1.50239e+08 1.50279e+08 1.51299e+08 1.5134e+08 1 0
015 1 0 1.62098e+08 1.62136e+08 1.63156e+08 1.64545e+08 0 1
016 2 1 1.66814e+08 1.66855e+08 1.67875e+08 1.67911e+08 0 1
017 2 0 1.77517e+08 1.77559e+08 1.78579e+08 1.80384e+08 0 0
018 2 0 2.00357e+08 2.00397e+08 2.01417e+08 2.01484e+08 1 0
019 2 0 2.08849e+08 2.08882e+08 2.09902e+08 2.10619e+08 1 0
020 2 0 2.17755e+08 2.1779e+08 2.1881e+08 2.18885e+08 1 0
021 2 0 2.28847e+08 2.28884e+08 2.29904e+08 2.29922e+08 0 0
022 2 1 2.43371e+08 2.43417e+08 2.44437e+08 2.45224e+08 0 1
023 2 0 2.48771e+08 2.48818e+08 2.49838e+08 2.52854e+08 0 0
024 2 0 2.67484e+08 2.67517e+08 2.68537e+08 2.69273e+08 1 0
025 2 0 2.78825e+08 2.78857e+08 2.79877e+08 2.79972e+08 1 0
026 2 1 2.87844e+08 2.87884e+08 2.88905e+08 2.88958e+08 1 1
027 2 1 2.94767e+08 2.94813e+08 2.95833e+08 2.96526e+08 0 1
028 2 0 3.22637e+08 3.22675e+08 3.23695e+08 3.24082e+08 0 0
029 2 0 3.33878e+08 3.33914e+08 3.34934e+08 3.38282e+08 1 0
030 2 0 3.45655e+08 3.45693e+08 3.46713e+08 3.4674e+08 1 0
031 2 1 3.54048e+08 3.54092e+08 3.55112e+08 3.5515e+08 1 1
032 2 0 3.57833e+08 3.57865e+08 3.58885e+08 3.59585e+08 0 0
033 2 1 3.71367e+08 3.71405e+08 3.72425e+08 3.73923e+08 1 1
034 1 0 3.91051e+08 3.91088e+08 3.92108e+08 3.93578e+08 0 1
035 2 0 4.02575e+08 4.02624e+08 4.03644e+08 4.03899e+08 0 0
036 2 0 4.13218e+08 4.13256e+08 4.14276e+08 4.14402e+08 1 0
037 2 0 4.2945e+08 4.29492e+08 4.30512e+08 4.30812e+08 1 0
038 2 0 4.39597e+08 4.39633e+08 4.40653e+08 4.40808e+08 1 0
039 1 1 4.49495e+08 4.49538e+08 4.50558e+08 4.51274e+08 0 0
040 1 0 4.59668e+08 4.59699e+08 4.60719e+08 4.60914e+08 0 1
041 1 0 4.83064e+08 4.8311e+08 4.84131e+08 4.84171e+08 0 1
042 2 0 5.07521e+08 5.07561e+08 5.08581e+08 5.08603e+08 0 0
043 2 1 5.32651e+08 5.32695e+08 5.33716e+08 5.3626e+08 1 1
044 2 0 5.51083e+08 5.51128e+08 5.52148e+08 5.52418e+08 0 0
045 2 0 5.69659e+08 5.6969e+08 5.7071e+08 5.72186e+08 1 0
046 2 0 5.83845e+08 5.83882e+08 5.84902e+08 5.87419e+08 1 0
047 2 0 5.9931e+08 5.99343e+08 6.00363e+08 6.00397e+08 1 0
048 1 0 6.13182e+08 6.13223e+08 6.14244e+08 6.17534e+08 0 1
049 1 0 6.20563e+08 6.20604e+08 6.21624e+08 6.21653e+08 0 1
050 1 1 6.29531e+08 6.29577e+08 6.30597e+08 6.31057e+08 0 0
051 1 0 6.38085e+08 6.38133e+08 6.39153e+08 6.39354e+08 1 1
052 2 0 6.49145e+08 6.4919e+08 6.5021e+08 6.52103e+08 0 0
053 2 0 6.76192e+08 6.76235e+08 6.77255e+08 6.78432e+08 1 0
054 2 1 6.90146e+08 6.90182e+08 6.91202e+08 6.91232e+08 1 1
055 2 1 7.06679e+08 7.06717e+08 7.07737e+08 7.08193e+08 0 1
056 1 0 7.24592e+08 7.24633e+08 7.25653e+08 7.2592e+08 0 1
057 1 1 7.40745e+08 7.40776e+08 7.41796e+08 7.43565e+08 0 0
058 1 1 7.5813e+08 7.58167e+08 7.59187e+08 7.59327e+08 1 0
059 1 0 7.71136e+08 7.71175e+08 7.72195e+08 7.73303e+08 1 1
060 1 1 8.21309e+08 8.21343e+08 8.22363e+08 8.22394e+08 0 0
061 1 0 8.30146e+08 8.30185e+08 8.31205e+08 8.31252e+08 1 1
062 1 0 8.43771e+08 8.43814e+08 8.44834e+08 8.4492e+08 0 1
063 1 0 8.6213e+08 8.62175e+08 8.63195e+08 8.65014e+08 0 1
064 2 0 8.89479e+08 8.89522e+08 8.90542e+08 8.90564e+08 0 0
065 2 0 9.03794e+08 9.03839e+08 9.04859e+08 9.06566e+08 1 0
066 2 0 9.16567e+08 9.16606e+08 9.17626e+08 9.17649e+08 1 0
067 2 0 9.26617e+08 9.26653e+08 9.27673e+08 9.27694e+08 1 0
068 2 0 9.55345e+08 9.55376e+08 9.56396e+08 9.56486e+08 0 0
069 1 1 9.73999e+08 9.74045e+08 9.75065e+08 9.75391e+08 0 0
070 1 1 1.01545e+09 1.01549e+09 1.01651e+09 1.01692e+09 0 0
071 1 1 1.03114e+09 1.03119e+09 1.03221e+09 1.03267e+09 0 0
072 1 1 1.05361e+09 1.05364e+09 1.05466e+09 1.05484e+09 0 0
073 1 0 1.0663e+09 1.06634e+09 1.06736e+09 1.06851e+09 0 1
074 2 1 1.0778e+09 1.07785e+09 1.07887e+09 1.07889e+09 0 1
075 2 1 1.12793e+09 1.12797e+09 1.12899e+09 1.12912e+09 0 1
076 1 1 1.1828e+09 1.18283e+09 1.18385e+09 1.18389e+09 0 0
077 1 1 1.19098e+09 1.19102e+09 1.19204e+09 1.19226e+09 1 0
078 1 0 1.21068e+09 1.21073e+09 1.21175e+09 1.21188e+09 1 1
079 1 1 1.29729e+09 1.29733e+09 1.29835e+09 1.29855e+09 0 0
080 1 0 1.3123e+09 1.31233e+09 1.31335e+09 1.3134e+09 1 1
081 1 1 1.33119e+09 1.33122e+09 1.33224e+09 1.33266e+09 0 0
082 1 1 1.3425e+09 1.34254e+09 1.34356e+09 1.34397e+09 1 0
083 1 1 1.35114e+09 1.35118e+09 1.3522e+09 1.35221e+09 1 0
084 1 0 1.38002e+09 1.38005e+09 1.38107e+09 1.38124e+09 1 1
085 1 0 1.39991e+09 1.39994e+09 1.40096e+09 1.40098e+09 0 1
086 1 0 1.40483e+09 1.40487e+09 1.40589e+09 1.40597e+09 0 1
087 2 1 1.45132e+09 1.45136e+09 1.45238e+09 1.45246e+09 0 1
088 2 0 1.50193e+09 1.50197e+09 1.50299e+09 1.50307e+09 0 0
089 2 1 1.53094e+09 1.53097e+09 1.53199e+09 1.53225e+09 1 1
090 2 0 1.55813e+09 1.55817e+09 1.55919e+09 1.55921e+09 0 0
091 2 0 1.5761e+09 1.57613e+09 1.57715e+09 1.57782e+09 1 0
092 2 1 1.58676e+09 1.58681e+09 1.58783e+09 1.58784e+09 1 1
093 1 0 1.59017e+09 1.5902e+09 1.59122e+09 1.59157e+09 0 1
094 2 0 1.64705e+09 1.64709e+09 1.64811e+09 1.64861e+09 0 0
095 2 0 1.65661e+09 1.65664e+09 1.65766e+09 1.6581e+09 1 0
096 2 0 1.67458e+09 1.67463e+09 1.67565e+09 1.67571e+09 1 0
097 2 0 1.68294e+09 1.68299e+09 1.68401e+09 1.68445e+09 1 0
098 1 1 1.69544e+09 1.69548e+09 1.6965e+09 1.69656e+09 0 0
099 1 0 1.70934e+09 1.70938e+09 1.7104e+09 1.71075e+09 0 1
100 1 0 1.71967e+09 1.71971e+09 1.72073e+09 1.7208e+09 0 1
101 1 0 1.75539e+09 1.75544e+09 1.75646e+09 1.75649e+09 0 1
102 1 0 1.76152e+09 1.76156e+09 1.76258e+09 1.76263e+09 0 1
103 2 1 1.82785e+09 1.82788e+09 1.8289e+09 1.82893e+09 0 1
104 2 1 1.90496e+09 1.905e+09 1.90602e+09 1.90826e+09 0 1
105 1 0 1.9135e+09 1.91354e+09 1.91456e+09 1.91738e+09 0 1
106 1 0 1.93392e+09 1.93396e+09 1.93498e+09 1.93508e+09 0 1
107 2 0 1.95438e+09 1.95441e+09 1.95543e+09 1.95547e+09 0 0
108 2 0 1.96753e+09 1.96758e+09 1.9686e+09 1.9687e+09 1 0
109 2 0 1.97812e+09 1.97816e+09 1.97918e+09 1.98049e+09 1 0
110 2 0 1.99945e+09 1.99949e+09 2.00051e+09 2.00054e+09 1 0
111 1 0 2.0213e+09 2.02133e+09 2.02235e+09 2.02239e+09 0 1
112 2 0 2.04896e+09 2.049e+09 2.05002e+09 2.05025e+09 0 0
113 2 1 2.06484e+09 2.06489e+09 2.06591e+09 2.06601e+09 1 1
114 1 1 2.10322e+09 2.10325e+09 2.10427e+09 2.10612e+09 0 0
115 1 0 2.12625e+09 2.12629e+09 2.12731e+09 2.1275e+09 1 1
116 1 0 2.13705e+09 2.13709e+09 2.13811e+09 2.13826e+09 0 1
117 1 1 2.15885e+09 2.15888e+09 2.1599e+09 2.15991e+09 0 0
118 1 0 2.17412e+09 2.17415e+09 2.17517e+09 2.17534e+09 1 1
119 2 0 2.19231e+09 2.19236e+09 2.19338e+09 2.19341e+09 0 0
120 2 0 2.20298e+09 2.20301e+09 2.20403e+09 2.20406e+09 1 0
121 2 0 2.22108e+09 2.22112e+09 2.22214e+09 2.22215e+09 1 0
122 2 0 2.23833e+09 2.23837e+09 2.23939e+09 2.2394e+09 1 0
123 2 0 2.24841e+09 2.24845e+09 2.24947e+09 2.24955e+09 0 0
124 1 0 2.26517e+09 2.26521e+09 2.26623e+09 2.26636e+09 0 1
125 1 0 2.30473e+09 2.30477e+09 2.30579e+09 2.30603e+09 0 1
126 2 0 2.32177e+09 2.32182e+09 2.32284e+09 2.32285e+09 0 0
127 2 0 2.33654e+09 2.33658e+09 2.3376e+09 2.33768e+09 1 0
128 2 0 2.34493e+09 2.34497e+09 2.34599e+09 2.34756e+09 1 0
129 2 0 2.35611e+09 2.35614e+09 2.35716e+09 2.35753e+09 1 0
130 2 0 2.37859e+09 2.37862e+09 2.37964e+09 2.38181e+09 0 0
131 2 0 2.38933e+09 2.38937e+09 2.39039e+09 2.39041e+09 0 0
132 2 0 2.39819e+09 2.39823e+09 2.39925e+09 2.39977e+09 0 0
133 2 1 2.40724e+09 2.40727e+09 2.40829e+09 2.40861e+09 0 1
134 1 0 2.443e+09 2.44304e+09 2.44406e+09 2.44791e+09 0 1
135 1 0 2.45103e+09 2.45106e+09 2.45208e+09 2.45249e+09 0 1
136 2 0 2.46392e+09 2.46396e+09 2.46498e+09 2.46501e+09 0 0
137 2 1 2.4916e+09 2.49163e+09 2.49265e+09 2.49289e+09 1 1
138 2 0 2.49986e+09 2.49989e+09 2.50091e+09 2.50245e+09 0 0
139 2 0 2.50965e+09 2.50969e+09 2.51071e+09 2.51074e+09 1 0
140 2 1 2.51817e+09 2.51821e+09 2.51923e+09 2.52274e+09 1 1
141 1 0 2.56276e+09 2.5628e+09 2.56382e+09 2.56419e+09 0 1
142 1 0 2.59454e+09 2.59458e+09 2.5956e+09 2.59714e+09 0 1
143 1 0 2.60007e+09 2.60011e+09 2.60113e+09 2.60115e+09 0 1
144 2 0 2.6169e+09 2.61693e+09 2.61795e+09 2.61881e+09 0 0
145 2 1 2.62656e+09 2.6266e+09 2.62762e+09 2.62764e+09 1 1
146 2 0 2.63719e+09 2.63723e+09 2.63825e+09 2.6384e+09 0 0
147 2 1 2.6477e+09 2.64775e+09 2.64877e+09 2.64916e+09 1 1
148 2 1 2.65148e+09 2.65152e+09 2.65254e+09 2.65297e+09 0 1
149 1 0 2.66184e+09 2.66188e+09 2.6629e+09 2.66306e+09 0 1
150 2 0 2.68663e+09 2.68668e+09 2.6877e+09 2.68853e+09 0 0
151 2 0 2.69827e+09 2.6983e+09 2.69932e+09 2.69944e+09 1 0
152 2 0 2.70659e+09 2.70663e+09 2.70765e+09 2.70767e+09 1 0
153 2 0 2.71536e+09 2.7154e+09 2.71642e+09 2.71649e+09 1 0
154 1 0 2.73506e+09 2.73509e+09 2.73611e+09 2.73643e+09 0 1
155 2 0 2.75039e+09 2.75044e+09 2.75146e+09 2.75347e+09 0 0
156 2 1 2.76189e+09 2.76193e+09 2.76295e+09 2.7631e+09 1 1
157 2 1 2.79203e+09 2.79207e+09 2.79309e+09 2.79868e+09 0 1
158 2 1 2.83e+09 2.83005e+09 2.83107e+09 2.83161e+09 0 1
159 1 1 2.83415e+09 2.83419e+09 2.83521e+09 2.83525e+09 0 0
160 1 1 2.87691e+09 2.87695e+09 2.87797e+09 2.87829e+09 1 0
161 1 0 2.89551e+09 2.89554e+09 2.89656e+09 2.89719e+09 1 1
162 2 1 2.92208e+09 2.92212e+09 2.92314e+09 2.9232e+09 0 1
163 1 0 2.92607e+09 2.9261e+09 2.92712e+09 2.92742e+09 0 1
164 2 0 2.93673e+09 2.93678e+09 2.9378e+09 2.93826e+09 0 0
165 2 1 2.94554e+09 2.94558e+09 2.9466e+09 2.94785e+09 1 1
166 1 1 2.95245e+09 2.95249e+09 2.95351e+09 2.95404e+09 0 0
167 1 1 2.9628e+09 2.96284e+09 2.96386e+09 2.9639e+09 1 0
168 1 1 2.97479e+09 2.97482e+09 2.97584e+09 2.97603e+09 1 0
169 1 0 3.00833e+09 3.00837e+09 3.00939e+09 3.01003e+09 1 1
170 2 0 3.02429e+09 3.02433e+09 3.02535e+09 3.02555e+09 0 0
171 2 0 3.0422e+09 3.04223e+09 3.04325e+09 3.04566e+09 1 0
172 2 0 3.05559e+09 3.05564e+09 3.05666e+09 3.05679e+09 1 0
173 2 0 3.06756e+09 3.06761e+09 3.06863e+09 3.06889e+09 1 0
174 2 0 3.08383e+09 3.08387e+09 3.08489e+09 3.08566e+09 0 0
175 2 1 3.0963e+09 3.09634e+09 3.09736e+09 3.09847e+09 0 1
176 2 0 3.11069e+09 3.11072e+09 3.11174e+09 3.11184e+09 0 0
177 2 0 3.11893e+09 3.11897e+09 3.11999e+09 3.12042e+09 1 0
178 2 0 3.13236e+09 3.1324e+09 3.13342e+09 3.13408e+09 1 0
179 2 0 3.14449e+09 3.14453e+09 3.14555e+09 3.14663e+09 1 0
180 2 1 3.15484e+09 3.15488e+09 3.1559e+09 3.15827e+09 0 1
181 2 0 3.1608e+09 3.16083e+09 3.16185e+09 3.16288e+09 0 0
182 2 1 3.17204e+09 3.17207e+09 3.17309e+09 3.17334e+09 1 1
183 2 0 3.17863e+09 3.17867e+09 3.17969e+09 3.17972e+09 0 0
184 2 0 3.18679e+09 3.18683e+09 3.18785e+09 3.1887e+09 1 0
185 2 0 3.20044e+09 3.20048e+09 3.2015e+09 3.20155e+09 1 0
186 2 0 3.21163e+09 3.21167e+09 3.21269e+09 3.22019e+09 1 0
187 2 0 3.241e+09 3.24105e+09 3.24207e+09 3.2421e+09 0 0
188 1 0 3.25344e+09 3.25348e+09 3.2545e+09 3.25657e+09 0 1
189 1 0 3.27398e+09 3.27402e+09 3.27504e+09 3.27626e+09 0 1
190 1 0 3.29539e+09 3.29542e+09 3.29644e+09 3.2965e+09 0 1
191 1 0 3.31147e+09 3.3115e+09 3.31252e+09 3.31515e+09 0 1
192 2 0 3.34954e+09 3.34957e+09 3.35059e+09 3.35079e+09 0 0
193 2 1 3.35806e+09 3.35809e+09 3.35911e+09 3.35922e+09 1 1
194 2 0 3.38205e+09 3.38208e+09 3.3831e+09 3.38429e+09 0 0
195 2 0 3.39145e+09 3.39148e+09 3.3925e+09 3.39258e+09 1 0
196 2 0 3.39971e+09 3.39975e+09 3.40077e+09 3.40129e+09 1 0
197 2 1 3.40984e+09 3.40988e+09 3.4109e+09 3.4112e+09 1 1
198 1 0 3.41534e+09 3.41537e+09 3.41639e+09 3.41791e+09 0 1
199 1 0 3.42024e+09 3.42028e+09 3.4213e+09 3.42265e+09 0 1
200 1 0 3.42495e+09 3.42499e+09 3.42601e+09 3.42837e+09 0 1
201 2 0 3.43075e+09 3.43079e+09 3.43181e+09 3.43376e+09 0 0
202 2 1 3.45493e+09 3.45496e+09 3.45598e+09 3.45725e+09 1 1
203 2 0 3.47292e+09 3.47296e+09 3.47398e+09 3.47428e+09 0 0
204 2 1 3.50192e+09 3.50196e+09 3.50298e+09 3.50336e+09 1 1
205 2 1 3.51363e+09 3.51367e+09 3.51469e+09 3.52221e+09 0 1
206 1 0 3.53554e+09 3.53557e+09 3.53659e+09 3.53862e+09 0 1
207 1 1 3.55089e+09 3.55093e+09 3.55195e+09 3.55215e+09 0 0
208 1 0 3.56101e+09 3.56105e+09 3.56207e+09 3.56216e+09 1 1
209 2 0 3.57496e+09 3.57499e+09 3.57601e+09 3.57629e+09 0 0
210 2 1 3.585e+09 3.58504e+09 3.58606e+09 3.58638e+09 1 1
211 2 0 3.61854e+09 3.61857e+09 3.61959e+09 3.62509e+09 0 0
212 2 0 3.64106e+09 3.6411e+09 3.64212e+09 3.64219e+09 1 0
213 2 0 3.651e+09 3.65104e+09 3.65206e+09 3.65359e+09 1 0
214 2 0 3.67009e+09 3.67013e+09 3.67115e+09 3.67183e+09 1 0
215 1 1 3.68636e+09 3.6864e+09 3.68742e+09 3.68992e+09 0 0
216 1 0 3.70086e+09 3.70089e+09 3.70192e+09 3.70351e+09 0 1
217 2 1 3.71179e+09 3.71183e+09 3.71285e+09 3.71316e+09 0 1
218 1 0 3.72541e+09 3.72545e+09 3.72647e+09 3.72673e+09 0 1
219 2 0 3.73254e+09 3.73258e+09 3.7336e+09 3.73371e+09 0 0
220 2 0 3.74378e+09 3.74382e+09 3.74484e+09 3.74503e+09 1 0
221 2 0 3.75241e+09 3.75245e+09 3.75347e+09 3.7535e+09 1 0
222 2 0 3.76402e+09 3.76407e+09 3.76509e+09 3.7652e+09 1 0
223 2 0 3.77432e+09 3.77436e+09 3.77538e+09 3.77587e+09 0 0
224 2 0 3.78436e+09 3.78439e+09 3.78541e+09 3.78574e+09 0 0
225 1 1 3.79553e+09 3.79557e+09 3.79659e+09 3.79847e+09 0 0
226 2 0 3.80599e+09 3.80602e+09 3.80704e+09 3.80858e+09 0 0
227 1 0 3.82489e+09 3.82493e+09 3.82595e+09 3.82602e+09 0 1
228 2 0 3.83337e+09 3.83341e+09 3.83443e+09 3.83449e+09 0 0
229 2 0 3.84238e+09 3.84243e+09 3.84345e+09 3.84347e+09 1 0
230 2 1 3.85222e+09 3.85226e+09 3.85328e+09 3.85397e+09 1 1
231 2 1 3.86763e+09 3.86767e+09 3.86869e+09 3.86906e+09 0 1
232 2 0 3.87743e+09 3.87747e+09 3.87849e+09 3.87858e+09 0 0
233 2 1 3.88578e+09 3.88582e+09 3.88684e+09 3.88918e+09 1 1
234 2 0 3.89181e+09 3.89185e+09 3.89287e+09 3.8975e+09 0 0
235 2 0 3.90705e+09 3.9071e+09 3.90812e+09 3.91882e+09 1 0
236 2 1 3.94237e+09 3.94241e+09 3.94343e+09 3.94349e+09 1 1
237 1 0 3.95218e+09 3.95222e+09 3.95324e+09 3.95501e+09 0 1
238 1 0 3.96024e+09 3.96028e+09 3.9613e+09 3.97663e+09 0 1
239 1 0 3.98243e+09 3.98247e+09 3.98349e+09 3.99605e+09 0 1
240 2 0 3.99845e+09 3.99849e+09 3.99951e+09 4.00629e+09 0 0
241 2 1 4.02295e+09 4.02298e+09 4.024e+09 4.02609e+09 1 1
242 1 0 4.03569e+09 4.03574e+09 4.03676e+09 4.03685e+09 0 1
243 1 0 4.03934e+09 4.03937e+09 4.04039e+09 4.04515e+09 0 1
244 1 1 4.04758e+09 4.04762e+09 4.04864e+09 4.05073e+09 0 0
245 1 0 4.07815e+09 4.07818e+09 4.0792e+09 4.08149e+09 1 1
246 1 0 4.08362e+09 4.08366e+09 4.08468e+09 4.08502e+09 0 1
247 2 0 4.10082e+09 4.10086e+09 4.10188e+09 4.10201e+09 0 0
248 2 1 4.11422e+09 4.11426e+09 4.11528e+09 4.11641e+09 1 1
249 1 1 4.13601e+09 4.13605e+09 4.13707e+09 4.13721e+09 0 0
250 1 1 4.15462e+09 4.15465e+09 4.15567e+09 4.15788e+09 1 0
251 1 0 4.16526e+09 4.16529e+09 4.16631e+09 4.16884e+09 1 1
252 2 0 4.17467e+09 4.17471e+09 4.17573e+09 4.17711e+09 0 0
253 2 1 4.19378e+09 4.19381e+09 4.19483e+09 4.19803e+09 1 1
254 1 0 4.21422e+09 4.21426e+09 4.21528e+09 4.21732e+09 0 1
255 2 0 4.2196e+09 4.21964e+09 4.22066e+09 4.22552e+09 0 0
256 2 0 4.23324e+09 4.23328e+09 4.2343e+09 4.23974e+09 1 0
257 2 0 4.24878e+09 4.24882e+09 4.24984e+09 4.25229e+09 1 0
258 2 1 4.26259e+09 4.26262e+09 4.26364e+09 4.26529e+09 1 1
259 2 0 4.26745e+09 4.26749e+09 4.26851e+09 4.26943e+09 0 0
260 2 0 5.77128e+06 5.81093e+06 6.83103e+06 6.87218e+06 1 0
261 2 0 1.45162e+07 1.45465e+07 1.55666e+07 1.76102e+07 1 0
262 2 0 3.52379e+07 3.52845e+07 3.63046e+07 3.71817e+07 1 0
263 2 0 4.42614e+07 4.43054e+07 4.53255e+07 4.96733e+07 0 0
264 1 1 5.88094e+07 5.88535e+07 5.98736e+07 6.59329e+07 0 0
265 2 0 7.57248e+07 7.57645e+07 7.67846e+07 7.68624e+07 0 0
266 2 0 8.56013e+07 8.56482e+07 8.66683e+07 8.77177e+07 0 0
267 1 0 9.82313e+07 9.82734e+07 9.92935e+07 9.93824e+07 0 1
268 1 1 1.07062e+08 1.071e+08 1.0812e+08 1.08917e+08 0 0
269 1 1 1.21091e+08 1.21138e+08 1.22158e+08 1.23353e+08 1 0
270 1 0 1.31685e+08 1.31727e+08 1.32747e+08 1.3455e+08 1 1
271 1 0 1.43298e+08 1.43337e+08 1.44357e+08 1.44612e+08 0 1
272 2 0 1.47291e+08 1.47325e+08 1.48345e+08 1.49308e+08 0 0
273 2 0 1.57382e+08 1.57421e+08 1.58441e+08 1.62479e+08 1 0
274 2 0 1.73593e+08 1.7363e+08 1.7465e+08 1.77934e+08 1 0
275 2 0 1.98565e+08 1.98609e+08 1.99629e+08 2.00992e+08 1 0
276 2 0 2.08679e+08 2.08715e+08 2.09735e+08 2.1009e+08 0 0
277 1 0 2.23287e+08 2.23327e+08 2.24347e+08 2.29342e+08 0 1
278 2 0 2.40854e+08 2.4089e+08 2.4191e+08 2.42797e+08 0 0
279 2 0 2.49902e+08 2.49944e+08 2.50965e+08 2.51009e+08 1 0
280 2 1 2.59322e+08 2.59368e+08 2.60388e+08 2.6123e+08 1 1
281 2 1 2.72141e+08 2.72184e+08 2.73204e+08 2.73313e+08 0 1
282 1 1 2.87674e+08 2.87714e+08 2.88734e+08 2.89364e+08 0 0
283 1 0 2.9688e+08 2.96922e+08 2.97943e+08 2.98397e+08 1 1
284 2 1 3.04663e+08 3.04695e+08 3.05715e+08 3.05882e+08 0 1
285 2 0 3.12572e+08 3.12608e+08 3.13628e+08 3.13656e+08 0 0
286 2 1 3.21546e+08 3.2159e+08 3.2261e+08 3.24841e+08 1 1
287 1 0 3.34192e+08 3.34229e+08 3.35249e+08 3.36022e+08 0 1
288 1 1 3.44657e+08 3.44688e+08 3.45709e+08 3.48268e+08 0 0
289 1 1 3.57078e+08 3.57122e+08 3.58142e+08 3.58535e+08 1 0
290 1 1 3.68011e+08 3.68043e+08 3.69063e+08 3.69265e+08 1 0
291 1 0 3.80231e+08 3.80263e+08 3.81283e+08 3.81359e+08 1 1
292 2 1 3.94078e+08 3.9412e+08 3.9514e+08 3.97498e+08 0 1
293 2 0 3.99769e+08 3.99814e+08 4.00834e+08 4.0205e+08 0 0
294 2 0 4.38728e+08 4.38761e+08 4.39781e+08 4.40519e+08 1 0
295 2 0 4.48001e+08 4.48032e+08 4.49052e+08 4.52902e+08 1 0
296 2 1 4.74653e+08 4.74692e+08 4.75712e+08 4.76018e+08 1 1
297 1 0 4.78436e+08 4.78475e+08 4.79495e+08 4.79509e+08 0 1
298 2 0 4.87542e+08 4.87575e+08 4.88595e+08 4.88692e+08 0 0
299 2 0 4.9663e+08 4.9666e+08 4.9768e+08 4.97713e+08 1 0
300 2 0 5.05711e+08 5.05743e+08 5.06763e+08 5.06806e+08 1 0
301 2 0 5.16201e+08 5.16243e+08 5.17263e+08 5.17283e+08 1 0
302 1 0 5.25439e+08 5.25477e+08 5.26497e+08 5.283e+08 0 1
303 1 1 5.37971e+08 5.38008e+08 5.39028e+08 5.39621e+08 0 0
304 1 1 5.55935e+08 5.55975e+08 5.56995e+08 5.60826e+08 1 0
305 1 1 5.70741e+08 5.70771e+08 5.71791e+08 5.73642e+08 1 0
306 1 0 5.82436e+08 5.82476e+08 5.83496e+08 5.95352e+08 1 1
307 2 0 6.05921e+08 6.0596e+08 6.0698e+08 6.10748e+08 0 0
308 2 0 6.18058e+08 6.18094e+08 6.19114e+08 6.19185e+08 1 0
309 2 1 6.26945e+08 6.26985e+08 6.28005e+08 6.28804e+08 1 1
310 2 0 6.35148e+08 6.35188e+08 6.36208e+08 6.39247e+08 0 0
311 2 1 6.49009e+08 6.49045e+08 6.50065e+08 6.50268e+08 1 1
312 1 0 6.53424e+08 6.53455e+08 6.54475e+08 6.54882e+08 0 1
313 1 1 6.57797e+08 6.57842e+08 6.58862e+08 6.67666e+08 0 0
314 1 0 6.75161e+08 6.75191e+08 6.76211e+08 6.76582e+08 1 1
315 1 0 6.80109e+08 6.80154e+08 6.81174e+08 6.8126e+08 0 1
316 1 1 7.17641e+08 7.17678e+08 7.18698e+08 7.20843e+08 0 0
317 1 1 7.34437e+08 7.34482e+08 7.35502e+08 7.36389e+08 1 0
318 1 1 7.43649e+08 7.43687e+08 7.44707e+08 7.47374e+08 1 0
319 1 0 7.60958e+08 7.60995e+08 7.62015e+08 7.68394e+08 1 1
320 2 0 7.76882e+08 7.76922e+08 7.77942e+08 7.79797e+08 0 0
321 2 0 8.0017e+08 8.00202e+08 8.01222e+08 8.10968e+08 1 0
322 2 1 8.18236e+08 8.18284e+08 8.19304e+08 8.3472e+08 1 1
323 2 0 8.42681e+08 8.42725e+08 8.43745e+08 8.51308e+08 0 0
324 2 1 8.58423e+08 8.5846e+08 8.5948e+08 8.65913e+08 1 1
325 1 0 8.70003e+08 8.70037e+08 8.71057e+08 8.71108e+08 0 1
326 1 0 8.73696e+08 8.73741e+08 8.74761e+08 8.7492e+08 0 1
327 1 0 8.81297e+08 8.81343e+08 8.82363e+08 8.82488e+08 0 1
328 1 0 8.86742e+08 8.86777e+08 8.87797e+08 8.8848e+08 0 1
329 2 0 8.96637e+08 8.96683e+08 8.97703e+08 8.98872e+08 0 0
330 2 1 9.09172e+08 9.09207e+08 9.10227e+08 9.10969e+08 1 1
331 1 1 9.23807e+08 9.23847e+08 9.24867e+08 9.25214e+08 0 0
332 1 1 9.35474e+08 9.3551e+08 9.3653e+08 9.36754e+08 1 0
333 1 0 9.44529e+08 9.44571e+08 9.45591e+08 9.4589e+08 1 1
334 1 0 9.48837e+08 9.48875e+08 9.49895e+08 9.69689e+08 0 1
335 1 0 9.7407e+08 9.74115e+08 9.75135e+08 9.77093e+08 0 1
336 2 1 9.79445e+08 9.79489e+08 9.80509e+08 9.86005e+08 0 1
337 2 0 9.93294e+08 9.93326e+08 9.94346e+08 9.94456e+08 0 0
338 2 1 1.00423e+09 1.00427e+09 1.00529e+09 1.00557e+09 1 1
339 2 0 1.01283e+09 1.01287e+09 1.01389e+09 1.01966e+09 0 0
340 2 1 1.0278e+09 1.02784e+09 1.02886e+09 1.02929e+09 1 1
341 2 1 1.03192e+09 1.03196e+09 1.03298e+09 1.03515e+09 0 1
342 1 0 1.04193e+09 1.04197e+09 1.04299e+09 1.04603e+09 0 1
343 2 0 1.05129e+09 1.05133e+09 1.05235e+09 1.06197e+09 0 0
344 2 1 1.06904e+09 1.06908e+09 1.0701e+09 1.07923e+09 1 1
345 1 0 1.08149e+09 1.08154e+09 1.08256e+09 1.08264e+09 0 1
346 2 1 1.09083e+09 1.09087e+09 1.09189e+09 1.09232e+09 0 1
347 2 0 1.09481e+09 1.09485e+09 1.09587e+09 1.0961e+09 0 0
348 2 0 1.10585e+09 1.10589e+09 1.10691e+09 1.1104e+09 1 0
349 2 0 1.11785e+09 1.11789e+09 1.11891e+09 1.12074e+09 1 0
350 2 0 1.12859e+09 1.12862e+09 1.12964e+09 1.12994e+09 1 0
351 1 0 1.13968e+09 1.13971e+09 1.14073e+09 1.14528e+09 0 1
352 1 0 1.15006e+09 1.15009e+09 1.15111e+09 1.15216e+09 0 1
353 1 0 1.17513e+09 1.17516e+09 1.17618e+09 1.1783e+09 0 1
354 2 0 1.18387e+09 1.18391e+09 1.18493e+09 1.19416e+09 0 0
355 2 0 1.206e+09 1.20604e+09 1.20706e+09 1.21339e+09 1 0
356 2 0 1.22083e+09 1.22087e+09 1.22189e+09 1.22322e+09 1 0
357 2 1 1.2306e+09 1.23063e+09 1.23165e+09 1.23225e+09 1 1
358 2 0 1.2345e+09 1.23454e+09 1.23556e+09 1.24193e+09 0 0
359 2 0 1.24919e+09 1.24923e+09 1.25025e+09 1.25482e+09 1 0
360 2 0 1.26187e+09 1.26191e+09 1.26293e+09 1.29601e+09 1 0
361 2 0 1.30311e+09 1.30316e+09 1.30418e+09 1.30973e+09 1 0
362 2 1 1.3169e+09 1.31693e+09 1.31795e+09 1.3366e+09 0 1
363 2 0 1.34317e+09 1.34321e+09 1.34423e+09 1.34879e+09 0 0
364 2 0 1.35746e+09 1.3575e+09 1.35852e+09 1.36733e+09 1 0
365 2 0 1.37522e+09 1.37525e+09 1.37627e+09 1.40097e+09 1 0
366 2 1 1.41564e+09 1.41568e+09 1.4167e+09 1.41963e+09 1 1
367 2 0 1.42204e+09 1.42208e+09 1.4231e+09 1.43147e+09 0 0
368 2 0 1.43876e+09 1.43881e+09 1.43983e+09 1.44579e+09 1 0
369 2 0 1.4575e+09 1.45754e+09 1.45856e+09 1.60847e+09 1 0
370 2 1 1.61837e+09 1.61841e+09 1.61943e+09 1.62149e+09 1 1
371 1 0 1.62768e+09 1.62772e+09 1.62874e+09 1.65395e+09 0 1
372 2 0 1.65746e+09 1.6575e+09 1.65852e+09 1.66612e+09 0 0
373 2 0 1.67338e+09 1.67343e+09 1.67445e+09 1.67943e+09 1 0
374 2 0 1.68804e+09 1.68807e+09 1.68909e+09 1.68993e+09 1 0
375 2 1 1.70012e+09 1.70015e+09 1.70117e+09 1.76555e+09 1 1
