trial trialType response stillTime stimOnset stimOffset respTime correctionTrial correct
001 2 0 9.41876e+06 9.7419e+06 1.0762e+07 4.38875e+07 0 0
002 2 0 6.5281e+07 6.55518e+07 6.65718e+07 6.72937e+07 1 0
003 2 0 7.62614e+07 7.65532e+07 7.75732e+07 7.77094e+07 1 0
004 2 0 8.48958e+07 8.51576e+07 8.61777e+07 8.65078e+07 1 0
005 1 0 9.40155e+07 9.42693e+07 9.52894e+07 9.53007e+07 0 1
006 2 0 1.00402e+08 1.00657e+08 1.01677e+08 1.01688e+08 0 0
007 2 1 1.31034e+08 1.31296e+08 1.32316e+08 1.32943e+08 1 1
008 2 1 1.43701e+08 1.43945e+08 1.44965e+08 1.45027e+08 0 1
009 1 0 1.58147e+08 1.58411e+08 1.59432e+08 1.5957e+08 0 1
010 2 0 1.62466e+08 1.62724e+08 1.63744e+08 1.63795e+08 0 0
011 2 0 1.83607e+08 1.83875e+08 1.84895e+08 1.84913e+08 1 0
012 2 0 1.92744e+08 1.92998e+08 1.94018e+08 1.94082e+08 1 0
013 2 0 2.02626e+08 2.02872e+08 2.03892e+08 2.03968e+08 1 0
014 1 0 2.24617e+08 2.24872e+08 2.25892e+08 2.25898e+08 0 1
015 1 0 2.35542e+08 2.35802e+08 2.36822e+08 2.36835e+08 0 1
016 2 0 2.45694e+08 2.45946e+08 2.46966e+08 2.47014e+08 0 0
017 2 1 2.56058e+08 2.56313e+08 2.57333e+08 2.57503e+08 1 1
018 1 0 2.62986e+08 2.63258e+08 2.64279e+08 2.64335e+08 0 1
019 1 0 2.7346e+08 2.73727e+08 2.74747e+08 2.74784e+08 0 1
020 2 0 2.82207e+08 2.82468e+08 2.83489e+08 2.83521e+08 0 0
021 2 0 2.91571e+08 2.9183e+08 2.9285e+08 2.92867e+08 1 0
022 2 0 3.00069e+08 3.0033e+08 3.0135e+08 3.01363e+08 1 0
023 2 1 3.10042e+08 3.1029e+08 3.1131e+08 3.11527e+08 1 1
024 2 0 3.17696e+08 3.17952e+08 3.18973e+08 3.1919e+08 0 0
025 2 1 3.27952e+08 3.28214e+08 3.29234e+08 3.29343e+08 1 1
026 1 0 3.41035e+08 3.41289e+08 3.42309e+08 3.42414e+08 0 1
027 1 0 3.63319e+08 3.63582e+08 3.64602e+08 3.64606e+08 0 1
028 2 0 3.79943e+08 3.80189e+08 3.81209e+08 3.8126e+08 0 0
029 2 0 3.91001e+08 3.91259e+08 3.92279e+08 3.92637e+08 1 0
030 2 1 4.068e+08 4.07059e+08 4.08079e+08 4.08121e+08 1 1
031 2 0 4.21061e+08 4.21318e+08 4.22338e+08 4.22442e+08 0 0
032 2 0 4.35985e+08 4.36233e+08 4.37253e+08 4.37282e+08 1 0
033 2 1 4.45658e+08 4.45915e+08 4.46935e+08 4.47156e+08 1 1
034 1 0 4.53702e+08 4.53958e+08 4.54978e+08 4.55032e+08 0 1
035 1 0 4.6974e+08 4.70001e+08 4.71021e+08 4.71075e+08 0 1
036 2 0 4.94427e+08 4.94692e+08 4.95712e+08 4.95743e+08 0 0
037 2 0 5.04011e+08 5.0427e+08 5.0529e+08 5.05303e+08 1 0
038 2 1 5.12492e+08 5.12748e+08 5.13768e+08 5.13823e+08 1 1
039 2 0 5.32745e+08 5.32998e+08 5.34018e+08 5.34084e+08 0 0
040 2 0 5.44214e+08 5.44459e+08 5.45479e+08 5.46138e+08 1 0
041 2 0 5.53634e+08 5.53885e+08 5.54905e+08 5.55007e+08 1 0
042 2 1 5.64099e+08 5.64361e+08 5.65381e+08 5.67588e+08 1 1
043 2 1 5.85261e+08 5.85528e+08 5.86548e+08 5.86565e+08 0 1
044 1 1 5.95286e+08 5.95543e+08 5.96563e+08 5.96602e+08 0 0
045 1 0 6.11627e+08 6.11888e+08 6.12908e+08 6.12961e+08 1 1
046 1 0 6.20736e+08 6.20983e+08 6.22003e+08 6.22185e+08 0 1
047 1 0 6.30264e+08 6.30525e+08 6.31545e+08 6.31569e+08 0 1
048 2 1 6.48385e+08 6.48632e+08 6.49652e+08 6.50308e+08 0 1
049 2 1 6.6111e+08 6.61368e+08 6.62388e+08 6.62454e+08 0 1
050 2 0 6.77281e+08 6.77542e+08 6.78562e+08 6.78593e+08 0 0
051 2 0 6.89198e+08 6.89443e+08 6.90463e+08 6.9052e+08 1 0
052 2 0 6.97893e+08 6.98139e+08 6.99159e+08 6.99348e+08 1 0
053 2 0 7.09719e+08 7.09978e+08 7.10998e+08 7.1298e+08 1 0
054 2 0 7.25511e+08 7.25779e+08 7.26799e+08 7.27827e+08 0 0
055 1 0 7.35099e+08 7.35344e+08 7.36364e+08 7.36434e+08 0 1
056 1 0 7.51531e+08 7.51785e+08 7.52805e+08 7.52881e+08 0 1
057 2 0 7.67726e+08 7.67982e+08 7.69003e+08 7.69089e+08 0 0
058 2 0 7.77164e+08 7.77415e+08 7.78436e+08 7.78665e+08 1 0
059 2 0 7.85736e+08 7.85994e+08 7.87014e+08 7.8702e+08 1 0
060 2 0 7.94465e+08 7.9473e+08 7.9575e+08 7.95766e+08 1 0
061 1 0 8.03567e+08 8.03827e+08 8.04847e+08 8.04858e+08 0 1
062 2 0 8.21172e+08 8.21426e+08 8.22446e+08 8.23397e+08 0 0
063 2 1 8.30481e+08 8.30748e+08 8.31768e+08 8.31804e+08 1 1
064 1 0 8.36348e+08 8.3661e+08 8.3763e+08 8.37799e+08 0 1
065 2 0 8.53153e+08 8.53412e+08 8.54432e+08 8.5472e+08 0 0
066 2 0 8.6378e+08 8.64036e+08 8.65056e+08 8.65114e+08 1 0
067 2 0 8.75277e+08 8.75528e+08 8.76548e+08 8.76785e+08 1 0
068 2 0 8.84282e+08 8.84536e+08 8.85556e+08 8.85595e+08 1 0
069 1 0 8.93001e+08 8.93266e+08 8.94286e+08 8.94293e+08 0 1
070 2 0 9.16789e+08 9.17056e+08 9.18076e+08 9.18081e+08 0 0
071 2 0 9.2629e+08 9.26545e+08 9.27565e+08 9.27622e+08 1 0
072 2 0 9.42699e+08 9.4295e+08 9.4397e+08 9.44006e+08 1 0
073 2 0 9.51973e+08 9.52231e+08 9.53251e+08 9.53312e+08 1 0
074 2 0 9.60406e+08 9.60662e+08 9.61682e+08 9.61802e+08 0 0
075 1 0 9.70174e+08 9.70428e+08 9.71448e+08 9.71467e+08 0 1
076 1 0 9.8896e+08 9.89213e+08 9.90233e+08 9.90316e+08 0 1
077 2 0 9.98159e+08 9.98425e+08 9.99445e+08 9.99558e+08 0 0
078 2 1 1.00819e+09 1.00845e+09 1.00947e+09 1.00975e+09 1 1
079 1 0 1.02367e+09 1.02393e+09 1.02495e+09 1.02497e+09 0 1
080 1 0 1.04258e+09 1.04283e+09 1.04385e+09 1.04386e+09 0 1
081 2 0 1.05536e+09 1.05562e+09 1.05664e+09 1.05678e+09 0 0
082 2 0 1.06392e+09 1.06417e+09 1.06519e+09 1.06526e+09 1 0
083 2 1 1.07443e+09 1.0747e+09 1.07572e+09 1.07644e+09 1 1
084 2 0 1.09198e+09 1.09223e+09 1.09325e+09 1.09583e+09 0 0
085 2 0 1.10878e+09 1.10903e+09 1.11005e+09 1.11131e+09 1 0
086 2 1 1.12126e+09 1.12152e+09 1.12254e+09 1.12745e+09 1 1
087 2 0 1.13736e+09 1.13762e+09 1.13864e+09 1.13871e+09 0 0
088 2 1 1.14614e+09 1.14639e+09 1.14741e+09 1.14753e+09 1 1
089 2 1 1.15088e+09 1.15114e+09 1.15216e+09 1.15219e+09 0 1
090 1 0 1.16195e+09 1.16221e+09 1.16323e+09 1.16324e+09 0 1
091 2 0 1.17908e+09 1.17934e+09 1.18036e+09 1.18042e+09 0 0
092 2 0 1.1962e+09 1.19646e+09 1.19748e+09 1.1978e+09 1 0
093 2 1 1.20751e+09 1.20777e+09 1.20879e+09 1.20884e+09 1 1
094 2 0 1.22424e+09 1.2245e+09 1.22552e+09 1.22558e+09 0 0
095 2 0 1.23286e+09 1.23313e+09 1.23415e+09 1.23455e+09 1 0
096 2 0 1.24598e+09 1.24624e+09 1.24726e+09 1.24777e+09 1 0
097 2 1 1.25503e+09 1.25528e+09 1.2563e+09 1.25633e+09 1 1
098 1 0 1.26465e+09 1.2649e+09 1.26592e+09 1.26593e+09 0 1
099 2 0 1.28459e+09 1.28485e+09 1.28587e+09 1.28597e+09 0 0
100 2 0 1.29315e+09 1.29341e+09 1.29443e+09 1.29812e+09 1 0
101 2 0 1.30901e+09 1.30926e+09 1.31028e+09 1.31037e+09 1 0
102 2 0 1.3178e+09 1.31805e+09 1.31907e+09 1.32107e+09 1 0
103 1 1 1.33004e+09 1.3303e+09 1.33132e+09 1.33336e+09 0 0
104 2 0 1.34079e+09 1.34104e+09 1.34206e+09 1.34272e+09 0 0
105 2 1 1.35309e+09 1.35335e+09 1.35437e+09 1.3558e+09 0 1
106 1 0 1.36487e+09 1.36513e+09 1.36615e+09 1.36617e+09 0 1
107 2 0 1.37058e+09 1.37083e+09 1.37185e+09 1.37194e+09 0 0
108 2 0 1.38004e+09 1.38029e+09 1.38131e+09 1.3815e+09 1 0
109 2 0 1.38985e+09 1.39011e+09 1.39113e+09 1.39124e+09 1 0
110 2 0 1.40151e+09 1.40176e+09 1.40278e+09 1.40317e+09 1 0
111 2 0 1.41198e+09 1.41224e+09 1.41326e+09 1.41354e+09 0 0
112 1 0 1.42383e+09 1.42408e+09 1.4251e+09 1.42511e+09 0 1
113 1 0 1.43883e+09 1.43909e+09 1.44011e+09 1.44014e+09 0 1
114 2 0 1.45047e+09 1.45072e+09 1.45174e+09 1.45176e+09 0 0
115 2 0 1.46009e+09 1.46035e+09 1.46137e+09 1.46146e+09 1 0
116 2 0 1.46932e+09 1.46958e+09 1.4706e+09 1.47111e+09 1 0
117 2 0 1.47898e+09 1.47924e+09 1.48026e+09 1.48043e+09 1 0
118 1 0 1.48889e+09 1.48913e+09 1.49015e+09 1.49016e+09 0 1
119 2 0 1.51009e+09 1.51035e+09 1.51137e+09 1.5114e+09 0 0
120 2 0 1.51978e+09 1.52003e+09 1.52105e+09 1.52123e+09 1 0
121 2 1 1.5296e+09 1.52987e+09 1.53089e+09 1.5332e+09 1 1
122 1 0 1.53592e+09 1.53618e+09 1.5372e+09 1.53723e+09 0 1
123 1 0 1.54801e+09 1.54827e+09 1.54929e+09 1.54929e+09 0 1
124 1 0 1.56085e+09 1.56111e+09 1.56213e+09 1.56222e+09 0 1
125 1 0 1.5757e+09 1.57596e+09 1.57698e+09 1.57699e+09 0 1
126 2 0 1.60447e+09 1.60474e+09 1.60576e+09 1.60577e+09 0 0
127 2 0 1.61485e+09 1.61511e+09 1.61613e+09 1.61622e+09 1 0
128 2 1 1.62327e+09 1.62353e+09 1.62455e+09 1.6247e+09 1 1
129 2 0 1.63218e+09 1.63244e+09 1.63346e+09 1.63388e+09 0 0
130 2 0 1.64264e+09 1.6429e+09 1.64392e+09 1.64392e+09 1 0
131 2 1 1.65251e+09 1.65277e+09 1.65379e+09 1.654e+09 1 1
132 2 1 1.66089e+09 1.66115e+09 1.66217e+09 1.66342e+09 0 1
133 1 0 1.67828e+09 1.67853e+09 1.67955e+09 1.67956e+09 0 1
134 1 1 1.70297e+09 1.70322e+09 1.70424e+09 1.70435e+09 0 0
135 1 0 1.71269e+09 1.71294e+09 1.71396e+09 1.71399e+09 1 1
136 1 0 1.71909e+09 1.71935e+09 1.72037e+09 1.72038e+09 0 1
137 1 0 1.74285e+09 1.7431e+09 1.74412e+09 1.74413e+09 0 1
138 1 0 1.76538e+09 1.76565e+09 1.76667e+09 1.76668e+09 0 1
139 1 0 1.77981e+09 1.78006e+09 1.78108e+09 1.7811e+09 0 1
140 2 0 1.79712e+09 1.79737e+09 1.79839e+09 1.7984e+09 0 0
141 2 0 1.80554e+09 1.80579e+09 1.80681e+09 1.80692e+09 1 0
142 2 0 1.81985e+09 1.82011e+09 1.82113e+09 1.82113e+09 1 0
143 2 0 1.83059e+09 1.83084e+09 1.83186e+09 1.83224e+09 1 0
144 2 0 1.8394e+09 1.83966e+09 1.84068e+09 1.84068e+09 0 0
145 2 0 1.8479e+09 1.84815e+09 1.84917e+09 1.84919e+09 0 0
146 1 0 1.85753e+09 1.85779e+09 1.85881e+09 1.85884e+09 0 1
147 2 0 1.86413e+09 1.86438e+09 1.8654e+09 1.8655e+09 0 0
148 2 0 1.87272e+09 1.87297e+09 1.87399e+09 1.874e+09 1 0
149 2 0 1.88816e+09 1.88841e+09 1.88943e+09 1.88945e+09 1 0
150 2 1 1.8965e+09 1.89677e+09 1.89779e+09 1.89788e+09 1 1
151 1 0 1.91225e+09 1.9125e+09 1.91352e+09 1.91353e+09 0 1
152 1 0 1.92519e+09 1.92546e+09 1.92648e+09 1.9265e+09 0 1
153 1 0 1.9371e+09 1.93736e+09 1.93838e+09 1.93839e+09 0 1
154 2 0 1.96213e+09 1.96238e+09 1.9634e+09 1.96341e+09 0 0
155 2 0 1.97307e+09 1.97333e+09 1.97435e+09 1.97439e+09 1 0
156 2 0 1.98353e+09 1.98379e+09 1.98481e+09 1.98482e+09 1 0
157 2 0 1.99326e+09 1.99352e+09 1.99454e+09 1.99563e+09 1 0
158 1 0 2.00588e+09 2.00614e+09 2.00716e+09 2.00722e+09 0 1
159 1 0 2.01392e+09 2.01417e+09 2.01519e+09 2.01519e+09 0 1
160 2 0 2.01889e+09 2.01914e+09 2.02016e+09 2.02058e+09 0 0
161 2 1 2.02775e+09 2.02801e+09 2.02903e+09 2.02927e+09 1 1
162 1 0 2.03478e+09 2.03503e+09 2.03605e+09 2.03606e+09 0 1
163 1 0 2.04156e+09 2.04182e+09 2.04284e+09 2.04285e+09 0 1
164 2 0 2.05995e+09 2.06022e+09 2.06124e+09 2.06125e+09 0 0
165 2 0 2.06907e+09 2.06933e+09 2.07035e+09 2.07045e+09 1 0
166 2 0 2.07759e+09 2.07784e+09 2.07886e+09 2.07901e+09 1 0
167 2 0 2.08734e+09 2.0876e+09 2.08862e+09 2.09979e+09 1 0
168 2 0 2.10838e+09 2.10865e+09 2.10967e+09 2.11639e+09 0 0
169 1 0 2.12394e+09 2.1242e+09 2.12522e+09 2.12538e+09 0 1
170 2 0 2.13153e+09 2.13178e+09 2.1328e+09 2.13285e+09 0 0
171 2 0 2.14012e+09 2.14038e+09 2.1414e+09 2.14142e+09 1 0
172 2 0 2.14885e+09 2.14911e+09 2.15013e+09 2.15014e+09 1 0
173 2 0 2.1595e+09 2.15977e+09 2.16079e+09 2.16089e+09 1 0
174 2 0 2.16853e+09 2.16879e+09 2.16981e+09 2.17005e+09 0 0
175 2 1 2.17839e+09 2.17868e+09 2.1797e+09 2.18022e+09 0 1
176 1 0 2.19058e+09 2.19083e+09 2.19185e+09 2.19186e+09 0 1
177 2 0 2.19693e+09 2.1972e+09 2.19822e+09 2.19826e+09 0 0
178 2 0 2.20544e+09 2.2057e+09 2.20672e+09 2.20674e+09 1 0
179 2 0 2.2139e+09 2.21415e+09 2.21517e+09 2.21545e+09 1 0
180 2 0 2.22293e+09 2.22317e+09 2.22419e+09 2.23016e+09 1 0
181 1 0 2.23953e+09 2.23978e+09 2.2408e+09 2.24082e+09 0 1
182 1 0 2.25691e+09 2.25717e+09 2.25819e+09 2.2582e+09 0 1
183 1 0 2.26769e+09 2.26795e+09 2.26897e+09 2.26904e+09 0 1
184 2 0 2.27647e+09 2.27673e+09 2.27775e+09 2.27776e+09 0 0
185 2 1 2.288e+09 2.28826e+09 2.28928e+09 2.28986e+09 1 1
186 1 0 2.30277e+09 2.30303e+09 2.30405e+09 2.30407e+09 0 1
187 1 0 2.31093e+09 2.31119e+09 2.31221e+09 2.31222e+09 0 1
188 2 1 2.32091e+09 2.32117e+09 2.32219e+09 2.32691e+09 0 1
189 2 1 2.33186e+09 2.33212e+09 2.33314e+09 2.33317e+09 0 1
190 1 0 2.34193e+09 2.34218e+09 2.3432e+09 2.34331e+09 0 1
191 2 0 2.34945e+09 2.34972e+09 2.35074e+09 2.35074e+09 0 0
192 2 0 2.35824e+09 2.35849e+09 2.35951e+09 2.35969e+09 1 0
193 2 0 2.37329e+09 2.37354e+09 2.37456e+09 2.37538e+09 1 0
194 2 0 2.38282e+09 2.38308e+09 2.3841e+09 2.38411e+09 1 0
195 1 0 2.39134e+09 2.3916e+09 2.39262e+09 2.39263e+09 0 1
196 2 1 2.40068e+09 2.40093e+09 2.40195e+09 2.40201e+09 0 1
197 1 0 2.40982e+09 2.41008e+09 2.4111e+09 2.41112e+09 0 1
198 2 0 2.42323e+09 2.42349e+09 2.42451e+09 2.4251e+09 0 0
199 2 1 2.4361e+09 2.43636e+09 2.43738e+09 2.43929e+09 1 1
200 1 0 2.44773e+09 2.448e+09 2.44902e+09 2.44903e+09 0 1
201 2 0 2.4523e+09 2.45254e+09 2.45356e+09 2.45369e+09 0 0
202 2 1 2.46307e+09 2.46333e+09 2.46435e+09 2.4644e+09 1 1
203 1 0 2.47015e+09 2.47041e+09 2.47143e+09 2.47143e+09 0 1
204 1 0 2.48243e+09 2.48268e+09 2.4837e+09 2.48371e+09 0 1
205 2 0 2.49306e+09 2.49331e+09 2.49433e+09 2.49442e+09 0 0
206 2 1 2.50177e+09 2.50203e+09 2.50305e+09 2.5031e+09 1 1
207 2 1 2.50952e+09 2.50977e+09 2.51079e+09 2.51087e+09 0 1
208 1 0 2.51501e+09 2.51527e+09 2.51629e+09 2.5163e+09 0 1
209 2 0 2.52979e+09 2.53005e+09 2.53107e+09 2.53122e+09 0 0
210 2 0 2.53886e+09 2.53911e+09 2.54013e+09 2.54014e+09 1 0
211 2 0 2.5497e+09 2.54995e+09 2.55097e+09 2.55097e+09 1 0
212 2 0 2.56243e+09 2.56269e+09 2.56371e+09 2.56388e+09 1 0
213 2 1 2.57373e+09 2.57399e+09 2.57501e+09 2.57534e+09 0 1
214 1 0 2.58218e+09 2.58244e+09 2.58346e+09 2.58347e+09 0 1
215 2 0 2.59162e+09 2.59187e+09 2.59289e+09 2.59302e+09 0 0
216 2 0 2.60143e+09 2.60169e+09 2.60271e+09 2.60354e+09 1 0
217 2 0 2.61251e+09 2.61277e+09 2.61379e+09 2.614e+09 1 0
218 2 0 2.62141e+09 2.62167e+09 2.62269e+09 2.62681e+09 1 0
219 2 0 2.63853e+09 2.63879e+09 2.63981e+09 2.64142e+09 0 0
220 1 0 2.64864e+09 2.6489e+09 2.64992e+09 2.66099e+09 0 1
221 1 0 2.66665e+09 2.66692e+09 2.66794e+09 2.66997e+09 0 1
222 1 1 2.67283e+09 2.67309e+09 2.67411e+09 2.67414e+09 0 0
223 1 0 2.68463e+09 2.68489e+09 2.68591e+09 2.68936e+09 1 1
224 1 0 2.69783e+09 2.69808e+09 2.6991e+09 2.70733e+09 0 1
225 2 1 2.71265e+09 2.7129e+09 2.71392e+09 2.71395e+09 0 1
226 2 0 2.7224e+09 2.72266e+09 2.72368e+09 2.72414e+09 0 0
227 2 1 2.73403e+09 2.73429e+09 2.73531e+09 2.73578e+09 1 1
228 2 0 2.74343e+09 2.7437e+09 2.74472e+09 2.74487e+09 0 0
229 2 0 2.75342e+09 2.75368e+09 2.7547e+09 2.75728e+09 1 0
230 2 0 2.76461e+09 2.76487e+09 2.76589e+09 2.76626e+09 1 0
231 2 0 2.77501e+09 2.77526e+09 2.77628e+09 2.78111e+09 1 0
232 1 0 2.79127e+09 2.79152e+09 2.79254e+09 2.79255e+09 0 1
233 2 0 2.79637e+09 2.79664e+09 2.79766e+09 2.79916e+09 0 0
234 2 0 2.80934e+09 2.80959e+09 2.81061e+09 2.81138e+09 1 0
235 2 0 2.81867e+09 2.81893e+09 2.81995e+09 2.82004e+09 1 0
236 2 1 2.82736e+09 2.82762e+09 2.82864e+09 2.82882e+09 1 1
237 1 0 2.83208e+09 2.83234e+09 2.83336e+09 2.83339e+09 0 1
238 1 0 2.83903e+09 2.83929e+09 2.84031e+09 2.84032e+09 0 1
239 1 0 2.84301e+09 2.84326e+09 2.84428e+09 2.84431e+09 0 1
240 1 0 2.85375e+09 2.854e+09 2.85502e+09 2.85503e+09 0 1
241 1 0 2.85779e+09 2.85805e+09 2.85907e+09 2.85908e+09 0 1
242 2 0 2.87104e+09 2.87131e+09 2.87233e+09 2.87235e+09 0 0
243 2 0 2.87973e+09 2.88e+09 2.88102e+09 2.88102e+09 1 0
244 2 0 2.88806e+09 2.88831e+09 2.88933e+09 2.88934e+09 1 0
245 2 0 2.89685e+09 2.89711e+09 2.89813e+09 2.89949e+09 1 0
246 1 0 2.90962e+09 2.90988e+09 2.9109e+09 2.9109e+09 0 1
247 1 0 2.91708e+09 2.91733e+09 2.91835e+09 2.91836e+09 0 1
248 1 0 2.92098e+09 2.92125e+09 2.92227e+09 2.9223e+09 0 1
249 2 1 2.92695e+09 2.9272e+09 2.92822e+09 2.92844e+09 0 1
250 2 1 2.93513e+09 2.93538e+09 2.9364e+09 2.93655e+09 0 1
251 1 0 2.94558e+09 2.94584e+09 2.94686e+09 2.94687e+09 0 1
252 2 0 2.95269e+09 2.95294e+09 2.95396e+09 2.9541e+09 0 0
253 2 1 2.96156e+09 2.96182e+09 2.96284e+09 2.9632e+09 1 1
254 1 0 2.97062e+09 2.97087e+09 2.97189e+09 2.97191e+09 0 1
255 2 0 2.97729e+09 2.97755e+09 2.97857e+09 2.98003e+09 0 0
256 2 1 2.98741e+09 2.98767e+09 2.98869e+09 2.98915e+09 1 1
257 1 0 2.99185e+09 2.99211e+09 2.99313e+09 2.99313e+09 0 1
258 2 1 3.00019e+09 3.00044e+09 3.00146e+09 3.00847e+09 0 1
259 1 0 3.0111e+09 3.01136e+09 3.01238e+09 3.01239e+09 0 1
260 1 0 3.01636e+09 3.01662e+09 3.01764e+09 3.01764e+09 0 1
261 2 0 3.02818e+09 3.02843e+09 3.02945e+09 3.02951e+09 0 0
262 2 1 3.03795e+09 3.0382e+09 3.03922e+09 3.03931e+09 1 1
263 1 0 3.04181e+09 3.04207e+09 3.04309e+09 3.04309e+09 0 1
264 2 0 3.04723e+09 3.04749e+09 3.04851e+09 3.04853e+09 0 0
265 2 1 3.05599e+09 3.05624e+09 3.05726e+09 3.09495e+09 1 1
266 2 0 3.09769e+09 3.09795e+09 3.09897e+09 3.099e+09 0 0
267 2 0 3.10608e+09 3.10634e+09 3.10736e+09 3.10741e+09 1 0
268 2 0 3.1147e+09 3.11496e+09 3.11598e+09 3.11607e+09 1 0
269 2 0 3.12333e+09 3.1236e+09 3.12462e+09 3.18827e+09 1 0
270 2 0 3.19616e+09 3.19641e+09 3.19743e+09 3.21453e+09 0 0
271 2 0 3.22194e+09 3.22218e+09 3.2232e+09 3.27774e+09 0 0
272 1 0 3.28487e+09 3.28513e+09 3.28615e+09 3.28642e+09 0 1
273 1 0 3.29534e+09 3.2956e+09 3.29662e+09 3.314e+09 0 1
274 1 0 3.3222e+09 3.32246e+09 3.32348e+09 3.39199e+09 0 1
275 2 0 3.39644e+09 3.3967e+09 3.39772e+09 3.41188e+09 0 0
276 2 0 3.41902e+09 3.41927e+09 3.42029e+09 3.43665e+09 1 0
277 2 1 3.44412e+09 3.44437e+09 3.44539e+09 3.46996e+09 1 1
278 1 0 3.47505e+09 3.4753e+09 3.47632e+09 3.47722e+09 0 1
279 1 1 3.47977e+09 3.48003e+09 3.48105e+09 3.49573e+09 0 0
280 1 0 3.5029e+09 3.50317e+09 3.50419e+09 3.50427e+09 1 1
281 2 1 3.51045e+09 3.5107e+09 3.51172e+09 3.51205e+09 0 1
282 2 0 3.51672e+09 3.51697e+09 3.51799e+09 3.53974e+09 0 0
283 2 0 3.54683e+09 3.54709e+09 3.54811e+09 3.60812e+09 1 0
284 2 0 3.61546e+09 3.61571e+09 3.61673e+09 3.61873e+09 1 0
285 2 0 3.62925e+09 3.6295e+09 3.63052e+09 2.18266e+09 1 0
