trial trialType response stillTime stimOnset stimOffset respTime correctionTrial correct
001 2 0 1.02093e+07 1.05455e+07 1.15658e+07 2.23374e+07 0 0
002 2 1 4.61015e+07 4.63928e+07 4.74131e+07 4.74599e+07 1 1
003 2 1 5.55448e+07 5.58384e+07 5.68587e+07 5.68961e+07 0 1
004 2 1 6.33682e+07 6.36208e+07 6.46411e+07 6.47847e+07 0 1
005 1 1 8.04536e+07 8.07229e+07 8.17432e+07 8.17605e+07 0 0
006 1 1 8.95867e+07 8.9854e+07 9.08743e+07 9.08889e+07 1 0
007 1 0 9.79753e+07 9.82507e+07 9.9271e+07 9.92888e+07 1 1
008 1 0 1.04663e+08 1.04916e+08 1.05936e+08 1.05959e+08 0 1
009 2 1 1.15291e+08 1.15564e+08 1.16584e+08 1.17449e+08 0 1
010 1 1 1.53814e+08 1.5408e+08 1.551e+08 1.5981e+08 0 0
011 1 0 1.68325e+08 1.68584e+08 1.69604e+08 1.70703e+08 1 1
012 1 1 1.78529e+08 1.78789e+08 1.79809e+08 1.79829e+08 0 0
013 1 1 1.88385e+08 1.88637e+08 1.89657e+08 1.90473e+08 1 0
014 1 1 2.0084e+08 2.01099e+08 2.0212e+08 2.0502e+08 1 0
015 1 1 2.17482e+08 2.17743e+08 2.18763e+08 2.19882e+08 1 0
016 2 1 2.29675e+08 2.29926e+08 2.30947e+08 2.33179e+08 0 1
017 2 1 2.39523e+08 2.39771e+08 2.40791e+08 2.43997e+08 0 1
018 2 1 2.48165e+08 2.48416e+08 2.49436e+08 2.59942e+08 0 1
019 1 0 2.65432e+08 2.65689e+08 2.6671e+08 2.68059e+08 0 1
020 1 1 2.89492e+08 2.89748e+08 2.90768e+08 2.90809e+08 0 0
021 1 1 3.12774e+08 3.13033e+08 3.14053e+08 3.17009e+08 1 0
022 1 1 3.38504e+08 3.38757e+08 3.39777e+08 3.39925e+08 1 0
023 1 1 3.47166e+08 3.47414e+08 3.48435e+08 3.49555e+08 1 0
024 1 1 3.61587e+08 3.61847e+08 3.62868e+08 3.63194e+08 0 0
025 1 1 3.77634e+08 3.77895e+08 3.78916e+08 3.79105e+08 0 0
026 2 0 3.92385e+08 3.92632e+08 3.93653e+08 3.93671e+08 0 0
027 1 1 4.13366e+08 4.13625e+08 4.14646e+08 4.14707e+08 0 0
028 2 1 4.342e+08 4.34448e+08 4.35469e+08 4.39252e+08 0 1
029 1 1 4.51643e+08 4.51905e+08 4.52925e+08 4.53178e+08 0 0
030 1 0 4.6324e+08 4.63505e+08 4.64525e+08 4.65104e+08 1 1
031 1 1 4.80976e+08 4.81232e+08 4.82252e+08 4.83254e+08 0 0
032 1 1 4.99734e+08 4.99988e+08 5.01009e+08 5.0104e+08 1 0
033 1 0 5.08083e+08 5.08347e+08 5.09367e+08 5.09396e+08 1 1
034 2 1 5.15246e+08 5.15494e+08 5.16514e+08 5.18897e+08 0 1
035 2 0 5.24433e+08 5.24691e+08 5.25712e+08 5.25724e+08 0 0
036 2 1 5.34855e+08 5.35104e+08 5.36124e+08 5.37808e+08 1 1
037 2 1 5.48878e+08 5.49142e+08 5.50162e+08 5.50185e+08 0 1
038 2 1 5.53283e+08 5.53541e+08 5.54561e+08 5.552e+08 0 1
039 1 0 5.5999e+08 5.60245e+08 5.61266e+08 5.61422e+08 0 1
040 2 1 5.69199e+08 5.69458e+08 5.70478e+08 5.7107e+08 0 1
041 2 1 6.10382e+08 6.10629e+08 6.11649e+08 6.13641e+08 0 1
042 2 1 6.20468e+08 6.20717e+08 6.21737e+08 6.2175e+08 0 1
043 1 1 6.31588e+08 6.31833e+08 6.32854e+08 6.33857e+08 0 0
044 1 0 6.41931e+08 6.42177e+08 6.43197e+08 6.43954e+08 1 1
045 2 1 6.53586e+08 6.53838e+08 6.54858e+08 6.55493e+08 0 1
046 2 1 6.60045e+08 6.60299e+08 6.61319e+08 6.62854e+08 0 1
047 1 1 6.71957e+08 6.72203e+08 6.73224e+08 6.73403e+08 0 0
048 1 1 6.85439e+08 6.8569e+08 6.8671e+08 6.87965e+08 1 0
049 1 1 6.99699e+08 6.99946e+08 7.00966e+08 7.03959e+08 1 0
050 1 1 7.17045e+08 7.17312e+08 7.18332e+08 7.18634e+08 1 0
051 1 1 7.47672e+08 7.47942e+08 7.48962e+08 7.49373e+08 0 0
052 1 1 7.7747e+08 7.77734e+08 7.78755e+08 7.80143e+08 0 0
053 1 1 7.90889e+08 7.91143e+08 7.92163e+08 7.94222e+08 0 0
054 2 1 8.21925e+08 8.22191e+08 8.23211e+08 8.2727e+08 0 1
055 2 1 8.42811e+08 8.43069e+08 8.4409e+08 8.44109e+08 0 1
056 1 1 8.56906e+08 8.57159e+08 8.5818e+08 8.58773e+08 0 0
057 1 1 8.68205e+08 8.6845e+08 8.69471e+08 8.70802e+08 1 0
058 1 1 8.9051e+08 8.90768e+08 8.91788e+08 8.91797e+08 1 0
059 1 1 9.04174e+08 9.04417e+08 9.05438e+08 9.08044e+08 1 0
060 2 1 9.18832e+08 9.19087e+08 9.20107e+08 9.20117e+08 0 1
061 1 1 9.47535e+08 9.47794e+08 9.48814e+08 9.48848e+08 0 0
062 1 1 9.88233e+08 9.88489e+08 9.89509e+08 9.89779e+08 1 0
063 1 0 1.00727e+09 1.00752e+09 1.00854e+09 1.00877e+09 1 1
064 2 1 1.01772e+09 1.01797e+09 1.019e+09 1.02193e+09 0 1
065 2 1 1.02919e+09 1.02945e+09 1.03047e+09 1.0305e+09 0 1
066 1 1 1.03704e+09 1.0373e+09 1.03832e+09 1.03892e+09 0 0
067 1 1 1.04658e+09 1.04683e+09 1.04785e+09 1.04826e+09 1 0
068 1 1 1.05571e+09 1.05597e+09 1.05699e+09 1.0573e+09 1 0
069 1 1 1.0767e+09 1.07696e+09 1.07798e+09 1.07872e+09 1 0
070 1 0 1.08682e+09 1.08707e+09 1.08809e+09 1.08839e+09 0 1
071 2 1 1.10932e+09 1.10958e+09 1.1106e+09 1.11112e+09 0 1
072 1 1 1.12782e+09 1.12809e+09 1.12911e+09 1.13013e+09 0 0
073 1 0 1.1373e+09 1.13756e+09 1.13858e+09 1.13875e+09 1 1
074 1 1 1.14346e+09 1.14372e+09 1.14474e+09 1.14594e+09 0 0
075 1 1 1.1567e+09 1.15695e+09 1.15798e+09 1.15799e+09 1 0
076 1 1 1.18017e+09 1.18043e+09 1.18145e+09 1.18585e+09 1 0
077 1 0 1.19348e+09 1.19374e+09 1.19476e+09 1.19483e+09 1 1
078 1 1 1.20207e+09 1.20234e+09 1.20336e+09 1.20348e+09 0 0
079 1 0 1.22554e+09 1.22579e+09 1.22681e+09 1.22691e+09 1 1
080 1 1 1.23075e+09 1.23101e+09 1.23203e+09 1.23211e+09 0 0
081 1 1 1.23926e+09 1.23952e+09 1.24054e+09 1.24055e+09 1 0
082 1 1 1.25702e+09 1.25728e+09 1.2583e+09 1.25837e+09 1 0
083 1 1 1.2811e+09 1.28137e+09 1.28239e+09 1.28394e+09 1 0
084 2 1 1.30215e+09 1.3024e+09 1.30342e+09 1.30516e+09 0 1
085 1 1 1.3077e+09 1.30796e+09 1.30898e+09 1.31079e+09 0 0
086 1 1 1.32187e+09 1.32213e+09 1.32315e+09 1.32325e+09 1 0
087 1 1 1.33085e+09 1.33111e+09 1.33213e+09 1.33272e+09 1 0
088 1 0 1.34747e+09 1.34773e+09 1.34875e+09 1.34881e+09 1 1
089 1 1 1.35574e+09 1.356e+09 1.35702e+09 1.35735e+09 0 0
090 1 1 1.37276e+09 1.37302e+09 1.37404e+09 1.37406e+09 1 0
091 1 0 1.39102e+09 1.39128e+09 1.3923e+09 1.39234e+09 1 1
092 2 0 1.40582e+09 1.40607e+09 1.40709e+09 1.40733e+09 0 0
093 2 1 1.41605e+09 1.41631e+09 1.41733e+09 1.41859e+09 1 1
094 2 1 1.43378e+09 1.43403e+09 1.43505e+09 1.43569e+09 0 1
095 2 1 1.43904e+09 1.43929e+09 1.44031e+09 1.44265e+09 0 1
096 2 1 1.44595e+09 1.44621e+09 1.44723e+09 1.44871e+09 0 1
097 1 1 1.45163e+09 1.45188e+09 1.4529e+09 1.45685e+09 0 0
098 1 1 1.46596e+09 1.46622e+09 1.46724e+09 1.46738e+09 1 0
099 1 1 1.50328e+09 1.50354e+09 1.50456e+09 1.50629e+09 1 0
100 1 1 1.51391e+09 1.51416e+09 1.51518e+09 1.51546e+09 1 0
101 2 1 1.52399e+09 1.52424e+09 1.52526e+09 1.52672e+09 0 1
102 2 1 1.533e+09 1.53325e+09 1.53427e+09 1.53436e+09 0 1
103 1 1 1.54699e+09 1.54724e+09 1.54826e+09 1.55092e+09 0 0
104 1 0 1.56046e+09 1.56071e+09 1.56173e+09 1.56382e+09 1 1
105 2 1 1.57676e+09 1.57702e+09 1.57804e+09 1.57907e+09 0 1
106 1 1 1.5875e+09 1.58777e+09 1.58879e+09 1.59151e+09 0 0
107 1 1 1.59884e+09 1.59911e+09 1.60013e+09 1.60149e+09 1 0
108 1 1 1.63706e+09 1.63732e+09 1.63834e+09 1.63853e+09 1 0
109 1 0 1.65242e+09 1.65267e+09 1.65369e+09 1.65449e+09 1 1
110 2 1 1.66182e+09 1.66207e+09 1.66309e+09 1.66317e+09 0 1
111 2 1 1.66819e+09 1.66844e+09 1.66946e+09 1.66948e+09 0 1
112 1 1 1.68007e+09 1.68034e+09 1.68136e+09 1.68238e+09 0 0
113 1 1 1.70025e+09 1.7005e+09 1.70152e+09 1.70194e+09 1 0
114 1 1 1.71379e+09 1.71405e+09 1.71507e+09 1.71535e+09 1 0
115 1 1 1.7324e+09 1.73264e+09 1.73366e+09 1.73491e+09 1 0
116 2 1 1.74473e+09 1.74498e+09 1.746e+09 1.74921e+09 0 1
117 2 1 1.75993e+09 1.76019e+09 1.76121e+09 1.76124e+09 0 1
118 2 0 1.78564e+09 1.78589e+09 1.78691e+09 1.78697e+09 0 0
119 2 0 1.79447e+09 1.79472e+09 1.79574e+09 1.79814e+09 1 0
120 2 1 1.82013e+09 1.82039e+09 1.82141e+09 1.82152e+09 1 1
121 1 1 1.82452e+09 1.82477e+09 1.82579e+09 1.83117e+09 0 0
122 1 1 1.84082e+09 1.84107e+09 1.84209e+09 1.8443e+09 1 0
123 1 1 1.86494e+09 1.8652e+09 1.86622e+09 1.86801e+09 1 0
124 1 0 1.877e+09 1.87725e+09 1.87827e+09 1.87838e+09 1 1
125 1 1 1.88914e+09 1.88939e+09 1.89041e+09 1.89175e+09 0 0
126 1 1 1.90164e+09 1.9019e+09 1.90292e+09 1.90342e+09 1 0
127 1 1 1.91937e+09 1.91963e+09 1.92065e+09 1.92085e+09 1 0
128 1 0 1.93564e+09 1.9359e+09 1.93692e+09 1.93726e+09 1 1
129 1 0 1.94448e+09 1.94474e+09 1.94577e+09 1.94588e+09 0 1
130 1 1 1.95273e+09 1.95299e+09 1.95402e+09 1.95535e+09 0 0
131 1 0 1.96796e+09 1.9682e+09 1.96922e+09 1.96938e+09 1 1
132 1 1 2.00129e+09 2.00154e+09 2.00256e+09 2.0028e+09 0 0
133 1 0 2.01087e+09 2.01113e+09 2.01215e+09 2.01216e+09 1 1
134 2 0 2.02205e+09 2.02229e+09 2.02331e+09 2.02337e+09 0 0
135 2 1 2.03191e+09 2.03217e+09 2.03319e+09 2.03428e+09 1 1
136 1 1 2.0467e+09 2.04696e+09 2.04798e+09 2.04896e+09 0 0
137 1 1 2.06045e+09 2.06071e+09 2.06173e+09 2.06175e+09 1 0
138 1 1 2.0737e+09 2.07396e+09 2.07498e+09 2.07504e+09 1 0
139 1 1 2.08225e+09 2.08251e+09 2.08353e+09 2.08379e+09 1 0
140 1 1 2.10149e+09 2.10175e+09 2.10277e+09 2.10306e+09 0 0
141 2 1 2.11585e+09 2.1161e+09 2.11712e+09 2.11753e+09 0 1
142 1 1 2.12444e+09 2.1247e+09 2.12572e+09 2.12586e+09 0 0
143 1 1 2.14522e+09 2.14547e+09 2.14649e+09 2.14656e+09 1 0
144 1 1 2.15702e+09 2.15728e+09 2.1583e+09 2.15904e+09 1 0
145 1 1 2.16949e+09 2.16975e+09 2.17077e+09 2.17083e+09 1 0
146 2 1 2.17835e+09 2.17862e+09 2.17964e+09 2.18215e+09 0 1
147 2 1 2.21443e+09 2.21468e+09 2.2157e+09 2.2158e+09 0 1
148 1 0 2.22712e+09 2.22738e+09 2.2284e+09 2.22842e+09 0 1
149 2 1 2.23597e+09 2.23622e+09 2.23724e+09 2.23949e+09 0 1
150 1 0 2.24415e+09 2.24441e+09 2.24543e+09 2.24561e+09 0 1
151 2 1 2.26699e+09 2.26726e+09 2.26828e+09 2.27014e+09 0 1
152 1 1 2.28486e+09 2.28511e+09 2.28613e+09 2.28659e+09 0 0
153 1 1 2.30258e+09 2.30282e+09 2.30384e+09 2.30397e+09 1 0
154 1 1 2.31133e+09 2.31158e+09 2.3126e+09 2.31408e+09 1 0
155 1 1 2.33068e+09 2.33094e+09 2.33196e+09 2.33263e+09 1 0
156 1 1 2.3404e+09 2.34065e+09 2.34167e+09 2.34295e+09 0 0
157 1 1 2.35852e+09 2.35877e+09 2.35979e+09 2.35983e+09 0 0
158 2 1 2.37645e+09 2.3767e+09 2.37772e+09 2.37774e+09 0 1
159 1 1 2.39661e+09 2.39687e+09 2.39789e+09 2.39965e+09 0 0
160 1 1 2.41073e+09 2.41099e+09 2.41201e+09 2.41271e+09 1 0
161 1 1 2.41986e+09 2.42011e+09 2.42113e+09 2.42114e+09 1 0
162 1 1 2.42951e+09 2.42977e+09 2.43079e+09 2.4308e+09 1 0
163 2 1 2.44086e+09 2.44112e+09 2.44214e+09 2.44393e+09 0 1
164 2 1 2.4547e+09 2.45496e+09 2.45598e+09 2.4564e+09 0 1
165 2 0 2.48722e+09 2.48748e+09 2.4885e+09 2.48867e+09 0 0
166 2 1 2.49954e+09 2.49979e+09 2.50081e+09 2.50119e+09 1 1
167 1 1 2.51566e+09 2.51592e+09 2.51694e+09 2.51696e+09 0 0
168 1 1 2.53171e+09 2.53197e+09 2.53299e+09 2.53456e+09 1 0
169 1 1 2.54443e+09 2.54469e+09 2.54571e+09 2.55867e+09 1 0
170 1 1 2.57082e+09 2.57108e+09 2.5721e+09 2.57388e+09 1 0
171 1 1 2.5907e+09 2.59095e+09 2.59197e+09 2.59291e+09 0 0
172 1 1 2.61025e+09 2.61052e+09 2.61154e+09 2.61155e+09 0 0
173 1 1 2.61919e+09 2.61944e+09 2.62046e+09 2.63561e+09 0 0
174 2 1 2.64613e+09 2.64639e+09 2.64741e+09 2.65028e+09 0 1
175 2 1 2.69025e+09 2.69051e+09 2.69153e+09 2.6916e+09 0 1
176 1 1 2.70226e+09 2.70251e+09 2.70353e+09 2.70357e+09 0 0
177 1 1 2.71065e+09 2.71091e+09 2.71193e+09 2.71209e+09 1 0
178 1 1 2.72409e+09 2.72435e+09 2.72537e+09 2.72554e+09 1 0
179 1 1 2.73423e+09 2.73448e+09 2.7355e+09 2.73889e+09 1 0
180 2 1 2.76843e+09 2.76868e+09 2.7697e+09 2.77899e+09 0 1
181 1 0 2.79187e+09 2.79213e+09 2.79315e+09 2.79329e+09 0 1
182 1 1 2.80124e+09 2.80148e+09 2.8025e+09 2.80335e+09 0 0
183 1 0 2.81065e+09 2.81089e+09 2.81191e+09 2.81194e+09 1 1
184 1 0 2.81535e+09 2.8156e+09 2.81662e+09 2.81723e+09 0 1
185 2 0 2.82246e+09 2.82272e+09 2.82374e+09 2.83261e+09 0 0
186 2 0 2.84109e+09 2.84134e+09 2.84236e+09 2.84346e+09 1 0
187 2 0 2.85243e+09 2.85267e+09 2.85369e+09 2.85891e+09 1 0
188 2 0 2.86961e+09 2.86986e+09 2.87088e+09 2.87172e+09 1 0
189 1 0 2.87894e+09 2.87919e+09 2.88021e+09 2.88033e+09 0 1
190 2 0 2.88359e+09 2.88385e+09 2.88487e+09 2.88521e+09 0 0
191 2 0 2.89562e+09 2.89587e+09 2.8969e+09 2.89902e+09 1 0
192 2 0 2.90736e+09 2.90762e+09 2.90864e+09 2.91094e+09 1 0
193 2 0 2.91821e+09 2.91847e+09 2.91949e+09 2.92029e+09 1 0
194 2 0 2.9278e+09 2.92805e+09 2.92907e+09 2.93802e+09 0 0
195 1 0 2.94523e+09 2.94549e+09 2.94651e+09 2.95475e+09 0 1
196 2 0 2.95731e+09 2.95756e+09 2.95858e+09 2.95987e+09 0 0
197 2 0 2.96693e+09 2.96718e+09 2.9682e+09 2.97045e+09 1 0
198 2 1 2.97854e+09 2.9788e+09 2.97982e+09 2.98303e+09 1 1
199 1 1 2.99061e+09 2.99087e+09 2.99189e+09 2.99202e+09 0 0
200 1 0 3.00202e+09 3.00227e+09 3.00329e+09 3.00573e+09 1 1
201 1 1 3.00851e+09 3.00878e+09 3.0098e+09 3.01626e+09 0 0
202 1 0 3.02358e+09 3.02383e+09 3.02485e+09 3.02941e+09 1 1
203 2 0 3.03284e+09 3.03309e+09 3.03411e+09 3.03747e+09 0 0
204 2 0 3.0457e+09 3.04595e+09 3.04697e+09 3.06161e+09 1 0
205 2 0 3.07081e+09 3.07106e+09 3.07208e+09 3.07229e+09 1 0
206 2 0 3.07964e+09 3.07988e+09 3.0809e+09 3.08296e+09 1 0
207 1 0 3.09436e+09 3.09462e+09 3.09564e+09 3.09624e+09 0 1
208 2 0 3.10229e+09 3.10255e+09 3.10357e+09 3.10373e+09 0 0
209 2 0 3.11119e+09 3.11144e+09 3.11246e+09 3.11596e+09 1 0
210 2 0 3.12714e+09 3.1274e+09 3.12842e+09 3.12996e+09 1 0
211 2 0 3.13705e+09 3.13731e+09 3.13833e+09 3.14021e+09 1 0
212 1 0 3.14784e+09 3.14809e+09 3.14911e+09 3.14938e+09 0 1
213 2 0 3.15377e+09 3.15402e+09 3.15504e+09 3.15725e+09 0 0
214 2 0 3.16448e+09 3.16473e+09 3.16575e+09 3.1706e+09 1 0
215 2 0 3.17983e+09 3.18008e+09 3.1811e+09 3.1837e+09 1 0
216 2 0 3.19094e+09 3.1912e+09 3.19222e+09 3.19495e+09 1 0
217 2 0 3.20888e+09 3.20914e+09 3.21016e+09 3.21059e+09 0 0
218 2 0 3.2182e+09 3.21845e+09 3.21947e+09 3.22092e+09 0 0
219 1 0 3.22952e+09 3.22978e+09 3.2308e+09 3.23347e+09 0 1
220 1 0 3.23753e+09 3.23778e+09 3.2388e+09 3.23908e+09 0 1
221 2 0 3.24657e+09 3.24682e+09 3.24784e+09 3.2481e+09 0 0
222 2 0 3.25551e+09 3.25577e+09 3.25679e+09 3.25981e+09 1 0
223 2 0 3.26798e+09 3.26824e+09 3.26926e+09 3.27105e+09 1 0
224 2 0 3.28123e+09 3.28148e+09 3.2825e+09 3.28405e+09 1 0
225 1 0 3.29483e+09 3.29508e+09 3.2961e+09 3.29705e+09 0 1
226 2 0 3.3001e+09 3.30035e+09 3.30137e+09 3.30202e+09 0 0
227 2 0 3.31161e+09 3.31187e+09 3.31289e+09 3.31447e+09 1 0
228 2 0 3.32183e+09 3.32209e+09 3.32311e+09 3.33504e+09 1 0
229 2 1 3.34282e+09 3.34308e+09 3.3441e+09 3.3469e+09 1 1
230 2 0 3.35137e+09 3.35162e+09 3.35264e+09 3.35376e+09 0 0
231 2 0 3.36322e+09 3.36347e+09 3.36449e+09 3.36524e+09 1 0
232 2 0 3.37565e+09 3.3759e+09 3.37693e+09 3.37957e+09 1 0
233 2 1 3.38754e+09 3.3878e+09 3.38882e+09 3.39114e+09 1 1
234 1 0 3.39486e+09 3.39511e+09 3.39613e+09 3.39629e+09 0 1
235 2 1 3.40233e+09 3.40259e+09 3.40361e+09 3.40471e+09 0 1
236 1 0 3.41091e+09 3.41118e+09 3.4122e+09 3.41492e+09 0 1
237 1 0 3.42109e+09 3.42134e+09 3.42236e+09 3.42844e+09 0 1
238 2 0 3.44054e+09 3.44079e+09 3.44181e+09 3.44241e+09 0 0
239 2 0 3.4516e+09 3.45185e+09 3.45287e+09 3.45581e+09 1 0
240 2 0 3.46357e+09 3.46382e+09 3.46484e+09 3.47029e+09 1 0
241 2 1 3.47777e+09 3.47802e+09 3.47904e+09 3.48047e+09 1 1
242 1 0 3.49442e+09 3.49466e+09 3.49568e+09 3.49617e+09 0 1
243 2 0 3.49908e+09 3.49933e+09 3.50035e+09 3.50075e+09 0 0
244 2 0 3.50779e+09 3.50805e+09 3.50907e+09 3.52007e+09 1 0
245 2 0 3.52789e+09 3.52815e+09 3.52917e+09 3.53223e+09 1 0
246 2 1 3.53991e+09 3.54017e+09 3.54119e+09 3.54411e+09 1 1
247 2 0 3.54894e+09 3.5492e+09 3.55022e+09 3.55574e+09 0 0
248 2 1 3.56845e+09 3.56871e+09 3.56973e+09 3.56973e+09 1 1
249 1 0 3.5743e+09 3.57455e+09 3.57557e+09 3.57568e+09 0 1
250 2 0 3.58334e+09 3.58359e+09 3.58461e+09 3.58916e+09 0 0
251 2 0 3.59842e+09 3.59868e+09 3.5997e+09 3.60123e+09 1 0
252 2 1 3.60935e+09 3.60961e+09 3.61063e+09 3.61101e+09 1 1
253 1 0 3.61457e+09 3.61483e+09 3.61585e+09 3.61693e+09 0 1
254 1 0 3.61998e+09 3.62024e+09 3.62126e+09 3.62162e+09 0 1
255 1 0 3.6289e+09 3.62916e+09 3.63018e+09 3.6302e+09 0 1
256 2 0 3.63447e+09 3.63474e+09 3.63576e+09 3.63976e+09 0 0
257 2 1 3.65147e+09 3.65173e+09 3.65275e+09 3.65361e+09 1 1
258 1 0 3.66007e+09 3.66032e+09 3.66135e+09 3.66425e+09 0 1
259 2 1 3.66684e+09 3.66709e+09 3.66811e+09 3.67673e+09 0 1
260 2 0 3.67981e+09 3.68007e+09 3.68109e+09 3.68727e+09 0 0
261 2 0 3.69473e+09 3.69498e+09 3.696e+09 3.69873e+09 1 0
262 2 0 3.70605e+09 3.7063e+09 3.70732e+09 3.72194e+09 1 0
263 2 0 3.72898e+09 3.72923e+09 3.73025e+09 3.74042e+09 1 0
264 1 1 3.74956e+09 3.74982e+09 3.75084e+09 3.75114e+09 0 0
265 2 0 3.76062e+09 3.76087e+09 3.76189e+09 3.76607e+09 0 0
266 2 0 3.77541e+09 3.77566e+09 3.77668e+09 3.7803e+09 0 0
267 1 0 3.78912e+09 3.78938e+09 3.7904e+09 3.79694e+09 0 1
268 1 0 3.80205e+09 3.8023e+09 3.80332e+09 3.80356e+09 0 1
269 2 0 3.81064e+09 3.81089e+09 3.81191e+09 3.81196e+09 0 0
270 2 0 3.82035e+09 3.82061e+09 3.82163e+09 3.82251e+09 1 0
271 2 0 3.83099e+09 3.83126e+09 3.83228e+09 3.84017e+09 1 0
272 2 0 3.85076e+09 3.85101e+09 3.85203e+09 3.85367e+09 1 0
273 2 0 3.86096e+09 3.86121e+09 3.86223e+09 3.86889e+09 0 0
274 2 0 3.8785e+09 3.87874e+09 3.87977e+09 3.8859e+09 0 0
275 1 1 3.89305e+09 3.89332e+09 3.89434e+09 3.89956e+09 0 0
276 1 0 3.90677e+09 3.90702e+09 3.90804e+09 3.90833e+09 0 1
277 1 0 3.91163e+09 3.91188e+09 3.9129e+09 3.91292e+09 0 1
278 2 0 3.91936e+09 3.91962e+09 3.92064e+09 3.92126e+09 0 0
279 2 0 3.92861e+09 3.92886e+09 3.92988e+09 3.93124e+09 1 0
280 2 0 3.93843e+09 3.93869e+09 3.93971e+09 3.94189e+09 1 0
281 2 0 3.95088e+09 3.95113e+09 3.95215e+09 3.95283e+09 1 0
282 2 0 3.96654e+09 3.96679e+09 3.96781e+09 3.97195e+09 0 0
283 1 0 3.98101e+09 3.98126e+09 3.98228e+09 3.98248e+09 0 1
284 1 0 3.98534e+09 3.98559e+09 3.98661e+09 3.98667e+09 0 1
285 1 0 3.9943e+09 3.99455e+09 3.99557e+09 3.99631e+09 0 1
286 1 0 4.00372e+09 4.00397e+09 4.00499e+09 4.04444e+09 0 1
287 1 0 4.04736e+09 4.04761e+09 4.04863e+09 4.05276e+09 0 1
288 2 0 4.05749e+09 4.05774e+09 4.05876e+09 4.05917e+09 0 0
289 2 0 4.06659e+09 4.06684e+09 4.06786e+09 4.06883e+09 1 0
290 2 0 4.07608e+09 4.07633e+09 4.07735e+09 4.07984e+09 1 0
291 2 0 4.08903e+09 4.08929e+09 4.09031e+09 4.09253e+09 1 0
292 2 0 4.09974e+09 4.09999e+09 4.10101e+09 4.10497e+09 0 0
293 1 0 4.11211e+09 4.11236e+09 4.11338e+09 4.11379e+09 0 1
294 1 0 4.12923e+09 4.12947e+09 4.13049e+09 4.13051e+09 0 1
295 1 0 4.13436e+09 4.13461e+09 4.13563e+09 4.13788e+09 0 1
296 2 0 4.14056e+09 4.14081e+09 4.14183e+09 4.14193e+09 0 0
297 2 0 4.1518e+09 4.15207e+09 4.15309e+09 4.15368e+09 1 0
298 2 0 4.16258e+09 4.16284e+09 4.16386e+09 4.16733e+09 1 0
299 2 0 4.17473e+09 4.17498e+09 4.176e+09 4.17685e+09 1 0
300 1 1 4.18476e+09 4.18501e+09 4.18603e+09 4.18604e+09 0 0
301 2 0 4.19588e+09 4.19614e+09 4.19716e+09 4.21271e+09 0 0
302 2 0 4.22361e+09 4.22387e+09 4.22489e+09 4.22935e+09 0 0
303 2 0 4.23845e+09 4.23871e+09 4.23973e+09 4.24285e+09 0 0
304 1 0 4.25116e+09 4.25142e+09 4.25244e+09 4.25264e+09 0 1
305 2 0 4.25854e+09 4.2588e+09 4.25982e+09 4.26074e+09 0 0
306 2 0 4.26821e+09 4.26847e+09 4.26949e+09 4.27289e+09 1 0
307 2 1 4.28417e+09 4.28442e+09 4.28544e+09 3.44652e+06 1 1
308 1 0 1.08872e+07 1.1142e+07 1.21623e+07 1.25072e+07 0 1
309 2 0 1.87085e+07 1.89562e+07 1.99765e+07 2.29156e+07 0 0
310 2 0 3.67278e+07 3.69765e+07 3.79968e+07 4.21378e+07 1 0
311 2 0 4.93292e+07 4.95889e+07 5.06092e+07 6.87656e+07 1 0
312 2 0 7.59419e+07 7.61969e+07 7.72172e+07 8.79555e+07 1 0
313 2 0 9.61167e+07 9.63645e+07 9.73848e+07 1.13382e+08 0 0
314 2 0 1.2408e+08 1.24341e+08 1.25362e+08 1.28642e+08 0 0
315 1 0 1.3886e+08 1.39111e+08 1.40132e+08 1.40162e+08 0 1
316 2 0 1.45354e+08 1.45611e+08 1.46631e+08 1.47909e+08 0 0
317 2 1 1.5603e+08 1.56281e+08 1.57301e+08 1.58357e+08 1 1
318 2 0 1.61134e+08 1.61383e+08 1.62403e+08 1.62763e+08 0 0
319 2 0 1.71481e+08 1.71739e+08 1.7276e+08 1.74552e+08 1 0
320 2 0 1.82906e+08 1.83164e+08 1.84185e+08 1.88994e+08 1 0
321 2 0 1.99293e+08 1.99551e+08 2.00571e+08 2.02524e+08 1 0
322 1 0 2.09864e+08 2.10111e+08 2.11132e+08 2.11339e+08 0 1
323 1 0 2.14124e+08 2.14372e+08 2.15393e+08 2.18152e+08 0 1
324 2 0 2.20812e+08 2.21067e+08 2.22087e+08 2.22514e+08 0 0
325 2 0 2.30024e+08 2.30278e+08 2.31298e+08 2.31984e+08 1 0
326 2 0 2.42599e+08 2.4286e+08 2.4388e+08 2.4691e+08 1 0
327 2 0 2.57583e+08 2.57833e+08 2.58853e+08 2.6187e+08 1 0
328 1 0 2.71598e+08 2.71847e+08 2.72868e+08 2.72928e+08 0 1
329 2 0 2.75566e+08 2.75821e+08 2.76841e+08 2.7693e+08 0 0
330 2 0 2.85486e+08 2.85747e+08 2.86767e+08 2.86788e+08 1 0
331 2 0 2.96459e+08 2.96719e+08 2.97739e+08 2.98182e+08 1 0
332 2 1 3.05584e+08 3.0585e+08 3.0687e+08 3.17708e+08 1 1
333 1 0 3.21401e+08 3.21661e+08 3.22682e+08 3.24439e+08 0 1
334 2 0 3.31163e+08 3.31432e+08 3.32453e+08 3.32477e+08 0 0
335 2 0 3.46289e+08 3.4655e+08 3.47571e+08 3.4793e+08 1 0
336 2 0 3.55152e+08 3.55405e+08 3.56425e+08 3.57152e+08 1 0
337 2 0 3.67099e+08 3.67356e+08 3.68377e+08 3.77733e+08 1 0
338 2 0 3.92939e+08 3.93197e+08 3.94217e+08 3.98986e+08 0 0
339 2 0 4.10806e+08 4.11059e+08 4.1208e+08 4.13638e+08 0 0
340 2 0 4.24274e+08 4.24521e+08 4.25541e+08 4.32398e+08 0 0
341 2 0 4.41225e+08 4.41476e+08 4.42496e+08 4.4319e+08 0 0
342 1 0 4.51578e+08 4.51831e+08 4.52852e+08 4.53566e+08 0 1
343 2 1 4.56595e+08 4.56846e+08 4.57866e+08 4.61963e+08 0 1
344 1 0 4.65481e+08 4.65732e+08 4.66752e+08 4.66967e+08 0 1
345 2 0 4.70825e+08 4.71074e+08 4.72094e+08 4.72685e+08 0 0
346 2 0 4.85268e+08 4.85514e+08 4.86535e+08 4.87754e+08 1 0
347 2 0 4.96619e+08 4.96866e+08 4.97887e+08 4.9831e+08 1 0
348 2 0 5.06342e+08 5.06597e+08 5.07617e+08 5.10535e+08 1 0
349 1 0 5.17668e+08 5.17921e+08 5.18941e+08 5.1897e+08 0 1
350 2 0 5.31334e+08 5.31583e+08 5.32604e+08 5.59638e+08 0 0
351 2 0 5.67694e+08 5.67941e+08 5.68961e+08 5.68976e+08 1 0
352 2 0 5.79633e+08 5.79894e+08 5.80915e+08 5.83783e+08 1 0
353 2 0 5.93077e+08 5.93336e+08 5.94356e+08 5.96959e+08 1 0
354 1 0 6.13114e+08 6.13361e+08 6.14382e+08 6.14549e+08 0 1
355 2 0 6.24025e+08 6.24278e+08 6.25298e+08 6.25459e+08 0 0
356 2 1 6.33107e+08 6.33373e+08 6.34393e+08 6.34791e+08 1 1
357 1 0 6.40271e+08 6.40526e+08 6.41546e+08 6.41968e+08 0 1
358 1 0 6.48405e+08 6.48657e+08 6.49677e+08 6.53324e+08 0 1
359 1 0 6.56784e+08 6.57044e+08 6.58065e+08 6.5823e+08 0 1
360 2 0 6.63575e+08 6.63844e+08 6.64865e+08 6.68785e+08 0 0
361 2 0 6.76107e+08 6.76358e+08 6.77378e+08 6.78031e+08 1 0
362 2 0 6.85164e+08 6.8542e+08 6.8644e+08 6.88505e+08 1 0
363 2 1 6.95962e+08 6.96216e+08 6.97236e+08 6.97331e+08 1 1
364 2 0 7.08915e+08 7.09174e+08 7.10194e+08 7.10253e+08 0 0
365 2 0 7.17706e+08 7.17964e+08 7.18984e+08 7.19021e+08 1 0
366 2 0 7.30127e+08 7.30379e+08 7.31399e+08 7.31521e+08 1 0
367 2 0 7.38843e+08 7.39095e+08 7.40115e+08 7.40266e+08 1 0
368 1 0 7.63696e+08 7.63953e+08 7.64973e+08 7.7117e+08 0 1
369 1 0 7.7924e+08 7.79502e+08 7.80522e+08 7.8192e+08 0 1
370 1 0 7.85801e+08 7.86048e+08 7.87068e+08 7.90641e+08 0 1
371 1 0 7.96033e+08 7.9628e+08 7.973e+08 7.97722e+08 0 1
372 2 0 8.04517e+08 8.04763e+08 8.05783e+08 8.08732e+08 0 0
373 2 0 8.1812e+08 8.18376e+08 8.19397e+08 8.21654e+08 1 0
374 2 0 8.38305e+08 8.38548e+08 8.39568e+08 8.41971e+08 1 0
375 2 0 8.49327e+08 8.4958e+08 8.506e+08 8.78814e+08 1 0
376 1 0 8.86647e+08 8.86898e+08 8.87918e+08 8.87981e+08 0 1
377 1 0 9.03803e+08 9.04059e+08 9.0508e+08 9.05147e+08 0 1
378 2 0 9.11378e+08 9.11644e+08 9.12664e+08 9.12928e+08 0 0
379 2 1 9.2171e+08 9.21961e+08 9.22982e+08 9.24408e+08 1 1
380 1 0 9.28985e+08 9.29239e+08 9.30259e+08 9.31264e+08 0 1
381 1 0 9.34283e+08 9.34531e+08 9.35551e+08 9.35579e+08 0 1
382 1 0 9.41421e+08 9.41673e+08 9.42693e+08 9.43579e+08 0 1
383 2 0 9.52704e+08 9.52964e+08 9.53985e+08 9.57659e+08 0 0
384 2 0 9.69418e+08 9.69685e+08 9.70705e+08 9.78058e+08 1 0
385 2 1 9.90087e+08 9.9035e+08 9.9137e+08 9.92488e+08 1 1
386 1 0 1.00117e+09 1.00143e+09 1.00245e+09 1.00916e+09 0 1
387 1 0 1.01222e+09 1.01247e+09 1.01349e+09 1.01355e+09 0 1
388 1 0 1.0195e+09 1.01976e+09 1.02078e+09 1.03258e+09 0 1
389 2 0 1.04093e+09 1.04119e+09 1.04221e+09 1.04501e+09 0 0
390 2 0 1.05395e+09 1.05422e+09 1.05524e+09 1.05726e+09 1 0
391 2 0 1.06717e+09 1.06743e+09 1.06845e+09 1.07094e+09 1 0
392 2 0 1.07932e+09 1.07958e+09 1.0806e+09 1.08146e+09 1 0
393 2 0 1.08855e+09 1.08881e+09 1.08983e+09 1.09112e+09 0 0
394 2 0 1.09967e+09 1.09992e+09 1.10094e+09 1.10239e+09 0 0
395 1 0 1.11574e+09 1.11601e+09 1.11703e+09 1.11735e+09 0 1
396 2 0 1.12102e+09 1.12127e+09 1.1223e+09 1.12465e+09 0 0
397 2 0 1.13232e+09 1.13258e+09 1.1336e+09 1.14404e+09 1 0
398 2 0 1.15146e+09 1.15171e+09 1.15273e+09 1.15521e+09 1 0
399 2 0 1.16475e+09 1.16501e+09 1.16603e+09 1.16831e+09 1 0
400 2 1 1.1767e+09 1.17696e+09 1.17798e+09 1.18409e+09 0 1
401 2 0 1.18671e+09 1.18696e+09 1.18798e+09 1.18811e+09 0 0
402 2 0 1.19548e+09 1.19573e+09 1.19675e+09 1.20112e+09 1 0
403 2 0 1.20841e+09 1.20866e+09 1.20968e+09 1.21036e+09 1 0
404 2 0 1.21936e+09 1.21962e+09 1.22064e+09 1.23844e+09 1 0
405 2 0 1.24583e+09 1.24608e+09 1.2471e+09 1.26828e+09 0 0
406 2 1 1.27575e+09 1.27601e+09 1.27703e+09 1.28042e+09 0 1
407 2 0 1.2851e+09 1.28537e+09 1.28639e+09 1.28656e+09 0 0
408 2 1 1.29518e+09 1.29544e+09 1.29646e+09 1.30228e+09 1 1
409 1 0 1.30489e+09 1.30516e+09 1.30618e+09 1.3063e+09 0 1
410 2 0 1.30985e+09 1.3101e+09 1.31112e+09 1.31185e+09 0 0
411 2 0 1.32701e+09 1.32727e+09 1.32829e+09 1.33433e+09 1 0
412 2 1 1.34304e+09 1.3433e+09 1.34432e+09 1.34968e+09 1 1
413 1 0 1.35829e+09 1.35854e+09 1.35956e+09 1.35998e+09 0 1
414 1 0 1.36285e+09 1.36311e+09 1.36413e+09 1.36416e+09 0 1
415 2 0 1.36944e+09 1.3697e+09 1.37072e+09 1.37087e+09 0 0
416 2 0 1.37821e+09 1.37846e+09 1.37948e+09 1.38111e+09 1 0
417 2 0 1.38934e+09 1.38959e+09 1.39061e+09 1.39106e+09 1 0
418 2 0 1.39864e+09 1.39891e+09 1.39993e+09 1.40089e+09 1 0
419 1 0 1.40865e+09 1.40891e+09 1.40993e+09 1.41075e+09 0 1
420 1 0 1.4172e+09 1.41747e+09 1.41849e+09 1.4185e+09 0 1
421 1 0 1.42289e+09 1.42315e+09 1.42417e+09 1.42419e+09 0 1
422 2 0 1.43647e+09 1.43673e+09 1.43775e+09 1.43793e+09 0 0
423 2 0 1.44582e+09 1.44608e+09 1.4471e+09 1.44864e+09 1 0
424 2 0 1.45725e+09 1.4575e+09 1.45852e+09 1.46057e+09 1 0
425 2 0 1.47069e+09 1.47093e+09 1.47195e+09 1.47287e+09 1 0
426 1 0 1.48025e+09 1.4805e+09 1.48152e+09 1.48157e+09 0 1
427 2 0 1.49141e+09 1.49166e+09 1.49268e+09 1.49301e+09 0 0
428 2 0 1.5013e+09 1.50156e+09 1.50258e+09 1.50332e+09 1 0
429 2 0 1.51079e+09 1.51105e+09 1.51207e+09 1.51316e+09 1 0
430 2 0 1.52019e+09 1.52044e+09 1.52146e+09 1.52225e+09 1 0
431 1 0 1.5319e+09 1.53216e+09 1.53318e+09 1.5332e+09 0 1
432 2 0 1.54157e+09 1.54183e+09 1.54285e+09 1.56378e+09 0 0
433 2 0 1.5739e+09 1.57416e+09 1.57518e+09 1.57544e+09 1 0
434 2 0 1.58566e+09 1.58592e+09 1.58694e+09 1.58935e+09 1 0
435 2 0 1.60604e+09 1.6063e+09 1.60732e+09 1.60768e+09 1 0
436 2 0 1.617e+09 1.61726e+09 1.61828e+09 1.61845e+09 0 0
437 2 0 1.62571e+09 1.62597e+09 1.62699e+09 1.63124e+09 0 0
438 2 0 1.64166e+09 1.64192e+09 1.64294e+09 1.64604e+09 0 0
439 2 0 1.65408e+09 1.65434e+09 1.65536e+09 1.65546e+09 0 0
440 2 0 1.66258e+09 1.66283e+09 1.66385e+09 1.67133e+09 0 0
441 2 0 1.67844e+09 1.67869e+09 1.67971e+09 1.7051e+09 0 0
442 1 0 1.71249e+09 1.71275e+09 1.71377e+09 1.71778e+09 0 1
443 2 0 1.72547e+09 1.72572e+09 1.72674e+09 1.7303e+09 0 0
444 2 0 1.73966e+09 1.73991e+09 1.74093e+09 1.74098e+09 1 0
445 2 0 1.74988e+09 1.75013e+09 1.75115e+09 1.75268e+09 1 0
446 2 1 1.76274e+09 1.763e+09 1.76402e+09 1.76862e+09 1 1
447 1 0 1.78067e+09 1.78092e+09 1.78194e+09 1.7821e+09 0 1
448 2 0 1.78887e+09 1.78913e+09 1.79015e+09 1.79024e+09 0 0
449 2 0 1.79886e+09 1.79911e+09 1.80013e+09 1.80169e+09 1 0
450 2 1 1.80875e+09 1.809e+09 1.81002e+09 1.81009e+09 1 1
451 2 0 1.81641e+09 1.81665e+09 1.81767e+09 1.8183e+09 0 0
452 2 0 1.82549e+09 1.82574e+09 1.82676e+09 1.82698e+09 1 0
453 2 0 1.83776e+09 1.83801e+09 1.83903e+09 1.8466e+09 1 0
454 2 0 1.85372e+09 1.85398e+09 1.855e+09 1.85543e+09 1 0
455 2 0 1.86262e+09 1.86287e+09 1.86389e+09 1.86904e+09 0 0
456 1 0 1.877e+09 1.87724e+09 1.87826e+09 1.87831e+09 0 1
457 2 0 1.89028e+09 1.89053e+09 1.89155e+09 1.8918e+09 0 0
458 2 0 1.9033e+09 1.90355e+09 1.90457e+09 1.92202e+09 1 0
459 2 0 1.93018e+09 1.93043e+09 1.93145e+09 1.93353e+09 1 0
460 2 1 1.94124e+09 1.9415e+09 1.94252e+09 1.95243e+09 1 1
461 2 0 1.96255e+09 1.9628e+09 1.96382e+09 1.96553e+09 0 0
462 2 0 1.9727e+09 1.97295e+09 1.97397e+09 1.9742e+09 1 0
463 2 1 1.98165e+09 1.98191e+09 1.98293e+09 1.98975e+09 1 1
464 1 1 1.99548e+09 1.99574e+09 1.99676e+09 1.99699e+09 0 0
465 1 0 2.00432e+09 2.00457e+09 2.00559e+09 2.02659e+09 1 1
466 1 0 2.03005e+09 2.0303e+09 2.03132e+09 2.03146e+09 0 1
467 2 1 2.0342e+09 2.03446e+09 2.03548e+09 2.05024e+09 0 1
468 1 0 2.05901e+09 2.05926e+09 2.06028e+09 2.06033e+09 0 1
469 1 0 2.06331e+09 2.06356e+09 2.06458e+09 2.06515e+09 0 1
470 1 0 2.06819e+09 2.06844e+09 2.06946e+09 2.06968e+09 0 1
471 2 0 2.07639e+09 2.07664e+09 2.07766e+09 2.07811e+09 0 0
472 2 0 2.08548e+09 2.08573e+09 2.08675e+09 2.09958e+09 1 0
473 2 0 2.1092e+09 2.10945e+09 2.11047e+09 2.1112e+09 1 0
474 2 0 2.11858e+09 2.11883e+09 2.11985e+09 2.12301e+09 1 0
475 2 0 2.14045e+09 2.14071e+09 2.14173e+09 2.15117e+09 0 0
476 2 0 2.16424e+09 2.16449e+09 2.16551e+09 2.17107e+09 0 0
477 2 1 2.18035e+09 2.1806e+09 2.18162e+09 2.19e+09 0 1
478 1 1 2.19873e+09 2.19899e+09 2.20001e+09 2.20006e+09 0 0
479 1 0 2.20741e+09 2.20768e+09 2.2087e+09 2.2091e+09 1 1
480 2 0 2.21809e+09 2.21835e+09 2.21937e+09 2.22335e+09 0 0
481 2 0 2.23386e+09 2.23412e+09 2.23514e+09 2.29279e+09 1 0
482 2 0 2.29988e+09 2.30014e+09 2.30116e+09 2.62406e+09 1 0
