trial trialType response stillTime stimOnset stimOffset respTime correctionTrial correct
001 1 1 8.65896e+06 9.00248e+06 1.00228e+07 1.24867e+08 0
000 002 1 0 1.3216e+08 1.32421e+08 1.33442e+08 1.34051e+08 1
001 003 1 1 1.37762e+08 1.38053e+08 1.39073e+08 4.71719e+08 0
000 004 1 0 4.80214e+08 4.80474e+08 4.81495e+08 4.82655e+08 1
001 005 1 0 4.92557e+08 4.92823e+08 4.93843e+08 1.29174e+09 0
001 006 2 0 1.30834e+09 1.3086e+09 1.30962e+09 1.30999e+09 0
000 007 2 1 1.32921e+09 1.32946e+09 1.33048e+09 1.33049e+09 1
001 008 2 0 1.34414e+09 1.34439e+09 1.34541e+09 1.3458e+09 0
000 009 2 1 1.38523e+09 1.38548e+09 1.3865e+09 1.38794e+09 1
001 010 2 1 1.39605e+09 1.39631e+09 1.39733e+09 1.39736e+09 0
001 011 1 1 1.41242e+09 1.41268e+09 1.4137e+09 1.41447e+09 0
000 012 1 1 1.42545e+09 1.42571e+09 1.42673e+09 1.42676e+09 1
000 013 1 0 1.44259e+09 1.44284e+09 1.44386e+09 1.44387e+09 1
001 014 2 0 1.45001e+09 1.45026e+09 1.45128e+09 1.45138e+09 0
000 015 2 1 1.4589e+09 1.45915e+09 1.46017e+09 1.46018e+09 1
001 016 2 0 1.4642e+09 1.46445e+09 1.46547e+09 1.46549e+09 0
000 017 2 0 1.47431e+09 1.47457e+09 1.47559e+09 1.47562e+09 1
000 018 2 1 1.48476e+09 1.48501e+09 1.48603e+09 1.48665e+09 1
001 019 1 1 1.49653e+09 1.49678e+09 1.4978e+09 1.49784e+09 0
000 020 1 0 1.50726e+09 1.50752e+09 1.50854e+09 1.50864e+09 1
001 021 2 1 1.5132e+09 1.51346e+09 1.51448e+09 1.51453e+09 0
001 022 1 0 1.51883e+09 1.51908e+09 1.5201e+09 1.52012e+09 0
001 023 2 1 1.52584e+09 1.5261e+09 1.52712e+09 1.52803e+09 0
001 024 1 0 1.55059e+09 1.55085e+09 1.55187e+09 1.55188e+09 0
001 025 1 1 1.55758e+09 1.55783e+09 1.55885e+09 1.55886e+09 0
000 026 1 0 1.56903e+09 1.56929e+09 1.57031e+09 1.57033e+09 1
001 027 1 1 1.57901e+09 1.57927e+09 1.58029e+09 1.58034e+09 0
000 028 1 1 1.59487e+09 1.59513e+09 1.59615e+09 1.59615e+09 1
000 029 1 0 1.61497e+09 1.61522e+09 1.61624e+09 1.61625e+09 1
001 030 1 0 1.62045e+09 1.62072e+09 1.62174e+09 1.62176e+09 0
001 031 1 1 1.63385e+09 1.6341e+09 1.63512e+09 1.63599e+09 0
000 032 1 1 1.64768e+09 1.64792e+09 1.64894e+09 1.64939e+09 1
000 033 1 1 1.65941e+09 1.65966e+09 1.66068e+09 1.66071e+09 1
000 034 1 0 1.66971e+09 1.66995e+09 1.67097e+09 1.67098e+09 1
001 035 2 1 1.67463e+09 1.67488e+09 1.6759e+09 1.67591e+09 0
001 036 1 1 1.68468e+09 1.68494e+09 1.68596e+09 1.68598e+09 0
000 037 1 1 1.6935e+09 1.69375e+09 1.69477e+09 1.69479e+09 1
000 038 1 1 1.70417e+09 1.70443e+09 1.70545e+09 1.70546e+09 1
000 039 1 0 1.7193e+09 1.71955e+09 1.72057e+09 1.72057e+09 1
001 040 1 0 1.74946e+09 1.74971e+09 1.75073e+09 1.75098e+09 0
001 041 1 0 1.75975e+09 1.76e+09 1.76102e+09 1.76103e+09 0
001 042 1 1 1.7692e+09 1.76946e+09 1.77048e+09 1.77178e+09 0
000 043 1 0 1.80621e+09 1.80647e+09 1.80749e+09 1.8075e+09 1
001 044 2 0 1.82921e+09 1.82947e+09 1.83049e+09 1.83052e+09 0
000 045 2 1 1.83925e+09 1.83951e+09 1.84053e+09 1.84058e+09 1
001 046 2 1 1.84808e+09 1.84834e+09 1.84936e+09 1.84937e+09 0
001 047 2 1 1.86466e+09 1.86491e+09 1.86593e+09 1.86594e+09 0
001 048 1 1 1.88699e+09 1.88724e+09 1.88826e+09 1.88826e+09 0
000 049 1 0 1.89607e+09 1.89633e+09 1.89735e+09 1.89752e+09 1
001 050 2 0 1.90083e+09 1.90107e+09 1.9021e+09 1.90219e+09 0
000 051 2 1 1.91899e+09 1.91924e+09 1.92026e+09 1.9208e+09 1
001 052 2 1 1.94958e+09 1.94984e+09 1.95086e+09 1.95088e+09 0
001 053 2 0 1.95442e+09 1.95467e+09 1.95569e+09 1.95572e+09 0
000 054 2 1 1.98749e+09 1.98774e+09 1.98876e+09 1.98882e+09 1
001 055 2 0 2.06918e+09 2.06943e+09 2.07045e+09 2.07052e+09 0
000 056 2 1 2.08537e+09 2.08562e+09 2.08664e+09 2.08666e+09 1
001 057 2 1 2.09071e+09 2.09097e+09 2.09199e+09 2.09205e+09 0
001 058 2 1 2.10419e+09 2.10444e+09 2.10546e+09 2.1055e+09 0
001 059 2 1 2.11377e+09 2.11402e+09 2.11504e+09 2.11506e+09 0
001 060 1 1 2.16233e+09 2.16258e+09 2.1636e+09 2.16361e+09 0
000 061 1 1 2.19093e+09 2.19119e+09 2.19221e+09 2.19222e+09 1
000 062 1 0 2.20742e+09 2.20767e+09 2.20869e+09 2.2087e+09 1
001 063 1 0 2.21675e+09 2.21701e+09 2.21803e+09 2.21819e+09 0
001 064 1 0 2.22852e+09 2.22877e+09 2.22979e+09 2.22984e+09 0
001 065 2 0 2.23368e+09 2.23394e+09 2.23496e+09 2.23498e+09 0
000 066 2 1 2.24635e+09 2.24659e+09 2.24762e+09 2.24762e+09 1
001 067 2 0 2.26342e+09 2.26368e+09 2.2647e+09 2.26472e+09 0
000 068 2 1 2.28946e+09 2.28973e+09 2.29075e+09 2.29081e+09 1
001 069 2 0 2.3e+09 2.30026e+09 2.30128e+09 2.3013e+09 0
000 070 2 1 2.32628e+09 2.32653e+09 2.32755e+09 2.32758e+09 1
001 071 2 1 2.33975e+09 2.34001e+09 2.34103e+09 2.34104e+09 0
001 072 2 1 2.34497e+09 2.34523e+09 2.34625e+09 2.34627e+09 0
001 073 2 1 2.34983e+09 2.35009e+09 2.35111e+09 2.35113e+09 0
001 074 1 0 2.36219e+09 2.36245e+09 2.36347e+09 2.36348e+09 0
001 075 1 1 2.37576e+09 2.37602e+09 2.37704e+09 2.37721e+09 0
000 076 1 0 2.39071e+09 2.39097e+09 2.39199e+09 2.39201e+09 1
001 077 1 1 2.40723e+09 2.40749e+09 2.40851e+09 2.41023e+09 0
000 078 1 0 2.41973e+09 2.41999e+09 2.42101e+09 2.42102e+09 1
001 079 2 1 2.44798e+09 2.44824e+09 2.44926e+09 2.44926e+09 0
001 080 1 1 2.45367e+09 2.45391e+09 2.45493e+09 2.45495e+09 0
000 081 1 0 2.46246e+09 2.46271e+09 2.46373e+09 2.46375e+09 1
001 082 1 1 2.473e+09 2.47325e+09 2.47427e+09 2.47541e+09 0
000 083 1 1 2.48516e+09 2.48542e+09 2.48644e+09 2.48657e+09 1
000 084 1 1 2.49764e+09 2.4979e+09 2.49892e+09 2.49895e+09 1
000 085 1 1 2.5131e+09 2.51336e+09 2.51438e+09 2.5144e+09 1
000 086 1 1 2.52745e+09 2.5277e+09 2.52872e+09 2.52873e+09 0
000 087 1 1 2.55032e+09 2.55057e+09 2.55159e+09 2.55163e+09 0
000 088 2 1 2.56623e+09 2.56648e+09 2.5675e+09 2.56753e+09 0
001 089 2 1 2.58834e+09 2.5886e+09 2.58962e+09 2.58966e+09 0
001 090 1 1 2.60977e+09 2.61003e+09 2.61105e+09 2.61106e+09 0
000 091 1 1 2.61829e+09 2.61855e+09 2.61957e+09 2.61959e+09 1
000 092 1 0 2.6334e+09 2.63365e+09 2.63467e+09 2.63472e+09 1
001 093 2 1 2.64356e+09 2.64381e+09 2.64483e+09 2.64485e+09 0
001 094 1 1 2.65971e+09 2.65997e+09 2.66099e+09 2.661e+09 0
000 095 1 1 2.69739e+09 2.69766e+09 2.69868e+09 2.70681e+09 1
000 096 1 1 2.72359e+09 2.72385e+09 2.72487e+09 2.72683e+09 1
000 097 1 1 2.74111e+09 2.74136e+09 2.74238e+09 2.7424e+09 1
000 098 2 1 2.75918e+09 2.75945e+09 2.76047e+09 2.76051e+09 0
001 099 1 1 2.77525e+09 2.7755e+09 2.77652e+09 2.77654e+09 0
000 100 1 1 2.78469e+09 2.78494e+09 2.78596e+09 2.78601e+09 1
000 101 1 0 2.79602e+09 2.79628e+09 2.7973e+09 2.79733e+09 1
001 102 2 0 2.81536e+09 2.81562e+09 2.81664e+09 2.81666e+09 0
000 103 2 1 2.82713e+09 2.82738e+09 2.8284e+09 2.8287e+09 1
001 104 2 1 2.8403e+09 2.84056e+09 2.84158e+09 2.84159e+09 0
001 105 1 1 2.85054e+09 2.85079e+09 2.85181e+09 2.85204e+09 0
000 106 1 1 2.86102e+09 2.86128e+09 2.8623e+09 2.8623e+09 1
000 107 1 1 2.87135e+09 2.87161e+09 2.87263e+09 2.87263e+09 1
000 108 1 0 2.88996e+09 2.89022e+09 2.89124e+09 2.89125e+09 1
001 109 2 0 2.89547e+09 2.89572e+09 2.89674e+09 2.89695e+09 0
000 110 2 0 2.91212e+09 2.91237e+09 2.91339e+09 2.91346e+09 1
000 111 2 1 2.92764e+09 2.92789e+09 2.92892e+09 2.92913e+09 1
001 112 1 0 2.9415e+09 2.94176e+09 2.94278e+09 2.9428e+09 0
001 113 1 1 2.94747e+09 2.94772e+09 2.94874e+09 2.94876e+09 0
000 114 1 0 2.96553e+09 2.9658e+09 2.96682e+09 2.96688e+09 1
001 115 2 1 2.97898e+09 2.97924e+09 2.98026e+09 2.98027e+09 0
001 116 2 1 2.98973e+09 2.98998e+09 2.991e+09 2.99102e+09 0
001 117 1 1 2.99834e+09 2.99859e+09 2.99961e+09 2.99963e+09 0
000 118 1 1 3.0277e+09 3.02795e+09 3.02897e+09 3.02905e+09 1
000 119 1 1 3.0456e+09 3.04585e+09 3.04687e+09 3.04688e+09 1
000 120 1 0 3.05859e+09 3.05884e+09 3.05986e+09 3.05992e+09 1
001 121 2 0 3.06998e+09 3.07024e+09 3.07126e+09 3.07126e+09 0
000 122 2 0 3.07997e+09 3.08022e+09 3.08124e+09 3.08125e+09 1
000 123 2 0 3.08931e+09 3.08956e+09 3.09058e+09 3.09059e+09 1
000 124 2 0 3.09764e+09 3.0979e+09 3.09892e+09 3.09898e+09 1
000 125 2 1 3.11303e+09 3.11328e+09 3.1143e+09 3.11434e+09 0
001 126 1 1 3.11812e+09 3.11837e+09 3.11939e+09 3.1194e+09 0
000 127 1 1 3.1275e+09 3.12776e+09 3.12878e+09 3.12879e+09 1
000 128 1 1 3.14181e+09 3.14207e+09 3.14309e+09 3.14311e+09 1
000 129 1 0 3.15272e+09 3.15297e+09 3.15399e+09 3.15399e+09 1
001 130 2 1 3.16966e+09 3.16992e+09 3.17094e+09 3.17248e+09 0
001 131 1 0 3.17639e+09 3.17665e+09 3.17767e+09 3.17768e+09 0
001 132 1 1 3.20118e+09 3.20144e+09 3.20246e+09 3.20249e+09 0
000 133 1 0 3.21185e+09 3.2121e+09 3.21312e+09 3.21314e+09 1
001 134 2 1 3.21631e+09 3.21657e+09 3.21759e+09 3.21773e+09 0
001 135 2 0 3.22172e+09 3.22198e+09 3.223e+09 3.22303e+09 0
000 136 2 1 3.23809e+09 3.23835e+09 3.23937e+09 3.2394e+09 1
001 137 1 1 3.2427e+09 3.24295e+09 3.24397e+09 3.24398e+09 0
000 138 1 1 3.25834e+09 3.25861e+09 3.25963e+09 3.25963e+09 1
000 139 1 1 3.27764e+09 3.2779e+09 3.27892e+09 3.27893e+09 1
000 140 1 0 3.3042e+09 3.30445e+09 3.30547e+09 3.30549e+09 1
001 141 1 1 3.30898e+09 3.30924e+09 3.31026e+09 3.31027e+09 0
000 142 1 1 3.32777e+09 3.32802e+09 3.32904e+09 3.32906e+09 1
000 143 1 0 3.3398e+09 3.34006e+09 3.34108e+09 3.34123e+09 1
001 144 1 0 3.36495e+09 3.36521e+09 3.36623e+09 3.36768e+09 0
001 145 2 0 3.4194e+09 3.41965e+09 3.42067e+09 3.42081e+09 0
000 146 2 1 3.43524e+09 3.4355e+09 3.43652e+09 3.43677e+09 1
001 147 2 1 3.44416e+09 3.44442e+09 3.44544e+09 3.44551e+09 0
001 148 2 1 3.46691e+09 3.46717e+09 3.46819e+09 3.46871e+09 0
001 149 1 0 3.48832e+09 3.48858e+09 3.4896e+09 3.4897e+09 0
001 150 1 1 3.50995e+09 3.51022e+09 3.51124e+09 3.51135e+09 0
000 151 1 0 3.51886e+09 3.51912e+09 3.52014e+09 3.52014e+09 1
001 152 2 0 3.53481e+09 3.53508e+09 3.5361e+09 3.53618e+09 0
000 153 2 1 3.54997e+09 3.55022e+09 3.55124e+09 3.55159e+09 1
001 154 1 1 3.57015e+09 3.57041e+09 3.57143e+09 3.57201e+09 0
000 155 1 1 3.58605e+09 3.58632e+09 3.58734e+09 3.58982e+09 1
000 156 1 0 3.60074e+09 3.601e+09 3.60202e+09 3.60203e+09 1
001 157 1 0 3.60707e+09 3.60733e+09 3.60835e+09 3.60836e+09 0
001 158 2 0 3.61907e+09 3.61933e+09 3.62035e+09 3.62048e+09 0
000 159 2 1 3.63574e+09 3.63599e+09 3.63701e+09 3.63703e+09 1
001 160 1 1 3.64482e+09 3.64507e+09 3.64609e+09 3.6462e+09 0
000 161 1 1 3.66547e+09 3.66572e+09 3.66674e+09 3.6675e+09 1
000 162 1 1 3.67603e+09 3.67629e+09 3.67731e+09 3.67784e+09 1
000 163 1 1 3.68794e+09 3.68819e+09 3.68921e+09 3.69004e+09 1
000 164 1 1 3.69814e+09 3.69841e+09 3.69943e+09 3.70044e+09 0
000 165 1 0 3.70868e+09 3.70894e+09 3.70996e+09 3.71008e+09 0
001 166 2 0 3.72292e+09 3.72317e+09 3.72419e+09 3.72421e+09 0
000 167 2 0 3.74435e+09 3.74461e+09 3.74563e+09 3.74564e+09 1
000 168 2 0 3.75363e+09 3.75389e+09 3.75491e+09 3.75534e+09 1
000 169 2 0 3.77633e+09 3.77659e+09 3.77761e+09 3.77784e+09 1
000 170 2 0 3.78506e+09 3.78533e+09 3.78635e+09 3.78636e+09 0
000 171 2 1 3.80192e+09 3.80218e+09 3.8032e+09 3.80682e+09 0
001 172 2 1 3.82003e+09 3.82029e+09 3.82131e+09 3.8246e+09 0
001 173 1 0 3.83818e+09 3.83844e+09 3.83946e+09 3.83948e+09 0
001 174 1 0 3.8475e+09 3.84776e+09 3.84878e+09 3.84883e+09 0
001 175 2 1 3.86642e+09 3.86667e+09 3.86769e+09 3.86785e+09 0
001 176 2 0 3.87272e+09 3.87297e+09 3.87399e+09 3.87415e+09 0
000 177 2 1 3.88124e+09 3.8815e+09 3.88252e+09 3.88521e+09 1
001 178 1 1 3.89227e+09 3.89252e+09 3.89354e+09 3.89359e+09 0
000 179 1 0 3.90226e+09 3.90252e+09 3.90354e+09 3.90359e+09 1
001 180 1 0 3.92108e+09 3.92133e+09 3.92235e+09 3.92237e+09 0
001 181 1 1 3.92861e+09 3.92887e+09 3.92989e+09 3.9299e+09 0
000 182 1 0 3.95312e+09 3.95337e+09 3.95439e+09 3.95447e+09 1
001 183 2 0 3.97151e+09 3.97176e+09 3.97278e+09 3.97292e+09 0
000 184 2 1 3.98321e+09 3.98346e+09 3.98448e+09 3.98455e+09 1
001 185 1 0 4.00163e+09 4.00189e+09 4.00291e+09 4.00302e+09 0
001 186 1 0 4.00979e+09 4.01005e+09 4.01107e+09 4.01108e+09 0
001 187 2 1 4.04624e+09 4.0465e+09 4.04752e+09 4.04912e+09 0
001 188 1 0 4.06395e+09 4.06421e+09 4.06523e+09 4.06529e+09 0
001 189 1 1 4.07814e+09 4.0784e+09 4.07942e+09 4.07944e+09 0
000 190 1 1 4.08935e+09 4.0896e+09 4.09062e+09 4.09236e+09 1
000 191 1 0 4.10064e+09 4.1009e+09 4.10192e+09 4.10196e+09 1
001 192 2 1 4.11591e+09 4.11616e+09 4.11718e+09 4.1172e+09 0
001 193 1 0 4.13255e+09 4.13281e+09 4.13383e+09 4.13386e+09 0
001 194 2 0 4.14108e+09 4.14134e+09 4.14236e+09 4.14242e+09 0
000 195 2 0 4.15204e+09 4.15231e+09 4.15333e+09 4.15351e+09 1
000 196 2 0 4.16524e+09 4.1655e+09 4.16652e+09 4.16656e+09 1
000 197 2 0 4.18306e+09 4.18332e+09 4.18434e+09 4.18436e+09 1
000 198 1 0 4.19259e+09 4.19285e+09 4.19387e+09 4.1942e+09 0
001 199 1 1 4.20519e+09 4.20544e+09 4.20646e+09 4.20648e+09 0
000 200 1 1 4.22611e+09 4.22636e+09 4.22738e+09 4.22771e+09 1
000 201 1 1 4.23583e+09 4.23609e+09 4.23711e+09 4.23717e+09 1
000 202 1 1 4.25362e+09 4.25388e+09 4.2549e+09 4.25503e+09 1
000 203 1 1 4.26515e+09 4.26541e+09 4.26643e+09 4.26654e+09 0
000 204 2 1 4.28007e+09 4.28032e+09 4.28134e+09 4.29319e+09 0
001 205 1 1 1.34369e+07 1.36853e+07 1.47056e+07 1.48247e+07 0
000 206 1 0 2.43937e+07 2.46538e+07 2.56741e+07 2.57521e+07 1
001 207 2 1 3.80037e+07 3.82549e+07 3.92752e+07 3.9867e+07 0
001 208 1 1 4.46136e+07 4.48716e+07 4.58919e+07 4.65631e+07 0
000 209 1 1 5.89281e+07 5.91801e+07 6.02004e+07 6.02674e+07 1
000 210 1 0 8.82657e+07 8.85235e+07 8.95438e+07 8.97126e+07 1
001 211 2 0 9.25901e+07 9.28457e+07 9.3866e+07 9.40014e+07 0
000 212 2 0 1.02476e+08 1.02719e+08 1.0374e+08 1.03833e+08 1
000 213 2 1 1.11589e+08 1.11837e+08 1.12858e+08 1.14737e+08 1
001 214 2 0 1.29687e+08 1.29945e+08 1.30966e+08 1.31137e+08 0
000 215 2 1 1.393e+08 1.39544e+08 1.40565e+08 1.40604e+08 1
001 216 1 0 1.43738e+08 1.44001e+08 1.45021e+08 1.45039e+08 0
001 217 2 0 1.55106e+08 1.5537e+08 1.5639e+08 1.56617e+08 0
000 218 2 1 1.6974e+08 1.69991e+08 1.71012e+08 1.71019e+08 1
001 219 2 0 1.78278e+08 1.78537e+08 1.79558e+08 1.79636e+08 0
000 220 2 0 1.86804e+08 1.87059e+08 1.8808e+08 1.88157e+08 1
000 221 2 1 1.98919e+08 1.99169e+08 2.00189e+08 2.00242e+08 1
001 222 1 0 2.15413e+08 2.1567e+08 2.1669e+08 2.16876e+08 0
001 223 2 1 2.31236e+08 2.31493e+08 2.32514e+08 2.32639e+08 0
001 224 2 1 2.50472e+08 2.50726e+08 2.51746e+08 2.51754e+08 0
001 225 1 1 2.64691e+08 2.64943e+08 2.65964e+08 2.65983e+08 0
000 226 1 1 2.77412e+08 2.77659e+08 2.78679e+08 2.79069e+08 1
000 227 1 1 3.00176e+08 3.00436e+08 3.01456e+08 3.0153e+08 1
000 228 1 0 3.16074e+08 3.16329e+08 3.17349e+08 3.17364e+08 1
001 229 1 0 3.33319e+08 3.33584e+08 3.34605e+08 3.34617e+08 0
001 230 1 1 3.39323e+08 3.39574e+08 3.40594e+08 3.40624e+08 0
000 231 1 1 3.52883e+08 3.5313e+08 3.5415e+08 3.54245e+08 1
000 232 1 0 3.64213e+08 3.64468e+08 3.65488e+08 3.65618e+08 1
001 233 1 1 3.74262e+08 3.74517e+08 3.75538e+08 3.75568e+08 0
000 234 1 0 3.93842e+08 3.9411e+08 3.9513e+08 3.95139e+08 1
001 235 1 0 4.12156e+08 4.12407e+08 4.13427e+08 4.13433e+08 0
001 236 1 1 4.19126e+08 4.1939e+08 4.2041e+08 4.21371e+08 0
000 237 1 0 4.30464e+08 4.30717e+08 4.31737e+08 4.31764e+08 1
001 238 1 0 4.55307e+08 4.55566e+08 4.56586e+08 4.5665e+08 0
001 239 1 1 4.81418e+08 4.81672e+08 4.82693e+08 4.82791e+08 0
000 240 1 0 4.9035e+08 4.906e+08 4.91621e+08 4.94354e+08 1
001 241 2 1 4.96871e+08 4.97125e+08 4.98146e+08 4.9836e+08 0
001 242 1 1 5.10584e+08 5.10832e+08 5.11852e+08 5.11869e+08 0
000 243 1 1 5.28018e+08 5.2827e+08 5.2929e+08 5.29327e+08 1
000 244 1 1 5.36774e+08 5.37033e+08 5.38054e+08 5.41231e+08 1
000 245 1 1 5.8087e+08 5.81121e+08 5.82141e+08 5.83042e+08 1
000 246 2 1 5.91973e+08 5.9224e+08 5.9326e+08 5.93548e+08 0
001 247 1 0 5.97308e+08 5.9756e+08 5.9858e+08 5.98642e+08 0
001 248 1 0 6.10507e+08 6.10752e+08 6.11772e+08 6.11943e+08 0
001 249 2 1 6.16147e+08 6.16413e+08 6.17434e+08 6.17572e+08 0
001 250 2 0 6.32524e+08 6.32786e+08 6.33806e+08 6.33831e+08 0
000 251 2 1 6.4351e+08 6.43758e+08 6.44778e+08 6.45813e+08 1
001 252 2 1 6.59331e+08 6.5959e+08 6.60611e+08 6.60735e+08 0
001 253 1 0 6.89406e+08 6.89662e+08 6.90682e+08 6.90762e+08 0
001 254 2 1 7.27659e+08 7.27913e+08 7.28933e+08 7.2898e+08 0
001 255 2 0 7.38842e+08 7.39102e+08 7.40122e+08 7.40176e+08 0
000 256 2 0 7.54009e+08 7.54265e+08 7.55285e+08 7.55365e+08 1
000 257 2 0 7.62607e+08 7.6286e+08 7.6388e+08 7.63999e+08 1
000 258 2 1 7.8202e+08 7.82271e+08 7.83291e+08 7.83318e+08 1
001 259 2 1 7.87475e+08 7.87727e+08 7.88747e+08 7.91982e+08 0
001 260 2 1 7.98907e+08 7.99162e+08 8.00183e+08 8.00198e+08 0
001 261 2 0 8.17275e+08 8.17526e+08 8.18546e+08 8.18826e+08 0
000 262 2 1 8.26143e+08 8.26393e+08 8.27413e+08 8.29211e+08 1
001 263 2 1 8.32198e+08 8.32459e+08 8.33479e+08 8.33555e+08 0
001 264 1 0 8.40769e+08 8.4104e+08 8.4206e+08 8.4211e+08 0
001 265 2 0 8.6357e+08 8.63824e+08 8.64844e+08 8.70113e+08 0
000 266 2 1 8.80164e+08 8.80428e+08 8.81448e+08 8.81741e+08 1
001 267 2 0 8.91408e+08 8.91661e+08 8.92682e+08 8.92843e+08 0
000 268 2 0 9.02404e+08 9.02655e+08 9.03675e+08 9.03742e+08 1
000 269 2 0 9.1102e+08 9.11275e+08 9.12296e+08 9.12328e+08 1
000 270 2 1 9.19405e+08 9.19658e+08 9.20678e+08 9.21151e+08 1
001 271 2 0 9.23921e+08 9.24181e+08 9.25202e+08 9.25327e+08 0
000 272 2 1 9.36427e+08 9.36688e+08 9.37708e+08 9.37844e+08 1
001 273 1 1 9.48595e+08 9.48851e+08 9.49871e+08 9.5285e+08 0
000 274 1 0 9.61683e+08 9.61935e+08 9.62955e+08 9.6305e+08 1
001 275 1 1 9.78252e+08 9.78499e+08 9.7952e+08 9.7978e+08 0
000 276 1 0 9.87617e+08 9.87871e+08 9.88891e+08 9.88903e+08 1
001 277 2 1 9.92596e+08 9.92847e+08 9.93868e+08 9.93983e+08 0
001 278 1 1 9.9736e+08 9.97611e+08 9.98631e+08 9.98679e+08 0
000 279 1 0 1.00961e+09 1.00986e+09 1.01089e+09 1.01241e+09 1
001 280 2 0 1.01473e+09 1.01499e+09 1.01601e+09 1.01654e+09 0
000 281 2 1 1.02664e+09 1.0269e+09 1.02792e+09 1.02828e+09 1
001 282 2 1 1.0444e+09 1.04466e+09 1.04568e+09 1.06453e+09 0
001 283 1 1 1.07475e+09 1.075e+09 1.07602e+09 1.07811e+09 0
000 284 1 0 1.08596e+09 1.08622e+09 1.08724e+09 1.08834e+09 1
001 285 1 1 1.09292e+09 1.09317e+09 1.09419e+09 1.09661e+09 0
000 286 1 1 1.10466e+09 1.10491e+09 1.10593e+09 1.10597e+09 1
000 287 1 0 1.11993e+09 1.1202e+09 1.12122e+09 1.12134e+09 1
001 288 2 1 1.12953e+09 1.12978e+09 1.1308e+09 1.13138e+09 0
001 289 2 1 1.14107e+09 1.14132e+09 1.14234e+09 1.14336e+09 0
001 290 2 1 1.15059e+09 1.15084e+09 1.15186e+09 1.15221e+09 0
001 291 2 1 1.1662e+09 1.16646e+09 1.16748e+09 1.16818e+09 0
001 292 1 1 1.17162e+09 1.17188e+09 1.1729e+09 1.17293e+09 0
000 293 1 1 1.18159e+09 1.18184e+09 1.18286e+09 1.18298e+09 1
000 294 1 0 1.19186e+09 1.19211e+09 1.19313e+09 1.19366e+09 1
001 295 1 1 1.20956e+09 1.20983e+09 1.21085e+09 1.21086e+09 0
000 296 1 1 1.21997e+09 1.22022e+09 1.22124e+09 1.22126e+09 1
000 297 1 1 1.2302e+09 1.23046e+09 1.23148e+09 1.23193e+09 1
000 298 1 1 1.24292e+09 1.24318e+09 1.2442e+09 1.24426e+09 1
000 299 2 1 1.25167e+09 1.25193e+09 1.25295e+09 1.25312e+09 0
001 300 1 0 1.26136e+09 1.26161e+09 1.26263e+09 1.26267e+09 0
001 301 1 1 1.26937e+09 1.26963e+09 1.27065e+09 1.27082e+09 0
000 302 1 1 1.28775e+09 1.288e+09 1.28902e+09 1.28952e+09 1
000 303 1 1 1.29862e+09 1.29886e+09 1.29988e+09 1.30083e+09 1
000 304 1 1 1.31424e+09 1.31449e+09 1.31551e+09 1.31552e+09 1
000 305 2 1 1.32804e+09 1.32829e+09 1.32931e+09 1.32969e+09 0
001 306 2 0 1.33454e+09 1.33479e+09 1.33582e+09 1.33588e+09 0
000 307 2 0 1.34405e+09 1.34431e+09 1.34533e+09 1.34534e+09 1
000 308 2 1 1.3534e+09 1.35365e+09 1.35467e+09 1.35503e+09 1
001 309 1 1 1.3572e+09 1.35745e+09 1.35847e+09 1.35895e+09 0
000 310 1 1 1.37022e+09 1.37048e+09 1.3715e+09 1.3727e+09 1
000 311 1 1 1.38253e+09 1.38278e+09 1.3838e+09 1.38416e+09 1
000 312 1 0 1.40251e+09 1.40276e+09 1.40378e+09 1.40394e+09 1
001 313 2 0 1.41002e+09 1.41027e+09 1.41129e+09 1.41152e+09 0
000 314 2 1 1.4236e+09 1.42386e+09 1.42488e+09 1.42517e+09 1
001 315 1 1 1.43351e+09 1.43376e+09 1.43478e+09 1.43479e+09 0
000 316 1 1 1.45431e+09 1.45457e+09 1.45559e+09 1.45789e+09 1
000 317 1 1 1.4677e+09 1.46794e+09 1.46896e+09 1.46898e+09 1
000 318 1 1 1.47784e+09 1.4781e+09 1.47912e+09 1.48152e+09 1
000 319 2 1 1.49585e+09 1.49611e+09 1.49713e+09 1.49765e+09 0
001 320 1 0 1.51331e+09 1.51357e+09 1.51459e+09 1.51461e+09 0
001 321 2 1 1.51809e+09 1.51834e+09 1.51936e+09 1.51938e+09 0
001 322 2 0 1.52933e+09 1.52959e+09 1.53061e+09 1.53093e+09 0
000 323 2 1 1.54261e+09 1.54288e+09 1.5439e+09 1.54391e+09 1
001 324 1 0 1.55715e+09 1.55742e+09 1.55844e+09 1.55849e+09 0
001 325 2 0 1.56319e+09 1.56346e+09 1.56448e+09 1.5646e+09 0
000 326 2 0 1.57336e+09 1.57363e+09 1.57465e+09 1.57517e+09 1
000 327 2 1 1.5828e+09 1.58306e+09 1.58408e+09 1.58759e+09 1
001 328 1 0 1.60128e+09 1.60154e+09 1.60256e+09 1.60318e+09 0
001 329 1 0 1.6097e+09 1.60996e+09 1.61098e+09 1.61113e+09 0
001 330 1 1 1.61688e+09 1.61714e+09 1.61816e+09 1.61818e+09 0
000 331 1 1 1.62953e+09 1.62978e+09 1.6308e+09 1.63288e+09 1
000 332 1 1 1.64061e+09 1.64086e+09 1.64188e+09 1.64196e+09 1
000 333 1 1 1.65142e+09 1.65167e+09 1.65269e+09 1.65301e+09 1
000 334 2 0 1.67009e+09 1.67035e+09 1.67137e+09 1.6714e+09 0
000 335 1 0 1.67922e+09 1.67948e+09 1.6805e+09 1.68059e+09 0
001 336 2 1 1.69594e+09 1.69621e+09 1.69723e+09 1.69726e+09 0
001 337 2 1 1.70575e+09 1.70601e+09 1.70703e+09 1.70715e+09 0
001 338 1 0 1.71284e+09 1.71309e+09 1.71411e+09 1.72359e+09 0
001 339 1 1 1.72618e+09 1.72643e+09 1.72746e+09 1.72787e+09 0
000 340 1 1 1.74245e+09 1.74271e+09 1.74373e+09 1.74401e+09 1
000 341 1 1 1.76081e+09 1.76106e+09 1.76208e+09 1.76281e+09 1
000 342 1 0 1.77255e+09 1.77281e+09 1.77383e+09 1.77408e+09 1
001 343 2 1 1.77719e+09 1.77743e+09 1.77845e+09 1.77849e+09 0
001 344 1 0 1.78883e+09 1.78908e+09 1.7901e+09 1.79243e+09 0
001 345 1 0 1.79612e+09 1.79638e+09 1.7974e+09 1.79741e+09 0
001 346 2 1 1.80635e+09 1.8066e+09 1.80762e+09 1.808e+09 0
001 347 2 1 1.8149e+09 1.81515e+09 1.81617e+09 1.81755e+09 0
001 348 2 0 1.85174e+09 1.85199e+09 1.85301e+09 1.85418e+09 0
000 349 2 1 1.86428e+09 1.86452e+09 1.86554e+09 1.86606e+09 1
001 350 1 0 1.88736e+09 1.88762e+09 1.88864e+09 1.88869e+09 0
001 351 1 1 1.89689e+09 1.89714e+09 1.89816e+09 1.89844e+09 0
000 352 1 1 1.9072e+09 1.90744e+09 1.90846e+09 1.90915e+09 1
000 353 1 1 1.91627e+09 1.91652e+09 1.91754e+09 1.9176e+09 1
000 354 1 1 1.9337e+09 1.93395e+09 1.93497e+09 1.935e+09 1
000 355 2 1 1.94506e+09 1.94532e+09 1.94634e+09 1.94701e+09 0
001 356 1 0 1.96601e+09 1.96627e+09 1.96729e+09 1.9673e+09 0
001 357 2 1 1.97498e+09 1.97524e+09 1.97626e+09 1.97863e+09 0
001 358 2 1 1.99024e+09 1.9905e+09 1.99152e+09 1.99301e+09 0
001 359 1 0 2.00015e+09 2.0004e+09 2.00142e+09 2.00154e+09 0
001 360 1 1 2.00442e+09 2.00467e+09 2.00569e+09 2.00622e+09 0
000 361 1 1 2.01696e+09 2.01722e+09 2.01824e+09 2.01825e+09 1
000 362 1 0 2.03025e+09 2.0305e+09 2.03152e+09 2.03164e+09 1
001 363 1 1 2.03708e+09 2.03733e+09 2.03835e+09 2.03835e+09 0
000 364 1 0 2.04748e+09 2.04774e+09 2.04876e+09 2.04878e+09 1
001 365 1 0 2.05153e+09 2.05178e+09 2.0528e+09 2.05401e+09 0
001 366 1 0 2.0651e+09 2.06535e+09 2.06637e+09 2.06649e+09 0
001 367 1 1 2.07031e+09 2.07056e+09 2.07158e+09 2.07159e+09 0
000 368 1 0 2.08106e+09 2.08132e+09 2.08234e+09 2.0859e+09 1
001 369 1 1 2.09512e+09 2.09536e+09 2.09638e+09 2.09639e+09 0
000 370 1 1 2.11347e+09 2.11372e+09 2.11474e+09 2.11487e+09 1
000 371 1 1 2.12381e+09 2.12406e+09 2.12508e+09 2.12532e+09 1
000 372 1 1 2.13319e+09 2.13345e+09 2.13447e+09 2.13456e+09 1
000 373 1 0 2.15054e+09 2.1508e+09 2.15182e+09 2.15183e+09 0
001 374 1 0 2.1765e+09 2.17674e+09 2.17776e+09 2.18214e+09 0
001 375 2 1 2.19106e+09 2.19132e+09 2.19234e+09 2.19306e+09 0
001 376 2 1 2.19569e+09 2.19594e+09 2.19696e+09 2.19758e+09 0
001 377 2 1 2.21209e+09 2.21235e+09 2.21337e+09 2.21394e+09 0
001 378 2 0 2.22246e+09 2.22271e+09 2.22373e+09 2.22395e+09 0
000 379 2 0 2.24089e+09 2.24113e+09 2.24215e+09 2.24217e+09 1
000 380 2 0 2.2507e+09 2.25095e+09 2.25197e+09 2.25322e+09 1
000 381 2 0 2.26387e+09 2.26412e+09 2.26514e+09 2.26533e+09 1
000 382 1 1 2.27253e+09 2.27278e+09 2.2738e+09 2.28097e+09 0
000 383 2 1 2.28845e+09 2.2887e+09 2.28972e+09 2.29405e+09 0
001 384 2 1 2.30352e+09 2.30378e+09 2.3048e+09 2.32437e+09 0
001 385 1 0 2.33486e+09 2.3351e+09 2.33612e+09 2.33624e+09 0
001 386 2 0 2.34178e+09 2.34202e+09 2.34304e+09 2.34362e+09 0
000 387 2 1 2.35146e+09 2.35171e+09 2.35273e+09 2.38895e+09 1
001 388 2 1 2.40553e+09 2.40578e+09 2.4068e+09 2.40816e+09 0
001 389 2 0 2.41132e+09 2.41158e+09 2.4126e+09 2.41289e+09 0
000 390 2 1 2.42006e+09 2.42032e+09 2.42134e+09 2.42193e+09 1
001 391 2 1 2.42543e+09 2.42568e+09 2.4267e+09 2.4273e+09 0
001 392 1 1 2.42984e+09 2.4301e+09 2.43112e+09 2.4312e+09 0
000 393 1 1 2.45217e+09 2.45242e+09 2.45344e+09 2.45471e+09 1
000 394 1 1 2.46193e+09 2.46218e+09 2.4632e+09 2.46355e+09 1
000 395 1 1 2.47215e+09 2.4724e+09 2.47342e+09 2.47351e+09 1
000 396 1 0 2.48564e+09 2.48589e+09 2.48691e+09 2.48692e+09 0
001 397 2 0 2.4996e+09 2.49986e+09 2.50088e+09 2.50089e+09 0
000 398 2 0 2.50985e+09 2.5101e+09 2.51112e+09 2.51444e+09 1
000 399 2 0 2.52208e+09 2.52232e+09 2.52334e+09 2.71043e+09 1
000 