trial trialType response stillTime stimOnset stimOffset respTime correctionTrial correct
001 1 0 3.09966e+06 3.37308e+06 4.39338e+06 2.75733e+08 0 1
002 2 0 2.78774e+08 2.79039e+08 2.80059e+08 2.8302e+08 0 0
003 2 1 3.11919e+08 3.12177e+08 3.13197e+08 3.16691e+08 1 1
004 1 1 3.24313e+08 3.24573e+08 3.25593e+08 3.28363e+08 0 0
005 1 0 3.38008e+08 3.38263e+08 3.39284e+08 3.40087e+08 1 1
006 2 1 3.43905e+08 3.44163e+08 3.45183e+08 3.45289e+08 0 1
007 2 1 3.65711e+08 3.65959e+08 3.66979e+08 3.67193e+08 0 1
008 1 1 3.7411e+08 3.74365e+08 3.75385e+08 3.77337e+08 0 0
009 1 1 3.84786e+08 3.85037e+08 3.86057e+08 3.87832e+08 1 0
010 1 1 3.96268e+08 3.96518e+08 3.97538e+08 4.09219e+08 1 0
011 1 1 4.22998e+08 4.23245e+08 4.24265e+08 4.25541e+08 1 0
012 2 0 4.45981e+08 4.46239e+08 4.47259e+08 4.56892e+08 0 0
013 1 1 4.66717e+08 4.6697e+08 4.6799e+08 4.69085e+08 0 0
014 1 0 4.76234e+08 4.76492e+08 4.77512e+08 4.77757e+08 0 1
015 2 0 4.82684e+08 4.82948e+08 4.83968e+08 4.93478e+08 0 0
016 2 0 5.0088e+08 5.01147e+08 5.02167e+08 5.0482e+08 1 0
017 2 1 5.15814e+08 5.1608e+08 5.171e+08 5.17376e+08 1 1
018 1 1 5.6465e+08 5.64912e+08 5.65933e+08 5.65943e+08 0 0
019 1 0 5.73308e+08 5.73561e+08 5.74581e+08 5.75568e+08 1 1
020 1 0 5.9546e+08 5.95718e+08 5.96738e+08 6.03538e+08 0 1
021 2 1 6.07289e+08 6.07545e+08 6.08565e+08 6.18817e+08 0 1
022 1 1 6.21526e+08 6.21788e+08 6.22808e+08 6.27954e+08 0 0
023 1 1 6.35202e+08 6.35456e+08 6.36476e+08 6.41312e+08 1 0
024 1 1 6.48757e+08 6.49003e+08 6.50023e+08 6.6455e+08 1 0
025 1 1 6.71655e+08 6.71918e+08 6.72938e+08 6.7883e+08 1 0
026 2 1 6.86362e+08 6.8662e+08 6.8764e+08 6.91225e+08 0 1
027 1 0 6.93873e+08 6.94127e+08 6.95148e+08 6.95167e+08 0 1
028 2 1 6.97991e+08 6.9825e+08 6.9927e+08 7.20365e+08 0 1
029 1 0 7.23233e+08 7.23487e+08 7.24508e+08 7.25982e+08 0 1
030 1 1 7.28864e+08 7.29124e+08 7.30144e+08 7.34034e+08 0 0
031 1 0 7.42142e+08 7.42402e+08 7.43423e+08 7.50919e+08 1 1
032 2 0 7.55491e+08 7.55751e+08 7.56771e+08 7.66427e+08 0 0
033 2 0 7.73479e+08 7.73739e+08 7.74759e+08 7.76109e+08 1 0
034 2 0 7.84036e+08 7.84302e+08 7.85323e+08 7.86272e+08 1 0
035 2 0 7.94335e+08 7.94583e+08 7.95604e+08 7.98646e+08 1 0
036 1 0 8.06182e+08 8.0643e+08 8.0745e+08 8.16562e+08 0 1
037 1 0 8.25731e+08 8.25979e+08 8.26999e+08 8.3032e+08 0 1
038 1 0 8.36101e+08 8.36348e+08 8.37368e+08 8.50542e+08 0 1
039 1 1 8.54047e+08 8.54302e+08 8.55322e+08 8.60689e+08 0 0
040 1 1 8.6805e+08 8.68295e+08 8.69316e+08 8.7997e+08 1 0
041 1 1 8.91036e+08 8.91296e+08 8.92316e+08 8.99254e+08 1 0
042 1 0 9.06468e+08 9.06724e+08 9.07744e+08 9.13102e+08 1 1
043 2 0 9.16066e+08 9.16326e+08 9.17346e+08 9.17664e+08 0 0
044 2 0 9.26856e+08 9.27112e+08 9.28132e+08 9.30501e+08 1 0
045 2 0 9.3876e+08 9.39028e+08 9.40048e+08 9.41677e+08 1 0
046 2 1 9.48966e+08 9.49228e+08 9.50249e+08 9.51124e+08 1 1
047 2 0 9.54302e+08 9.5455e+08 9.5557e+08 9.55576e+08 0 0
048 2 1 9.62712e+08 9.62972e+08 9.63992e+08 9.65062e+08 1 1
049 2 0 9.6783e+08 9.68112e+08 9.69132e+08 9.75751e+08 0 0
050 2 0 9.83152e+08 9.83405e+08 9.84425e+08 9.96758e+08 1 0
051 2 0 1.0038e+09 1.00407e+09 1.00509e+09 1.02007e+09 1 0
052 2 0 1.02944e+09 1.02971e+09 1.03073e+09 1.03159e+09 1 0
053 2 0 1.04262e+09 1.04288e+09 1.0439e+09 1.05787e+09 0 0
054 2 1 1.06711e+09 1.06738e+09 1.0684e+09 1.06958e+09 0 1
055 2 1 1.07358e+09 1.07384e+09 1.07487e+09 1.07979e+09 0 1
056 1 0 1.08285e+09 1.08311e+09 1.08413e+09 1.08783e+09 0 1
057 2 1 1.09059e+09 1.09085e+09 1.09187e+09 1.09298e+09 0 1
058 2 1 1.09632e+09 1.09659e+09 1.09761e+09 1.09853e+09 0 1
059 2 1 1.10258e+09 1.10284e+09 1.10386e+09 1.10632e+09 0 1
060 1 0 1.11264e+09 1.11289e+09 1.11391e+09 1.11582e+09 0 1
061 2 1 1.12123e+09 1.12149e+09 1.12251e+09 1.12253e+09 0 1
062 2 0 1.12518e+09 1.12543e+09 1.12645e+09 1.12666e+09 0 0
063 2 1 1.1376e+09 1.13786e+09 1.13888e+09 1.14363e+09 1 1
064 1 0 1.14803e+09 1.14828e+09 1.1493e+09 1.18415e+09 0 1
065 1 0 1.18693e+09 1.18719e+09 1.18821e+09 1.21712e+09 0 1
066 1 0 1.22005e+09 1.2203e+09 1.22132e+09 1.23355e+09 0 1
067 2 0 1.2378e+09 1.23806e+09 1.23908e+09 1.23915e+09 0 0
068 2 0 1.24836e+09 1.24862e+09 1.24964e+09 1.25705e+09 1 0
069 2 0 1.26536e+09 1.26562e+09 1.26664e+09 1.27135e+09 1 0
070 2 1 1.28152e+09 1.28179e+09 1.28281e+09 1.28327e+09 1 1
071 1 1 1.2912e+09 1.29145e+09 1.29247e+09 1.29471e+09 0 0
072 1 0 1.30223e+09 1.30248e+09 1.3035e+09 1.30359e+09 1 1
073 2 0 1.309e+09 1.30924e+09 1.31026e+09 1.31084e+09 0 0
074 2 0 1.32365e+09 1.3239e+09 1.32493e+09 1.32669e+09 1 0
075 2 0 1.33619e+09 1.33644e+09 1.33746e+09 1.34786e+09 1 0
076 2 0 1.3552e+09 1.35546e+09 1.35648e+09 1.35831e+09 1 0
077 1 0 1.36771e+09 1.36795e+09 1.36897e+09 1.37064e+09 0 1
078 2 0 1.37324e+09 1.3735e+09 1.37452e+09 1.37579e+09 0 0
079 2 0 1.38427e+09 1.38452e+09 1.38554e+09 1.38556e+09 1 0
080 2 0 1.39276e+09 1.39302e+09 1.39404e+09 1.4005e+09 1 0
081 2 0 1.40812e+09 1.40838e+09 1.4094e+09 1.41021e+09 1 0
082 2 0 1.41895e+09 1.41921e+09 1.42023e+09 1.42311e+09 0 0
083 1 1 1.43034e+09 1.43059e+09 1.43161e+09 1.43169e+09 0 0
084 1 1 1.43878e+09 1.43903e+09 1.44005e+09 1.44921e+09 0 0
085 1 0 1.4563e+09 1.45656e+09 1.45758e+09 1.45905e+09 0 1
086 2 0 1.46621e+09 1.46647e+09 1.46749e+09 1.46988e+09 0 0
087 2 0 1.47701e+09 1.47727e+09 1.47829e+09 1.47944e+09 1 0
088 2 0 1.48687e+09 1.48712e+09 1.48814e+09 1.51223e+09 1 0
089 2 0 1.51973e+09 1.51999e+09 1.52101e+09 1.53436e+09 1 0
090 1 1 1.54176e+09 1.54201e+09 1.54303e+09 1.54324e+09 0 0
091 1 1 1.55157e+09 1.55183e+09 1.55285e+09 1.55314e+09 0 0
092 1 0 1.5613e+09 1.56156e+09 1.56258e+09 1.58068e+09 0 1
093 1 0 1.58524e+09 1.58549e+09 1.58651e+09 1.58653e+09 0 1
094 2 1 1.59314e+09 1.5934e+09 1.59442e+09 1.59989e+09 0 1
095 1 1 1.60468e+09 1.60494e+09 1.60596e+09 1.62311e+09 0 0
096 1 0 1.63021e+09 1.63046e+09 1.63148e+09 1.63705e+09 1 1
097 2 1 1.64046e+09 1.64072e+09 1.64174e+09 1.64182e+09 0 1
098 2 0 1.64657e+09 1.64683e+09 1.64785e+09 1.64914e+09 0 0
099 2 0 1.6566e+09 1.65686e+09 1.65788e+09 1.66138e+09 1 0
100 2 1 1.67075e+09 1.67101e+09 1.67203e+09 1.67411e+09 1 1
101 2 0 1.67661e+09 1.67686e+09 1.67788e+09 1.6787e+09 0 0
102 2 0 1.68614e+09 1.68641e+09 1.68743e+09 1.68915e+09 1 0
103 2 0 1.69944e+09 1.69969e+09 1.70071e+09 1.70135e+09 1 0
104 2 1 1.71081e+09 1.71106e+09 1.71208e+09 1.71232e+09 1 1
105 2 0 1.72282e+09 1.72308e+09 1.7241e+09 1.72428e+09 0 0
106 2 0 1.7354e+09 1.73567e+09 1.73669e+09 1.73892e+09 1 0
107 2 1 1.74826e+09 1.74853e+09 1.74955e+09 1.7499e+09 1 1
108 2 0 1.75278e+09 1.75303e+09 1.75405e+09 1.75406e+09 0 0
109 2 0 1.76304e+09 1.76329e+09 1.76431e+09 1.76547e+09 1 0
110 2 0 1.77305e+09 1.77331e+09 1.77433e+09 1.77732e+09 1 0
111 2 0 1.78664e+09 1.7869e+09 1.78792e+09 1.78824e+09 1 0
112 1 0 1.79702e+09 1.79728e+09 1.79831e+09 1.80038e+09 0 1
113 2 0 1.81295e+09 1.8132e+09 1.81422e+09 1.81423e+09 0 0
114 2 0 1.82374e+09 1.82399e+09 1.82501e+09 1.82518e+09 1 0
115 2 0 1.83235e+09 1.83261e+09 1.83363e+09 1.83913e+09 1 0
116 2 0 1.8485e+09 1.84875e+09 1.84977e+09 1.85075e+09 1 0
117 1 0 1.85796e+09 1.85822e+09 1.85924e+09 1.86622e+09 0 1
118 2 0 1.87101e+09 1.87127e+09 1.87229e+09 1.87455e+09 0 0
119 2 0 1.88365e+09 1.88391e+09 1.88493e+09 1.88511e+09 1 0
120 2 0 1.89445e+09 1.89471e+09 1.89573e+09 1.8975e+09 1 0
121 2 0 1.90518e+09 1.90543e+09 1.90645e+09 1.90648e+09 1 0
122 1 0 1.91493e+09 1.9152e+09 1.91622e+09 1.92065e+09 0 1
123 1 0 1.92742e+09 1.92767e+09 1.92869e+09 1.92877e+09 0 1
124 2 0 1.93244e+09 1.93269e+09 1.93371e+09 1.93372e+09 0 0
125 2 0 1.94348e+09 1.94374e+09 1.94476e+09 1.94477e+09 1 0
126 2 1 1.95228e+09 1.95253e+09 1.95355e+09 1.95366e+09 1 1
127 1 0 1.95937e+09 1.95963e+09 1.96065e+09 1.96314e+09 0 1
128 1 0 1.96566e+09 1.96592e+09 1.96694e+09 1.9708e+09 0 1
129 2 0 1.97503e+09 1.97529e+09 1.97631e+09 1.97653e+09 0 0
130 2 0 1.98403e+09 1.9843e+09 1.98532e+09 1.98853e+09 1 0
131 2 1 1.99801e+09 1.99827e+09 1.99929e+09 2.0071e+09 1 1
132 1 0 2.0117e+09 2.01195e+09 2.01297e+09 2.01398e+09 0 1
133 1 0 2.02016e+09 2.02043e+09 2.02145e+09 2.02214e+09 0 1
134 2 0 2.02698e+09 2.02723e+09 2.02825e+09 2.03362e+09 0 0
135 2 1 2.04093e+09 2.04118e+09 2.0422e+09 2.04671e+09 1 1
136 1 0 2.05308e+09 2.05334e+09 2.05436e+09 2.05556e+09 0 1
137 1 0 2.06366e+09 2.06392e+09 2.06494e+09 2.06498e+09 0 1
138 2 0 2.07234e+09 2.0726e+09 2.07362e+09 2.09638e+09 0 0
139 2 0 2.10514e+09 2.10539e+09 2.10641e+09 2.11189e+09 1 0
140 2 1 2.11934e+09 2.1196e+09 2.12062e+09 2.12075e+09 1 1
141 2 1 2.12334e+09 2.12359e+09 2.12461e+09 2.12461e+09 0 1
142 1 0 2.1299e+09 2.13016e+09 2.13118e+09 2.13121e+09 0 1
143 2 0 2.13394e+09 2.13419e+09 2.13521e+09 2.13682e+09 0 0
144 2 0 2.1448e+09 2.14505e+09 2.14607e+09 2.15138e+09 1 0
145 2 0 2.15852e+09 2.15877e+09 2.15979e+09 2.1666e+09 1 0
146 2 1 2.17519e+09 2.17545e+09 2.17647e+09 2.18062e+09 1 1
147 2 1 2.18374e+09 2.184e+09 2.18502e+09 2.18505e+09 0 1
148 1 0 2.18946e+09 2.18971e+09 2.19073e+09 2.19111e+09 0 1
149 2 0 2.1958e+09 2.19606e+09 2.19708e+09 2.20548e+09 0 0
150 2 0 2.21715e+09 2.2174e+09 2.21842e+09 2.22326e+09 1 0
151 2 1 2.2336e+09 2.23385e+09 2.23487e+09 2.23755e+09 1 1
152 1 0 2.24241e+09 2.24267e+09 2.24369e+09 2.24388e+09 0 1
153 1 1 2.2478e+09 2.24805e+09 2.24907e+09 2.25646e+09 0 0
154 1 0 2.2638e+09 2.26406e+09 2.26508e+09 2.27383e+09 1 1
155 2 0 2.28005e+09 2.28031e+09 2.28133e+09 2.28613e+09 0 0
156 2 0 2.29338e+09 2.29363e+09 2.29465e+09 2.2949e+09 1 0
157 2 0 2.30221e+09 2.30246e+09 2.30348e+09 2.3104e+09 1 0
158 2 0 2.31769e+09 2.31795e+09 2.31897e+09 2.31899e+09 1 0
159 1 0 2.3265e+09 2.32676e+09 2.32778e+09 2.33979e+09 0 1
160 1 0 2.3469e+09 2.34716e+09 2.34818e+09 2.34837e+09 0 1
161 1 0 2.35409e+09 2.35434e+09 2.35536e+09 2.35675e+09 0 1
162 2 0 2.36073e+09 2.36099e+09 2.36202e+09 2.36292e+09 0 0
163 2 0 2.37025e+09 2.37051e+09 2.37153e+09 2.38214e+09 1 0
164 2 0 2.39173e+09 2.39199e+09 2.39301e+09 2.39664e+09 1 0
165 2 1 2.40391e+09 2.40416e+09 2.40518e+09 2.40991e+09 1 1
166 2 0 2.41355e+09 2.41381e+09 2.41483e+09 2.41514e+09 0 0
167 2 0 2.42502e+09 2.42527e+09 2.4263e+09 2.43754e+09 1 0
168 2 0 2.44655e+09 2.44681e+09 2.44783e+09 2.45608e+09 1 0
169 2 0 2.4652e+09 2.46545e+09 2.46647e+09 2.46888e+09 1 0
170 2 0 2.47601e+09 2.47627e+09 2.47729e+09 2.47745e+09 0 0
171 1 0 2.49249e+09 2.49274e+09 2.49376e+09 2.4994e+09 0 1
172 1 0 2.50385e+09 2.5041e+09 2.50512e+09 2.50734e+09 0 1
173 2 0 2.51266e+09 2.51291e+09 2.51393e+09 2.51396e+09 0 0
174 2 0 2.52123e+09 2.52148e+09 2.5225e+09 2.5276e+09 1 0
175 2 0 2.53499e+09 2.53525e+09 2.53627e+09 2.5363e+09 1 0
176 2 1 2.54724e+09 2.5475e+09 2.54852e+09 2.54888e+09 1 1
177 2 0 2.55318e+09 2.55343e+09 2.55445e+09 2.55996e+09 0 0
178 2 0 2.56914e+09 2.5694e+09 2.57042e+09 2.58139e+09 1 0
179 2 1 2.58856e+09 2.58882e+09 2.58984e+09 2.5899e+09 1 1
180 2 0 2.59748e+09 2.59773e+09 2.59875e+09 2.61884e+09 0 0
181 2 0 2.62626e+09 2.62651e+09 2.62753e+09 2.63219e+09 1 0
182 2 0 2.64025e+09 2.64051e+09 2.64153e+09 2.64174e+09 1 0
183 2 0 2.64903e+09 2.6493e+09 2.65032e+09 2.65095e+09 1 0
184 2 0 2.66034e+09 2.6606e+09 2.66162e+09 2.66189e+09 0 0
185 2 0 2.66924e+09 2.6695e+09 2.67052e+09 2.67167e+09 0 0
186 1 1 2.67915e+09 2.67941e+09 2.68043e+09 2.68046e+09 0 0
187 1 0 2.68858e+09 2.68885e+09 2.68987e+09 2.69015e+09 0 1
188 1 0 2.69449e+09 2.69474e+09 2.69576e+09 2.69598e+09 0 1
189 2 0 2.70144e+09 2.70168e+09 2.7027e+09 2.7043e+09 0 0
190 2 0 2.71324e+09 2.71349e+09 2.71451e+09 2.71718e+09 1 0
191 2 1 2.72436e+09 2.72461e+09 2.72563e+09 2.74506e+09 1 1
192 2 1 2.75386e+09 2.75411e+09 2.75513e+09 2.75527e+09 0 1
193 1 0 2.75931e+09 2.75956e+09 2.76059e+09 2.76854e+09 0 1
194 1 0 2.77615e+09 2.77641e+09 2.77743e+09 2.82001e+09 0 1
195 1 0 2.82392e+09 2.82418e+09 2.8252e+09 2.8265e+09 0 1
196 2 1 2.83087e+09 2.83113e+09 2.83215e+09 2.83281e+09 0 1
197 2 1 2.84147e+09 2.84173e+09 2.84275e+09 2.84364e+09 0 1
198 1 1 2.84678e+09 2.84702e+09 2.84804e+09 2.84975e+09 0 0
199 1 0 2.85695e+09 2.85721e+09 2.85823e+09 2.85977e+09 1 1
200 2 0 2.86423e+09 2.86448e+09 2.8655e+09 2.88749e+09 0 0
201 2 0 2.89746e+09 2.89772e+09 2.89874e+09 2.90166e+09 1 0
202 2 0 2.90898e+09 2.90924e+09 2.91026e+09 2.91265e+09 1 0
203 2 0 2.91999e+09 2.92025e+09 2.92127e+09 2.92374e+09 1 0
204 1 1 2.93123e+09 2.93149e+09 2.93251e+09 2.93272e+09 0 0
205 1 0 2.94005e+09 2.94031e+09 2.94133e+09 2.9414e+09 0 1
206 2 0 2.9442e+09 2.94446e+09 2.94548e+09 2.9491e+09 0 0
207 2 0 2.95662e+09 2.95687e+09 2.95789e+09 3.01718e+09 1 0
208 2 0 3.02423e+09 3.0245e+09 3.02552e+09 3.0266e+09 1 0
209 2 0 3.03379e+09 3.03404e+09 3.03506e+09 3.03653e+09 1 0
210 1 0 3.04418e+09 3.04444e+09 3.04546e+09 3.04767e+09 0 1
211 1 0 3.05105e+09 3.05131e+09 3.05233e+09 3.06044e+09 0 1
212 2 0 3.06515e+09 3.06541e+09 3.06643e+09 3.06648e+09 0 0
213 2 0 3.07441e+09 3.07466e+09 3.07568e+09 3.08562e+09 1 0
214 2 0 3.09541e+09 3.09566e+09 3.09668e+09 3.10001e+09 1 0
215 2 0 3.10721e+09 3.10746e+09 3.10848e+09 3.10879e+09 1 0
216 2 0 3.1161e+09 3.11635e+09 3.11737e+09 3.11759e+09 0 0
217 1 0 3.12502e+09 3.12527e+09 3.12629e+09 3.12631e+09 0 1
218 2 0 3.13502e+09 3.13528e+09 3.1363e+09 3.13631e+09 0 0
219 2 0 3.1436e+09 3.14385e+09 3.14488e+09 3.16084e+09 1 0
220 2 0 3.168e+09 3.16825e+09 3.16927e+09 3.16932e+09 1 0
221 2 0 3.17848e+09 3.17873e+09 3.17975e+09 3.17987e+09 1 0
222 1 0 3.18869e+09 3.18894e+09 3.18996e+09 3.19234e+09 0 1
223 1 0 3.20423e+09 3.20449e+09 3.20551e+09 3.20553e+09 0 1
224 1 0 3.21209e+09 3.21233e+09 3.21336e+09 3.21339e+09 0 1
225 1 1 3.21855e+09 3.21881e+09 3.21983e+09 3.22016e+09 0 0
226 1 1 3.22894e+09 3.22921e+09 3.23023e+09 3.23495e+09 1 0
227 1 0 3.24236e+09 3.24262e+09 3.24364e+09 3.24369e+09 1 1
228 2 1 3.2494e+09 3.24966e+09 3.25068e+09 3.25069e+09 0 1
229 2 1 3.25653e+09 3.25679e+09 3.25781e+09 3.25783e+09 0 1
230 1 0 3.26163e+09 3.2619e+09 3.26292e+09 3.27077e+09 0 1
231 2 1 3.27505e+09 3.2753e+09 3.27632e+09 3.27639e+09 0 1
232 1 0 3.27896e+09 3.27923e+09 3.28025e+09 3.289e+09 0 1
233 2 0 3.29159e+09 3.29184e+09 3.29286e+09 3.30555e+09 0 0
234 2 0 3.31307e+09 3.31332e+09 3.31434e+09 3.31781e+09 1 0
235 2 0 3.3251e+09 3.32536e+09 3.32638e+09 3.3275e+09 1 0
236 2 1 3.33694e+09 3.3372e+09 3.33822e+09 3.3385e+09 1 1
237 2 0 3.3432e+09 3.34346e+09 3.34448e+09 3.34487e+09 0 0
238 2 1 3.35192e+09 3.35217e+09 3.35319e+09 3.35408e+09 1 1
239 1 1 3.35747e+09 3.35772e+09 3.35874e+09 3.35998e+09 0 0
240 1 0 3.36856e+09 3.36881e+09 3.36983e+09 3.37534e+09 1 1
241 1 0 3.37803e+09 3.37828e+09 3.3793e+09 3.37932e+09 0 1
242 2 0 3.38639e+09 3.38664e+09 3.38766e+09 3.38776e+09 0 0
243 2 1 3.39533e+09 3.39559e+09 3.39661e+09 3.39901e+09 1 1
244 2 0 3.40477e+09 3.40502e+09 3.40604e+09 3.40632e+09 0 0
245 2 0 3.41383e+09 3.41407e+09 3.41509e+09 3.41615e+09 1 0
246 2 1 3.42317e+09 3.42342e+09 3.42444e+09 3.44081e+09 1 1
247 2 0 3.44479e+09 3.44504e+09 3.44606e+09 3.45346e+09 0 0
248 2 0 3.46418e+09 3.46443e+09 3.46546e+09 3.47498e+09 1 0
249 2 0 3.48227e+09 3.48254e+09 3.48356e+09 3.48991e+09 1 0
250 2 0 3.50336e+09 3.50361e+09 3.50463e+09 3.50824e+09 1 0
251 1 0 3.5157e+09 3.51596e+09 3.51698e+09 3.51947e+09 0 1
252 2 0 3.52379e+09 3.52404e+09 3.52506e+09 3.52681e+09 0 0
253 2 0 3.53415e+09 3.5344e+09 3.53542e+09 3.53672e+09 1 0
254 2 0 3.54425e+09 3.54451e+09 3.54553e+09 3.5481e+09 1 0
255 2 0 3.55528e+09 3.55555e+09 3.55657e+09 3.56273e+09 1 0
256 2 0 3.57105e+09 3.5713e+09 3.57232e+09 3.57986e+09 0 0
257 2 0 3.58753e+09 3.58779e+09 3.58881e+09 3.58904e+09 0 0
258 1 0 3.60097e+09 3.60122e+09 3.60224e+09 3.60237e+09 0 1
259 2 1 3.60525e+09 3.60551e+09 3.60653e+09 3.60811e+09 0 1
260 2 0 3.61063e+09 3.61087e+09 3.61189e+09 3.61587e+09 0 0
261 2 0 3.62332e+09 3.62358e+09 3.6246e+09 3.62877e+09 1 0
262 2 0 3.63607e+09 3.63633e+09 3.63735e+09 3.65231e+09 1 0
263 2 0 3.65936e+09 3.65962e+09 3.66064e+09 3.66151e+09 1 0
264 1 0 3.66912e+09 3.66937e+09 3.67039e+09 3.68682e+09 0 1
265 1 1 3.68975e+09 3.69e+09 3.69102e+09 3.69226e+09 0 0
266 1 1 3.70408e+09 3.70433e+09 3.70535e+09 3.70841e+09 1 0
267 1 0 3.71551e+09 3.71577e+09 3.71679e+09 3.72091e+09 1 1
268 2 0 3.73311e+09 3.73336e+09 3.73439e+09 3.73772e+09 0 0
269 2 0 3.745e+09 3.74524e+09 3.74626e+09 3.75163e+09 1 0
270 2 0 3.75871e+09 3.75897e+09 3.75999e+09 3.76196e+09 1 0
271 2 0 3.76931e+09 3.76957e+09 3.77059e+09 3.77124e+09 1 0
272 1 1 3.77874e+09 3.779e+09 3.78002e+09 3.78838e+09 0 0
273 1 0 3.79845e+09 3.79871e+09 3.79973e+09 3.81375e+09 0 1
274 1 0 3.81863e+09 3.8189e+09 3.81992e+09 3.81992e+09 0 1
275 1 1 3.8235e+09 3.82376e+09 3.82478e+09 3.82483e+09 0 0
276 1 0 3.83294e+09 3.8332e+09 3.83422e+09 3.84126e+09 1 1
277 2 0 3.84557e+09 3.84582e+09 3.84684e+09 3.84689e+09 0 0
278 2 0 3.85412e+09 3.85437e+09 3.85539e+09 3.85841e+09 1 0
279 2 0 3.86628e+09 3.86654e+09 3.86756e+09 3.8676e+09 1 0
280 2 0 3.87477e+09 3.87504e+09 3.87606e+09 3.87832e+09 1 0
281 2 0 3.88589e+09 3.88615e+09 3.88717e+09 3.88718e+09 0 0
282 2 0 3.89844e+09 3.8987e+09 3.89972e+09 3.9069e+09 0 0
283 2 1 3.91405e+09 3.9143e+09 3.91532e+09 3.91594e+09 0 1
284 1 0 3.91949e+09 3.91974e+09 3.92076e+09 3.92105e+09 0 1
285 2 0 3.92423e+09 3.92449e+09 3.92551e+09 3.92553e+09 0 0
286 2 0 3.93373e+09 3.934e+09 3.93502e+09 3.94172e+09 1 0
287 2 0 3.949e+09 3.94925e+09 3.95027e+09 3.95204e+09 1 0
288 2 0 3.95914e+09 3.95939e+09 3.96041e+09 3.96276e+09 1 0
289 1 1 3.97321e+09 3.97346e+09 3.97448e+09 3.97464e+09 0 0
290 2 0 3.98194e+09 3.98219e+09 3.98321e+09 3.98389e+09 0 0
291 2 0 3.9916e+09 3.99185e+09 3.99287e+09 3.99869e+09 0 0
292 2 0 4.00591e+09 4.00616e+09 4.00718e+09 4.0078e+09 0 0
293 1 0 4.01533e+09 4.01557e+09 4.01659e+09 4.01875e+09 0 1
294 2 0 4.02286e+09 4.02311e+09 4.02413e+09 4.03109e+09 0 0
295 2 0 4.03857e+09 4.03882e+09 4.03984e+09 4.04039e+09 1 0
296 2 0 4.04754e+09 4.0478e+09 4.04882e+09 4.05818e+09 1 0
297 2 0 4.06577e+09 4.06603e+09 4.06705e+09 4.06754e+09 1 0
298 1 0 4.07761e+09 4.07786e+09 4.07888e+09 4.08622e+09 0 1
299 1 1 4.09004e+09 4.0903e+09 4.09132e+09 4.09188e+09 0 0
300 1 0 4.10112e+09 4.10138e+09 4.1024e+09 4.10714e+09 1 1
301 1 0 4.11304e+09 4.11329e+09 4.11431e+09 4.11432e+09 0 1
302 1 0 4.11918e+09 4.11945e+09 4.12047e+09 4.12053e+09 0 1
303 1 0 4.12753e+09 4.12778e+09 4.12881e+09 4.12902e+09 0 1
304 1 1 4.13261e+09 4.13287e+09 4.13389e+09 4.1339e+09 0 0
305 1 0 4.14513e+09 4.14538e+09 4.1464e+09 4.14643e+09 1 1
306 1 0 4.15604e+09 4.1563e+09 4.15732e+09 4.15844e+09 0 1
307 1 1 4.16155e+09 4.16181e+09 4.16283e+09 4.17907e+09 0 0
308 1 1 4.18886e+09 4.18912e+09 4.19014e+09 4.1902e+09 1 0
309 1 1 4.19726e+09 4.19751e+09 4.19853e+09 4.19861e+09 1 0
310 1 0 4.20603e+09 4.20629e+09 4.20731e+09 4.21286e+09 1 1
311 2 1 4.22394e+09 4.22419e+09 4.22521e+09 4.22568e+09 0 1
312 1 0 4.22833e+09 4.22858e+09 4.2296e+09 4.22999e+09 0 1
313 1 0 4.23343e+09 4.2337e+09 4.23472e+09 4.23472e+09 0 1
314 2 0 4.24006e+09 4.24032e+09 4.24134e+09 4.24265e+09 0 0
315 2 0 4.25063e+09 4.25089e+09 4.25191e+09 4.25231e+09 1 0
316 2 1 4.25961e+09 4.25986e+09 4.26089e+09 4.26091e+09 1 1
317 1 1 4.26472e+09 4.26497e+09 4.26599e+09 4.2677e+09 0 0
318 1 0 4.27493e+09 4.27518e+09 4.2762e+09 4.27792e+09 1 1
319 2 0 4.28362e+09 4.28386e+09 4.28488e+09 1.05383e+06 0 0
320 2 0 8.20123e+06 8.4632e+06 9.4835e+06 1.21947e+07 1 0
321 2 0 2.44091e+07 2.46626e+07 2.56829e+07 2.60308e+07 1 0
322 2 0 3.61738e+07 3.64331e+07 3.74534e+07 3.89257e+07 1 0
323 2 0 4.61496e+07 4.64008e+07 4.74211e+07 5.74945e+07 0 0
324 1 0 6.65907e+07 6.68494e+07 6.78697e+07 7.16158e+07 0 1
325 1 0 7.45206e+07 7.47723e+07 7.57926e+07 7.61445e+07 0 1
326 1 0 8.21043e+07 8.23597e+07 8.338e+07 1.06955e+08 0 1
327 2 0 1.10564e+08 1.10817e+08 1.11837e+08 1.1224e+08 0 0
328 2 0 1.19476e+08 1.19723e+08 1.20743e+08 1.33382e+08 1 0
329 2 0 1.43953e+08 1.44204e+08 1.45225e+08 1.45824e+08 1 0
330 2 0 1.52936e+08 1.53183e+08 1.54203e+08 1.59516e+08 1 0
331 1 0 1.75226e+08 1.75481e+08 1.76502e+08 1.76571e+08 0 1
332 2 0 1.81546e+08 1.81798e+08 1.82819e+08 1.83315e+08 0 0
333 2 0 1.92612e+08 1.92869e+08 1.93889e+08 1.94056e+08 1 0
334 2 0 2.01388e+08 2.01638e+08 2.02658e+08 2.02895e+08 1 0
335 2 1 2.12261e+08 2.1251e+08 2.1353e+08 2.14568e+08 1 1
336 2 0 2.20673e+08 2.20924e+08 2.21944e+08 2.22245e+08 0 0
337 2 0 2.31807e+08 2.32067e+08 2.33087e+08 2.35788e+08 1 0
338 2 0 2.43311e+08 2.43572e+08 2.44593e+08 2.45083e+08 1 0
339 2 0 2.5875e+08 2.59007e+08 2.60027e+08 2.63064e+08 1 0
340 1 1 2.72699e+08 2.7296e+08 2.7398e+08 2.74036e+08 0 0
341 2 0 2.88535e+08 2.88794e+08 2.89814e+08 2.90209e+08 0 0
342 2 0 2.97691e+08 2.97948e+08 2.98968e+08 2.99207e+08 0 0
343 1 0 3.08115e+08 3.08381e+08 3.09401e+08 3.1189e+08 0 1
344 2 0 3.15126e+08 3.15393e+08 3.16413e+08 3.16417e+08 0 0
345 2 0 3.23551e+08 3.23798e+08 3.24818e+08 3.37008e+08 1 0
346 2 0 3.44286e+08 3.44531e+08 3.45551e+08 3.46432e+08 1 0
347 2 0 3.53993e+08 3.54251e+08 3.55271e+08 3.59073e+08 1 0
348 2 0 3.66612e+08 3.66871e+08 3.67891e+08 3.75853e+08 0 0
349 2 0 3.89487e+08 3.89741e+08 3.90761e+08 3.96686e+08 0 0
350 2 0 4.04167e+08 4.04424e+08 4.05444e+08 4.06891e+08 0 0
351 1 1 4.15215e+08 4.15467e+08 4.16487e+08 4.19824e+08 0 0
352 2 0 4.32672e+08 4.32923e+08 4.33943e+08 4.34789e+08 0 0
353 1 1 4.44925e+08 4.45191e+08 4.46211e+08 4.48495e+08 0 0
354 2 0 4.57759e+08 4.58011e+08 4.59031e+08 4.6233e+08 0 0
355 2 0 4.78114e+08 4.78362e+08 4.79383e+08 4.81087e+08 0 0
356 2 0 4.88598e+08 4.8886e+08 4.8988e+08 4.90314e+08 0 0
357 2 0 4.98548e+08 4.98804e+08 4.99824e+08 5.03149e+08 0 0
358 1 0 5.10337e+08 5.10598e+08 5.11618e+08 5.16993e+08 0 1
359 2 0 5.30905e+08 5.31163e+08 5.32184e+08 5.32529e+08 0 0
360 2 0 5.39568e+08 5.39831e+08 5.40851e+08 5.45005e+08 1 0
361 2 0 5.52103e+08 5.52358e+08 5.53378e+08 5.53814e+08 1 0
362 2 0 5.64329e+08 5.64583e+08 5.65603e+08 5.65721e+08 1 0
363 1 0 5.76143e+08 5.76394e+08 5.77414e+08 5.77424e+08 0 1
364 2 0 5.8185e+08 5.82113e+08 5.83134e+08 5.83769e+08 0 0
365 2 0 5.96217e+08 5.96477e+08 5.97497e+08 5.97866e+08 1 0
366 2 0 6.07864e+08 6.08122e+08 6.09142e+08 6.12146e+08 1 0
367 2 0 6.2153e+08 6.21784e+08 6.22804e+08 6.23111e+08 1 0
368 2 0 6.31221e+08 6.31474e+08 6.32494e+08 6.34461e+08 0 0
369 1 0 6.42452e+08 6.42704e+08 6.43724e+08 6.45875e+08 0 1
370 1 0 6.487e+08 6.4895e+08 6.49971e+08 6.6184e+08 0 1
371 1 0 6.67738e+08 6.67997e+08 6.69018e+08 6.7303e+08 0 1
372 2 0 6.75664e+08 6.75924e+08 6.76945e+08 6.76966e+08 0 0
373 2 0 6.84244e+08 6.845e+08 6.8552e+08 6.9036e+08 1 0
374 2 0 6.97996e+08 6.98246e+08 6.99267e+08 6.99378e+08 1 0
375 2 0 7.07027e+08 7.0729e+08 7.0831e+08 7.09345e+08 1 0
376 1 0 7.17865e+08 7.18131e+08 7.19151e+08 7.2308e+08 0 1
377 1 0 7.32789e+08 7.33044e+08 7.34064e+08 7.36263e+08 0 1
378 1 0 7.3958e+08 7.39835e+08 7.40856e+08 7.40881e+08 0 1
379 1 0 7.44991e+08 7.45252e+08 7.46272e+08 7.49865e+08 0 1
380 2 0 7.55478e+08 7.55733e+08 7.56754e+08 7.56799e+08 0 0
381 2 0 7.6515e+08 7.65408e+08 7.66429e+08 7.66656e+08 1 0
382 2 0 7.73905e+08 7.7415e+08 7.7517e+08 7.78447e+08 1 0
383 2 0 7.86903e+08 7.87164e+08 7.88184e+08 7.91231e+08 1 0
384 2 0 7.9873e+08 7.98992e+08 8.00012e+08 8.00255e+08 0 0
385 2 0 8.12326e+08 8.12588e+08 8.13608e+08 8.14164e+08 0 0
386 2 0 8.21499e+08 8.21755e+08 8.22775e+08 8.2352e+08 0 0
387 2 0 8.31084e+08 8.31331e+08 8.32351e+08 8.32911e+08 0 0
388 2 0 8.40216e+08 8.40477e+08 8.41497e+08 8.41772e+08 0 0
389 2 0 8.51049e+08 8.51296e+08 8.52316e+08 8.52346e+08 0 0
390 2 0 8.61242e+08 8.61489e+08 8.62509e+08 8.63886e+08 0 0
391 1 0 8.70998e+08 8.71245e+08 8.72265e+08 8.74634e+08 0 1
392 2 0 8.7982e+08 8.80072e+08 8.81092e+08 8.81262e+08 0 0
393 2 0 8.88293e+08 8.88552e+08 8.89572e+08 8.91934e+08 1 0
394 2 0 9.00869e+08 9.01129e+08 9.0215e+08 9.0238e+08 1 0
395 2 0 9.11716e+08 9.11969e+08 9.1299e+08 9.14818e+08 1 0
396 1 0 9.22351e+08 9.2261e+08 9.23631e+08 9.26258e+08 0 1
397 2 0 9.31988e+08 9.32242e+08 9.33263e+08 9.3332e+08 0 0
398 2 0 9.42643e+08 9.42896e+08 9.43916e+08 9.49015e+08 1 0
399 2 0 9.58394e+08 9.58659e+08 9.5968e+08 9.6507e+08 1 0
400 2 0 9.72186e+08 9.72439e+08 9.73459e+08 9.74883e+08 1 0
401 1 0 9.82376e+08 9.82639e+08 9.83659e+08 9.91284e+08 0 1
402 1 0 9.977e+08 9.9795e+08 9.9897e+08 1.00002e+09 0 1
403 2 0 1.00569e+09 1.00595e+09 1.00697e+09 1.01345e+09 0 0
404 2 0 1.02306e+09 1.02331e+09 1.02433e+09 1.02435e+09 1 0
405 2 1 1.03484e+09 1.0351e+09 1.03612e+09 1.04089e+09 1 1
406 1 0 1.04748e+09 1.04774e+09 1.04876e+09 1.05607e+09 0 1
407 1 0 1.06296e+09 1.06321e+09 1.06423e+09 1.06559e+09 0 1
408 2 1 1.07038e+09 1.07064e+09 1.07166e+09 1.07177e+09 0 1
409 2 0 1.07692e+09 1.07718e+09 1.0782e+09 1.07836e+09 0 0
410 2 0 1.08563e+09 1.08589e+09 1.08691e+09 1.08741e+09 1 0
411 2 0 1.09459e+09 1.09486e+09 1.09588e+09 1.09601e+09 1 0
412 2 0 1.10392e+09 1.10417e+09 1.10519e+09 1.10532e+09 1 0
413 1 1 1.11335e+09 1.1136e+09 1.11462e+09 1.12358e+09 0 0
414 2 0 1.13418e+09 1.13443e+09 1.13545e+09 1.14099e+09 0 0
415 2 0 1.14981e+09 1.15008e+09 1.1511e+09 1.15153e+09 0 0
416 2 0 1.15946e+09 1.15973e+09 1.16075e+09 1.16091e+09 0 0
417 2 0 1.16824e+09 1.1685e+09 1.16952e+09 1.17021e+09 0 0
418 2 0 1.18248e+09 1.18274e+09 1.18376e+09 1.18416e+09 0 0
419 2 0 1.19153e+09 1.19179e+09 1.19281e+09 1.19822e+09 0 0
420 2 0 1.20725e+09 1.20751e+09 1.20853e+09 1.20888e+09 0 0
421 1 0 1.22283e+09 1.22308e+09 1.2241e+09 1.22468e+09 0 1
422 2 0 1.23019e+09 1.23044e+09 1.23146e+09 1.24038e+09 0 0
423 2 0 1.24783e+09 1.24808e+09 1.2491e+09 1.24922e+09 1 0
424 2 0 1.25654e+09 1.25679e+09 1.25781e+09 1.25814e+09 1 0
425 2 0 1.26524e+09 1.26549e+09 1.26651e+09 1.27201e+09 1 0
426 1 0 1.28006e+09 1.28031e+09 1.28133e+09 1.2858e+09 0 1
427 2 0 1.28941e+09 1.28967e+09 1.29069e+09 1.29335e+09 0 0
428 2 0 1.30064e+09 1.3009e+09 1.30192e+09 1.31873e+09 1 0
429 2 1 1.32627e+09 1.32653e+09 1.32755e+09 1.33548e+09 1 1
430 1 0 1.33801e+09 1.33826e+09 1.33928e+09 1.33968e+09 0 1
431 1 0 1.35161e+09 1.35187e+09 1.35289e+09 1.35619e+09 0 1
432 2 0 1.36542e+09 1.36568e+09 1.3667e+09 1.37042e+09 0 0
433 2 0 1.37766e+09 1.37792e+09 1.37894e+09 1.37901e+09 1 0
434 2 0 1.38798e+09 1.38823e+09 1.38925e+09 1.39106e+09 1 0
435 2 0 1.40049e+09 1.40073e+09 1.40175e+09 1.40399e+09 1 0
436 1 0 1.41134e+09 1.4116e+09 1.41262e+09 1.41617e+09 0 1
437 1 0 1.41938e+09 1.41964e+09 1.42066e+09 1.42088e+09 0 1
438 1 0 1.42529e+09 1.42555e+09 1.42657e+09 1.42925e+09 0 1
439 1 0 1.43826e+09 1.43852e+09 1.43954e+09 1.44214e+09 0 1
440 2 0 1.4447e+09 1.44495e+09 1.44597e+09 1.44621e+09 0 0
441 2 0 1.45325e+09 1.45351e+09 1.45453e+09 1.45516e+09 1 0
442 2 0 1.46285e+09 1.46309e+09 1.46411e+09 1.46884e+09 1 0
443 2 0 1.47784e+09 1.4781e+09 1.47912e+09 1.47958e+09 1 0
444 1 0 1.48749e+09 1.48775e+09 1.48877e+09 1.49962e+09 0 1
445 2 0 1.50261e+09 1.50286e+09 1.50388e+09 1.50693e+09 0 0
446 2 0 1.5143e+09 1.51455e+09 1.51557e+09 1.51977e+09 1 0
447 2 0 1.52712e+09 1.52737e+09 1.52839e+09 1.52876e+09 1 0
448 2 0 1.53598e+09 1.53623e+09 1.53725e+09 1.53881e+09 1 0
449 2 1 1.54844e+09 1.5487e+09 1.54972e+09 1.55057e+09 0 1
