trial trialType response stillTime stimOnset stimOffset respTime correctionTrial correct
001 2 1 6.62836e+06 6.95172e+06 7.97201e+06 2.83093e+08 0
001 002 1 0 2.85753e+08 2.86042e+08 2.87062e+08 8.25742e+08 0
001 003 2 1 8.2894e+08 8.29205e+08 8.30225e+08 8.31094e+08 0
001 004 1 0 8.335e+08 8.33787e+08 8.34807e+08 8.35044e+08 0
001 005 1 1 8.47292e+08 8.47571e+08 8.48591e+08 8.48601e+08 0
000 006 1 1 8.6296e+08 8.63215e+08 8.64235e+08 8.64299e+08 1
000 007 1 1 8.7875e+08 8.79002e+08 8.80022e+08 8.83853e+08 1
000 008 1 1 9.0195e+08 9.02201e+08 9.03221e+08 9.04882e+08 1
000 009 1 0 9.14479e+08 9.14728e+08 9.15748e+08 9.16188e+08 0
001 010 1 1 9.18905e+08 9.19163e+08 9.20184e+08 9.20254e+08 0
000 011 1 0 9.50158e+08 9.50411e+08 9.51431e+08 9.51451e+08 1
001 012 1 0 9.5906e+08 9.59312e+08 9.60332e+08 9.62835e+08 0
001 013 2 1 9.7078e+08 9.71039e+08 9.72059e+08 9.72363e+08 0
001 014 2 0 9.80015e+08 9.80273e+08 9.81294e+08 9.81301e+08 0
000 015 2 1 9.91883e+08 9.9214e+08 9.93161e+08 1.00516e+09 1
001 016 2 1 1.00739e+09 1.00765e+09 1.00867e+09 1.0108e+09 0
001 017 1 0 1.02182e+09 1.02208e+09 1.0231e+09 1.03264e+09 0
001 018 2 1 1.03859e+09 1.03885e+09 1.03987e+09 1.04678e+09 0
001 019 1 0 1.05009e+09 1.05035e+09 1.05137e+09 1.05181e+09 0
001 020 1 1 1.0545e+09 1.05476e+09 1.05578e+09 1.05729e+09 0
000 021 1 1 1.07061e+09 1.07086e+09 1.07189e+09 1.0719e+09 1
000 022 1 1 1.08085e+09 1.08109e+09 1.08211e+09 1.0835e+09 1
000 023 1 0 1.09076e+09 1.09101e+09 1.09203e+09 1.09225e+09 1
001 024 1 0 1.10625e+09 1.10651e+09 1.10753e+09 1.10754e+09 0
001 025 2 1 1.1149e+09 1.11516e+09 1.11618e+09 1.11655e+09 0
001 026 1 1 1.1207e+09 1.12095e+09 1.12197e+09 1.12198e+09 0
000 027 1 1 1.13541e+09 1.13566e+09 1.13668e+09 1.13708e+09 1
000 028 1 1 1.14564e+09 1.1459e+09 1.14692e+09 1.14755e+09 1
000 029 1 0 1.15832e+09 1.15858e+09 1.1596e+09 1.16394e+09 1
001 030 2 1 1.16957e+09 1.16983e+09 1.17085e+09 1.17155e+09 0
001 031 2 1 1.17386e+09 1.17413e+09 1.17515e+09 1.17593e+09 0
001 032 1 0 1.18996e+09 1.19022e+09 1.19124e+09 1.19128e+09 0
001 033 1 1 1.19506e+09 1.19531e+09 1.19633e+09 1.19667e+09 0
000 034 1 1 1.20458e+09 1.20483e+09 1.20585e+09 1.20586e+09 1
000 035 1 1 1.2132e+09 1.21344e+09 1.21446e+09 1.2145e+09 1
000 036 1 1 1.2228e+09 1.22304e+09 1.22406e+09 1.22463e+09 1
000 037 2 1 1.23268e+09 1.23294e+09 1.23396e+09 1.23488e+09 0
001 038 2 1 1.24439e+09 1.24464e+09 1.24566e+09 1.25336e+09 0
001 039 2 0 1.25833e+09 1.2586e+09 1.25962e+09 1.25962e+09 0
000 040 2 1 1.2685e+09 1.26875e+09 1.26977e+09 1.27506e+09 1
001 041 2 1 1.27877e+09 1.27902e+09 1.28004e+09 1.28026e+09 0
001 042 2 0 1.28307e+09 1.28332e+09 1.28434e+09 1.28512e+09 0
000 043 2 0 1.29469e+09 1.29494e+09 1.29596e+09 1.30345e+09 1
000 044 2 1 1.31082e+09 1.31107e+09 1.3121e+09 1.31217e+09 1
001 045 1 1 1.32211e+09 1.32238e+09 1.3234e+09 1.32346e+09 0
000 046 1 1 1.33289e+09 1.33314e+09 1.33416e+09 1.33422e+09 1
000 047 1 1 1.34469e+09 1.34495e+09 1.34597e+09 1.34657e+09 1
000 048 1 1 1.35457e+09 1.35481e+09 1.35583e+09 1.35699e+09 1
000 049 2 0 1.36818e+09 1.36844e+09 1.36946e+09 1.36947e+09 0
000 050 2 1 1.38732e+09 1.38758e+09 1.3886e+09 1.38899e+09 0
001 051 2 1 1.39115e+09 1.39141e+09 1.39243e+09 1.39243e+09 0
001 052 2 1 1.40095e+09 1.4012e+09 1.40222e+09 1.40227e+09 0
001 053 1 1 1.40763e+09 1.40789e+09 1.40891e+09 1.41132e+09 0
000 054 1 1 1.42032e+09 1.42058e+09 1.4216e+09 1.42214e+09 1
000 055 1 1 1.43569e+09 1.43595e+09 1.43697e+09 1.43723e+09 1
000 056 1 1 1.44475e+09 1.44499e+09 1.44601e+09 1.45061e+09 1
000 057 1 1 1.46212e+09 1.46238e+09 1.4634e+09 1.46646e+09 0
000 058 1 1 1.49077e+09 1.49102e+09 1.49204e+09 1.49372e+09 0
000 059 1 1 1.50225e+09 1.5025e+09 1.50352e+09 1.50458e+09 0
000 060 1 1 1.51914e+09 1.5194e+09 1.52042e+09 1.52043e+09 0
000 061 1 1 1.53404e+09 1.5343e+09 1.53532e+09 1.53533e+09 0
000 062 1 1 1.5446e+09 1.54486e+09 1.54588e+09 1.54943e+09 0
000 063 1 1 1.56041e+09 1.56067e+09 1.56169e+09 1.56378e+09 0
000 064 2 1 1.57351e+09 1.57376e+09 1.57478e+09 1.58079e+09 0
001 065 2 0 1.58415e+09 1.58441e+09 1.58543e+09 1.58661e+09 0
000 066 2 1 1.5971e+09 1.59735e+09 1.59837e+09 1.59838e+09 1
001 067 2 1 1.60312e+09 1.60337e+09 1.60439e+09 1.60441e+09 0
001 068 1 1 1.60796e+09 1.60821e+09 1.60923e+09 1.60967e+09 0
000 069 1 1 1.62306e+09 1.62333e+09 1.62435e+09 1.62578e+09 1
000 070 1 1 1.63466e+09 1.63491e+09 1.63593e+09 1.63594e+09 1
000 071 1 1 1.64326e+09 1.64352e+09 1.64454e+09 1.64994e+09 1
000 072 2 1 1.6647e+09 1.66496e+09 1.66598e+09 1.67393e+09 0
001 073 2 1 1.67621e+09 1.67648e+09 1.6775e+09 1.67783e+09 0
001 074 1 1 1.68151e+09 1.68176e+09 1.68278e+09 1.68434e+09 0
000 075 1 1 1.69687e+09 1.69713e+09 1.69815e+09 1.69913e+09 1
000 076 1 1 1.70647e+09 1.70674e+09 1.70776e+09 1.70982e+09 1
000 077 1 1 1.71771e+09 1.71797e+09 1.71899e+09 1.72327e+09 1
000 078 2 0 1.73273e+09 1.73299e+09 1.73401e+09 1.73419e+09 0
000 079 1 1 1.74723e+09 1.74749e+09 1.74851e+09 1.74851e+09 0
000 080 2 1 1.76014e+09 1.7604e+09 1.76142e+09 1.7616e+09 0
001 081 2 1 1.76918e+09 1.76943e+09 1.77045e+09 1.77158e+09 0
001 082 2 1 1.77382e+09 1.77408e+09 1.7751e+09 1.77631e+09 0
001 083 2 1 1.78413e+09 1.78438e+09 1.7854e+09 1.79143e+09 0
001 084 1 1 1.79358e+09 1.79383e+09 1.79485e+09 1.79486e+09 0
000 085 1 0 1.8019e+09 1.80216e+09 1.80318e+09 1.80464e+09 1
001 086 2 1 1.80739e+09 1.80764e+09 1.80866e+09 1.80867e+09 0
001 087 2 1 1.8116e+09 1.81185e+09 1.81287e+09 1.81457e+09 0
001 088 2 0 1.81711e+09 1.81737e+09 1.81839e+09 1.82051e+09 0
000 089 2 1 1.82879e+09 1.82903e+09 1.83006e+09 1.8301e+09 1
001 090 2 1 1.83254e+09 1.8328e+09 1.83382e+09 1.83469e+09 0
001 091 2 1 1.83773e+09 1.83798e+09 1.839e+09 1.83901e+09 0
001 092 2 1 1.84902e+09 1.84927e+09 1.85029e+09 1.85082e+09 0
001 093 2 1 1.86698e+09 1.86724e+09 1.86826e+09 1.86828e+09 0
001 094 1 1 1.87806e+09 1.87831e+09 1.87933e+09 1.8794e+09 0
000 095 1 1 1.89177e+09 1.89202e+09 1.89305e+09 1.8931e+09 1
000 096 1 1 1.90582e+09 1.90607e+09 1.90709e+09 1.90725e+09 1
000 097 1 1 1.92232e+09 1.92258e+09 1.9236e+09 1.92382e+09 1
000 098 2 1 1.93127e+09 1.93153e+09 1.93256e+09 1.9326e+09 0
001 099 1 0 1.94792e+09 1.94817e+09 1.94919e+09 1.9492e+09 0
001 100 1 1 1.95636e+09 1.95662e+09 1.95764e+09 1.95768e+09 0
000 101 1 1 1.96472e+09 1.96498e+09 1.966e+09 1.97064e+09 1
000 102 1 1 1.98353e+09 1.98378e+09 1.9848e+09 1.98482e+09 1
000 103 1 0 1.99561e+09 1.99587e+09 1.99689e+09 1.99716e+09 1
001 104 1 1 2.00096e+09 2.0012e+09 2.00222e+09 2.00223e+09 0
000 105 1 1 2.01504e+09 2.01528e+09 2.0163e+09 2.02361e+09 1
000 106 1 1 2.03305e+09 2.0333e+09 2.03432e+09 2.03433e+09 1
000 107 1 1 2.04272e+09 2.04299e+09 2.04401e+09 2.04403e+09 1
000 108 1 0 2.0515e+09 2.05175e+09 2.05277e+09 2.05285e+09 0
001 109 2 0 2.06156e+09 2.06182e+09 2.06284e+09 2.06289e+09 0
000 110 2 1 2.07112e+09 2.07138e+09 2.0724e+09 2.07272e+09 1
001 111 2 1 2.08284e+09 2.08309e+09 2.08411e+09 2.08413e+09 0
001 112 2 0 2.08651e+09 2.08678e+09 2.0878e+09 2.08804e+09 0
000 113 2 1 2.0992e+09 2.09946e+09 2.10048e+09 2.10109e+09 1
001 114 1 1 2.10429e+09 2.10455e+09 2.10557e+09 2.10558e+09 0
000 115 1 1 2.11274e+09 2.113e+09 2.11402e+09 2.11659e+09 1
000 116 1 0 2.12809e+09 2.12836e+09 2.12938e+09 2.12939e+09 1
001 117 1 1 2.13172e+09 2.13198e+09 2.133e+09 2.13362e+09 0
000 118 1 1 2.14223e+09 2.14248e+09 2.1435e+09 2.14353e+09 1
000 119 1 0 2.15446e+09 2.15473e+09 2.15575e+09 2.15578e+09 1
001 120 1 1 2.17333e+09 2.17358e+09 2.1746e+09 2.17548e+09 0
000 121 1 1 2.18867e+09 2.18893e+09 2.18995e+09 2.19147e+09 1
000 122 1 1 2.19857e+09 2.19883e+09 2.19985e+09 2.20203e+09 1
000 123 1 1 2.21402e+09 2.21427e+09 2.21529e+09 2.2153e+09 1
000 124 1 1 2.22358e+09 2.22384e+09 2.22486e+09 2.22488e+09 0
000 125 2 1 2.23339e+09 2.23365e+09 2.23467e+09 2.23527e+09 0
001 126 1 0 2.25602e+09 2.25627e+09 2.25729e+09 2.2573e+09 0
001 127 1 1 2.27806e+09 2.27832e+09 2.27934e+09 2.27953e+09 0
000 128 1 1 2.2866e+09 2.28686e+09 2.28788e+09 2.28793e+09 1
000 129 1 1 2.29497e+09 2.29523e+09 2.29625e+09 2.29626e+09 1
000 130 1 1 2.30769e+09 2.30794e+09 2.30896e+09 2.30948e+09 1
000 131 1 1 2.32044e+09 2.32071e+09 2.32173e+09 2.32399e+09 0
000 132 2 1 2.33145e+09 2.33171e+09 2.33273e+09 2.33314e+09 0
001 133 2 1 2.33538e+09 2.33563e+09 2.33665e+09 2.33668e+09 0
001 134 1 0 2.35236e+09 2.35262e+09 2.35364e+09 2.35366e+09 0
001 135 1 0 2.35888e+09 2.35915e+09 2.36017e+09 2.3602e+09 0
001 136 1 1 2.36963e+09 2.36989e+09 2.37091e+09 2.37197e+09 0
000 137 1 1 2.38153e+09 2.38179e+09 2.38281e+09 2.38381e+09 1
000 138 1 1 2.3948e+09 2.39506e+09 2.39608e+09 2.3975e+09 1
000 139 1 1 2.40724e+09 2.4075e+09 2.40852e+09 2.41232e+09 1
000 140 2 1 2.42423e+09 2.42448e+09 2.4255e+09 2.42561e+09 0
001 141 2 1 2.42785e+09 2.42809e+09 2.42911e+09 2.42923e+09 0
001 142 1 1 2.4418e+09 2.44204e+09 2.44306e+09 2.44307e+09 0
000 143 1 0 2.45076e+09 2.45101e+09 2.45203e+09 2.45204e+09 1
001 144 1 0 2.45732e+09 2.45758e+09 2.4586e+09 2.45861e+09 0
001 145 1 1 2.46718e+09 2.46742e+09 2.46844e+09 2.46845e+09 0
000 146 1 1 2.48332e+09 2.48359e+09 2.48461e+09 2.48592e+09 1
000 147 1 1 2.49309e+09 2.49335e+09 2.49437e+09 2.49509e+09 1
000 148 1 0 2.50241e+09 2.50267e+09 2.50369e+09 2.50376e+09 1
001 149 2 0 2.51498e+09 2.51524e+09 2.51626e+09 2.51644e+09 0
000 150 2 1 2.52539e+09 2.52565e+09 2.52667e+09 2.52706e+09 1
001 151 2 1 2.53601e+09 2.53628e+09 2.5373e+09 2.5406e+09 0
001 152 1 0 2.54482e+09 2.54508e+09 2.5461e+09 2.54611e+09 0
001 153 1 1 2.54927e+09 2.54953e+09 2.55055e+09 2.55126e+09 0
000 154 1 1 2.55879e+09 2.55904e+09 2.56006e+09 2.56167e+09 1
000 155 1 1 2.56915e+09 2.5694e+09 2.57043e+09 2.57094e+09 1
000 156 1 1 2.58526e+09 2.58553e+09 2.58655e+09 2.58657e+09 1
000 157 1 1 2.59439e+09 2.59465e+09 2.59567e+09 2.60074e+09 0
000 158 1 1 2.60809e+09 2.60836e+09 2.60938e+09 2.60941e+09 0
000 159 2 1 2.61904e+09 2.61931e+09 2.62033e+09 2.62058e+09 0
001 160 1 1 2.62739e+09 2.62765e+09 2.62867e+09 2.64612e+09 0
000 161 1 1 2.65388e+09 2.65415e+09 2.65517e+09 2.65582e+09 1
000 162 1 1 2.66366e+09 2.66393e+09 2.66495e+09 2.66922e+09 1
000 163 1 1 2.67862e+09 2.67887e+09 2.67989e+09 2.68002e+09 1
000 164 1 1 2.68736e+09 2.68763e+09 2.68865e+09 2.69061e+09 0
000 165 2 1 2.69794e+09 2.6982e+09 2.69922e+09 2.69936e+09 0
001 166 2 1 2.70787e+09 2.70812e+09 2.70914e+09 2.70923e+09 0
001 167 2 1 2.71375e+09 2.714e+09 2.71502e+09 2.71573e+09 0
001 168 2 1 2.71824e+09 2.71849e+09 2.71951e+09 2.72008e+09 0
001 169 1 1 2.72373e+09 2.72399e+09 2.72501e+09 2.72505e+09 0
000 170 1 1 2.73211e+09 2.73237e+09 2.73339e+09 2.7334e+09 1
000 171 1 0 2.74065e+09 2.74091e+09 2.74193e+09 2.74195e+09 1
001 172 1 0 2.75644e+09 2.7567e+09 2.75772e+09 2.75773e+09 0
001 173 1 1 2.77466e+09 2.77491e+09 2.77593e+09 2.77697e+09 0
000 174 1 1 2.78425e+09 2.7845e+09 2.78552e+09 2.7857e+09 1
000 175 1 1 2.80274e+09 2.80299e+09 2.80401e+09 2.80403e+09 1
000 176 1 1 2.81221e+09 2.81245e+09 2.81347e+09 2.8145e+09 1
000 177 1 0 2.82169e+09 2.82196e+09 2.82298e+09 2.82301e+09 0
001 178 2 1 2.83697e+09 2.83723e+09 2.83825e+09 2.83833e+09 0
001 179 2 1 2.84062e+09 2.84087e+09 2.84189e+09 2.84191e+09 0
001 180 2 1 2.84894e+09 2.84918e+09 2.8502e+09 2.85126e+09 0
001 181 1 1 2.86e+09 2.86025e+09 2.86127e+09 2.8613e+09 0
000 182 1 1 2.87404e+09 2.87429e+09 2.87531e+09 2.87557e+09 1
000 183 1 0 2.88542e+09 2.88567e+09 2.88669e+09 2.8867e+09 1
001 184 2 1 2.89286e+09 2.89312e+09 2.89414e+09 2.89414e+09 0
001 185 2 1 2.89654e+09 2.8968e+09 2.89782e+09 2.89824e+09 0
001 186 1 1 2.90078e+09 2.90104e+09 2.90206e+09 2.90209e+09 0
000 187 1 1 2.90961e+09 2.90987e+09 2.91089e+09 2.91091e+09 1
000 188 1 1 2.92022e+09 2.92046e+09 2.92148e+09 2.92296e+09 1
000 189 1 1 2.93013e+09 2.93038e+09 2.9314e+09 2.93553e+09 1
000 190 1 1 2.94805e+09 2.94831e+09 2.94933e+09 2.95063e+09 0
000 191 2 1 2.95821e+09 2.95846e+09 2.95948e+09 2.95991e+09 0
001 192 2 0 2.97708e+09 2.97733e+09 2.97835e+09 2.99711e+09 0
000 193 2 1 3.00603e+09 3.00629e+09 3.00731e+09 3.0138e+09 1
001 194 2 1 3.02409e+09 3.02434e+09 3.02536e+09 3.02545e+09 0
001 195 2 1 3.02786e+09 3.02813e+09 3.02915e+09 3.03039e+09 0
001 196 1 0 3.03257e+09 3.03282e+09 3.03384e+09 3.0339e+09 0
001 197 2 1 3.03929e+09 3.03956e+09 3.04058e+09 3.04069e+09 0
001 198 1 1 3.04539e+09 3.04565e+09 3.04667e+09 3.05443e+09 0
000 199 1 0 3.06166e+09 3.06191e+09 3.06293e+09 3.06296e+09 1
001 200 1 1 3.06939e+09 3.06966e+09 3.07068e+09 3.07079e+09 0
000 201 1 1 3.08438e+09 3.08464e+09 3.08566e+09 3.0858e+09 1
000 202 1 1 3.09358e+09 3.09383e+09 3.09485e+09 3.09486e+09 1
000 203 1 1 3.10762e+09 3.10787e+09 3.10889e+09 3.11048e+09 1
000 204 1 1 3.11797e+09 3.11823e+09 3.11925e+09 3.12001e+09 0
000 205 2 1 3.1273e+09 3.12756e+09 3.12858e+09 3.12864e+09 0
001 206 1 0 3.13475e+09 3.135e+09 3.13602e+09 3.13617e+09 0
001 207 1 0 3.13908e+09 3.13935e+09 3.14037e+09 3.14605e+09 0
001 208 1 1 3.14824e+09 3.1485e+09 3.14952e+09 3.14966e+09 0
000 209 1 1 3.15842e+09 3.15867e+09 3.15969e+09 3.16087e+09 1
000 210 1 0 3.1683e+09 3.16856e+09 3.16958e+09 3.1696e+09 1
001 211 1 0 3.17211e+09 3.17237e+09 3.17339e+09 3.17341e+09 0
001 212 1 1 3.17912e+09 3.17938e+09 3.1804e+09 3.18151e+09 0
000 213 1 1 3.19297e+09 3.19323e+09 3.19425e+09 3.19499e+09 1
000 214 1 0 3.20224e+09 3.2025e+09 3.20352e+09 3.20553e+09 1
001 215 1 0 3.2156e+09 3.21586e+09 3.21688e+09 3.21697e+09 0
001 216 2 1 3.22696e+09 3.22722e+09 3.22824e+09 3.22826e+09 0
001 217 1 1 3.23749e+09 3.23774e+09 3.23876e+09 3.23939e+09 0
000 218 1 1 3.25031e+09 3.25057e+09 3.25159e+09 3.25164e+09 1
000 219 1 1 3.26718e+09 3.26743e+09 3.26845e+09 3.2732e+09 1
000 220 1 0 3.28035e+09 3.28061e+09 3.28163e+09 3.28449e+09 1
001 221 1 0 3.29728e+09 3.29754e+09 3.29856e+09 3.29857e+09 0
001 222 2 0 3.30534e+09 3.30559e+09 3.30661e+09 3.30662e+09 0
000 223 2 1 3.31715e+09 3.31741e+09 3.31843e+09 3.31932e+09 1
001 224 2 1 3.33447e+09 3.33473e+09 3.33575e+09 3.33578e+09 0
001 225 2 1 3.3422e+09 3.34245e+09 3.34347e+09 3.34452e+09 0
001 226 2 1 3.34985e+09 3.3501e+09 3.35113e+09 3.35126e+09 0
001 227 1 1 3.36464e+09 3.3649e+09 3.36592e+09 3.36628e+09 0
000 228 1 1 3.37663e+09 3.37688e+09 3.3779e+09 3.37792e+09 1
000 229 1 0 3.38502e+09 3.38528e+09 3.3863e+09 3.3864e+09 1
001 230 1 0 3.38982e+09 3.39008e+09 3.3911e+09 3.39151e+09 0
001 231 1 1 3.39961e+09 3.39987e+09 3.40089e+09 3.4009e+09 0
000 232 1 1 3.40801e+09 3.40826e+09 3.40928e+09 3.41032e+09 1
000 233 1 0 3.41745e+09 3.41771e+09 3.41873e+09 3.41955e+09 1
001 234 1 0 3.42367e+09 3.42393e+09 3.42495e+09 3.42496e+09 0
001 235 1 0 3.42739e+09 3.42765e+09 3.42867e+09 3.42971e+09 0
001 236 2 1 3.43669e+09 3.43694e+09 3.43796e+09 3.43799e+09 0
001 237 1 0 3.45324e+09 3.45349e+09 3.45451e+09 3.45452e+09 0
001 238 2 1 3.45777e+09 3.45802e+09 3.45904e+09 3.45957e+09 0
001 239 1 1 3.46625e+09 3.4665e+09 3.46752e+09 3.46793e+09 0
000 240 1 1 3.47523e+09 3.4755e+09 3.47652e+09 3.4766e+09 1
000 241 1 1 3.4883e+09 3.48856e+09 3.48958e+09 3.48977e+09 1
000 242 1 1 3.5021e+09 3.50235e+09 3.50337e+09 3.50505e+09 1
000 243 2 1 3.51622e+09 3.51647e+09 3.51749e+09 3.5175e+09 0
001 244 2 0 3.524e+09 3.52425e+09 3.52527e+09 3.52532e+09 0
000 245 2 0 3.53283e+09 3.53309e+09 3.53411e+09 3.53412e+09 1
000 246 2 1 3.54483e+09 3.54509e+09 3.54611e+09 3.54702e+09 1
001 247 1 1 3.54936e+09 3.5496e+09 3.55062e+09 3.55144e+09 0
000 248 1 0 3.5593e+09 3.55954e+09 3.56056e+09 3.5606e+09 1
001 249 2 1 3.56303e+09 3.56328e+09 3.5643e+09 3.56657e+09 0
001 250 2 1 3.57042e+09 3.57067e+09 3.57169e+09 3.57299e+09 0
001 251 2 1 3.57934e+09 3.5796e+09 3.58062e+09 3.58079e+09 0
001 252 1 1 3.58427e+09 3.58451e+09 3.58554e+09 3.58554e+09 0
000 253 1 1 3.59775e+09 3.598e+09 3.59902e+09 3.60119e+09 1
000 254 1 1 3.61149e+09 3.61174e+09 3.61276e+09 3.61343e+09 1
000 255 1 1 3.62185e+09 3.6221e+09 3.62312e+09 3.62332e+09 1
000 256 1 1 3.63075e+09 3.63102e+09 3.63204e+09 3.63511e+09 0
000 257 1 1 3.64241e+09 3.64266e+09 3.64368e+09 3.64492e+09 0
000 258 2 1 3.65338e+09 3.65363e+09 3.65465e+09 3.65666e+09 0
001 259 1 1 3.65885e+09 3.6591e+09 3.66012e+09 3.66013e+09 0
000 260 1 1 3.669e+09 3.66926e+09 3.67028e+09 3.67363e+09 1
000 261 1 1 3.68166e+09 3.68192e+09 3.68294e+09 3.69744e+09 1
000 262 1 1 3.706e+09 3.70625e+09 3.70727e+09 3.70997e+09 1
000 263 2 0 3.71779e+09 3.71805e+09 3.71907e+09 3.72095e+09 0
000 264 2 1 3.72914e+09 3.72939e+09 3.73041e+09 3.73245e+09 0
001 265 1 1 3.73892e+09 3.73918e+09 3.7402e+09 3.74287e+09 0
000 266 1 1 3.75061e+09 3.75086e+09 3.75188e+09 3.75716e+09 1
000 267 1 1 3.76424e+09 3.76449e+09 3.76551e+09 3.77271e+09 1
000 268 1 1 3.78282e+09 3.78309e+09 3.78411e+09 3.7849e+09 1
000 269 1 1 3.79452e+09 3.7948e+09 3.79582e+09 3.79832e+09 0
000 270 2 1 3.80739e+09 3.80764e+09 3.80866e+09 3.80907e+09 0
001 271 1 1 3.82048e+09 3.82074e+09 3.82176e+09 3.82283e+09 0
000 272 1 1 3.83158e+09 3.83183e+09 3.83285e+09 3.83426e+09 1
000 273 1 1 3.84149e+09 3.84175e+09 3.84277e+09 3.84374e+09 1
000 274 1 1 3.85498e+09 3.85523e+09 3.85625e+09 3.8594e+09 1
000 275 2 1 3.86655e+09 3.86681e+09 3.86783e+09 3.8708e+09 0
001 276 2 1 3.87306e+09 3.87332e+09 3.87434e+09 3.87504e+09 0
001 277 1 0 3.8899e+09 3.89015e+09 3.89117e+09 3.8912e+09 0
001 278 2 1 3.89525e+09 3.89551e+09 3.89653e+09 3.89706e+09 0
001 279 1 1 3.89927e+09 3.89954e+09 3.90056e+09 3.90063e+09 0
000 280 1 1 3.9117e+09 3.91195e+09 3.91297e+09 3.91591e+09 1
000 281 1 1 3.92454e+09 3.92481e+09 3.92583e+09 3.92583e+09 1
000 282 1 1 3.93328e+09 3.93354e+09 3.93456e+09 3.93732e+09 1
000 283 2 1 3.94498e+09 3.94524e+09 3.94626e+09 3.95504e+09 0
001 284 1 1 3.96497e+09 3.96523e+09 3.96625e+09 3.96827e+09 0
000 285 1 1 3.97637e+09 3.97662e+09 3.97764e+09 3.98719e+09 1
000 286 1 1 3.99732e+09 3.99757e+09 3.99859e+09 4.00092e+09 1
000 287 1 1 4.01956e+09 4.01981e+09 4.02083e+09 4.02084e+09 1
000 288 2 1 4.0294e+09 4.02966e+09 4.03068e+09 4.03129e+09 0
001 289 2 1 4.03928e+09 4.03953e+09 4.04055e+09 4.04059e+09 0
001 290 1 1 4.04819e+09 4.04845e+09 4.04948e+09 4.0535e+09 0
000 291 1 1 4.06314e+09 4.06339e+09 4.06441e+09 4.06523e+09 1
000 292 1 1 4.07239e+09 4.07265e+09 4.07367e+09 4.07667e+09 1
000 293 1 1 4.08374e+09 4.08401e+09 4.08503e+09 4.08606e+09 1
000 294 1 1 4.10483e+09 4.10509e+09 4.10611e+09 4.109e+09 0
000 295 2 1 4.11739e+09 4.11765e+09 4.11867e+09 4.1221e+09 0
001 296 1 1 4.13025e+09 4.1305e+09 4.13152e+09 4.1332e+09 0
000 297 1 1 4.14099e+09 4.14125e+09 4.14227e+09 4.14565e+09 1
000 298 1 1 4.15416e+09 4.15441e+09 4.15543e+09 4.15626e+09 1
000 299 1 1 4.16464e+09 4.16489e+09 4.16591e+09 4.16904e+09 1
000 300 1 1 4.17631e+09 4.17656e+09 4.17758e+09 4.18328e+09 0
000 301 2 1 4.19043e+09 4.19068e+09 4.19171e+09 4.19308e+09 0
001 302 2 1 4.20038e+09 4.20064e+09 4.20166e+09 4.20218e+09 0
001 303 2 1 4.20872e+09 4.20897e+09 4.21e+09 4.21041e+09 0
001 304 2 1 4.21361e+09 4.21387e+09 4.21489e+09 4.21854e+09 0
001 305 2 1 4.22933e+09 4.22958e+09 4.2306e+09 4.23367e+09 0
001 306 1 0 4.23931e+09 4.23956e+09 4.24058e+09 4.24098e+09 0
001 307 1 1 4.24387e+09 4.24411e+09 4.24513e+09 4.24524e+09 0
000 308 1 1 4.25389e+09 4.25415e+09 4.25517e+09 4.25856e+09 1
000 309 1 1 4.26561e+09 4.26587e+09 4.26689e+09 4.26689e+09 1
000 310 1 1 4.28044e+09 4.28069e+09 4.28171e+09 4.28176e+09 1
000 311 1 1 4.28941e+09 4.28968e+09 4.2907e+09 681032 0
000 312 1 1 9.1085e+06 9.35899e+06 1.03793e+07 1.04212e+07 0
000 313 2 1 1.79251e+07 1.81745e+07 1.91948e+07 2.61351e+07 0
001 314 1 0 3.06145e+07 3.08725e+07 3.18928e+07 3.1911e+07 0
001 315 2 1 4.3774e+07 4.40261e+07 4.50464e+07 4.54316e+07 0
001 316 1 0 4.92677e+07 4.95265e+07 5.05468e+07 5.06111e+07 0
001 317 1 1 5.87715e+07 5.90376e+07 6.00578e+07 6.00778e+07 0
000 318 1 0 6.8438e+07 6.86927e+07 6.9713e+07 6.97605e+07 1
001 319 2 1 7.33491e+07 7.36053e+07 7.46256e+07 7.46977e+07 0
001 320 2 1 7.78506e+07 7.80968e+07 7.91171e+07 7.94664e+07 0
001 321 2 1 9.34605e+07 9.37108e+07 9.47311e+07 9.71657e+07 0
001 322 1 0 1.01108e+08 1.0136e+08 1.0238e+08 1.03024e+08 0
001 323 2 1 1.05338e+08 1.05608e+08 1.06628e+08 1.06651e+08 0
001 324 1 1 1.11449e+08 1.11704e+08 1.12724e+08 1.12882e+08 0
000 325 1 1 1.20129e+08 1.2038e+08 1.214e+08 1.22249e+08 1
000 326 1 1 1.31988e+08 1.32237e+08 1.33257e+08 1.35918e+08 1
000 327 1 1 1.43693e+08 1.43938e+08 1.44959e+08 1.56272e+08 1
000 328 2 1 1.63565e+08 1.63825e+08 1.64846e+08 1.6987e+08 0
001 329 2 1 1.72698e+08 1.72958e+08 1.73978e+08 1.74003e+08 0
001 330 2 1 1.77474e+08 1.77735e+08 1.78755e+08 1.7897e+08 0
001 331 2 0 1.81313e+08 1.8157e+08 1.8259e+08 1.82596e+08 0
000 332 2 1 1.90171e+08 1.90422e+08 1.91442e+08 2.03459e+08 1
001 333 1 1 2.0599e+08 2.06238e+08 2.07258e+08 2.07405e+08 0
000 334 1 1 2.15268e+08 2.15534e+08 2.16554e+08 2.17636e+08 1
000 335 1 0 2.25028e+08 2.25278e+08 2.26298e+08 2.26359e+08 1
001 336 2 1 2.35712e+08 2.3596e+08 2.3698e+08 2.37026e+08 0
001 337 1 0 2.45666e+08 2.45927e+08 2.46948e+08 2.47036e+08 0
001 338 1 1 2.53788e+08 2.54035e+08 2.55056e+08 2.58597e+08 0
000 339 1 0 2.69209e+08 2.69467e+08 2.70487e+08 2.70497e+08 1
001 340 1 1 2.74334e+08 2.74594e+08 2.75614e+08 2.79161e+08 0
000 341 1 1 2.9611e+08 2.9637e+08 2.97391e+08 3.00515e+08 1
000 342 1 1 3.18318e+08 3.18579e+08 3.19599e+08 3.23136e+08 1
000 343 1 1 3.31355e+08 3.31611e+08 3.32631e+08 3.35215e+08 1
000 344 1 0 3.42359e+08 3.42605e+08 3.43626e+08 3.43657e+08 0
001 345 2 1 3.45951e+08 3.46198e+08 3.47218e+08 3.50015e+08 0
001 346 2 0 3.5243e+08 3.52675e+08 3.53695e+08 3.55166e+08 0
000 347 2 1 3.63179e+08 3.6343e+08 3.64451e+08 3.65447e+08 1
001 348 1 1 3.78419e+08 3.78671e+08 3.79691e+08 3.82865e+08 0
000 349 1 1 3.91305e+08 3.91557e+08 3.92577e+08 3.92676e+08 1
000 350 1 1 4.04126e+08 4.04387e+08 4.05407e+08 4.16098e+08 1
000 351 1 1 4.2325e+08 4.23503e+08 4.24523e+08 4.257e+08 1
000 352 2 1 4.34685e+08 4.34938e+08 4.35958e+08 4.3614e+08 0
001 353 2 1 4.40122e+08 4.40374e+08 4.41394e+08 4.41579e+08 0
001 354 1 1 4.48128e+08 4.48385e+08 4.49405e+08 4.49429e+08 0
000 355 1 1 4.66684e+08 4.66931e+08 4.67951e+08 4.67963e+08 1
000 356 1 1 4.77953e+08 4.78205e+08 4.79225e+08 4.834e+08 1
000 357 1 1 4.95907e+08 4.9616e+08 4.9718e+08 5.01358e+08 1
000 358 2 1 5.08537e+08 5.0879e+08 5.0981e+08 5.09819e+08 0
001 359 1 1 5.21528e+08 5.21778e+08 5.22798e+08 5.25771e+08 0
000 360 1 1 5.3833e+08 5.38587e+08 5.39608e+08 5.47543e+08 1
000 361 1 1 5.55501e+08 5.55757e+08 5.56777e+08 5.59117e+08 1
000 362 1 1 5.66264e+08 5.66526e+08 5.67547e+08 5.70742e+08 1
000 363 1 1 5.79868e+08 5.80126e+08 5.81147e+08 5.85526e+08 0
000 364 2 1 5.96065e+08 5.96316e+08 5.97336e+08 6.02535e+08 0
001 365 1 1 6.06204e+08 6.06463e+08 6.07483e+08 6.16838e+08 0
000 366 1 1 6.25086e+08 6.25348e+08 6.26368e+08 6.26937e+08 1
000 367 1 1 6.34228e+08 6.34486e+08 6.35507e+08 6.3659e+08 1
000 368 1 1 6.45316e+08 6.45575e+08 6.46596e+08 6.46762e+08 1
000 369 2 1 6.64847e+08 6.65112e+08 6.66132e+08 6.744e+08 0
001 370 1 0 6.81581e+08 6.81834e+08 6.82854e+08 6.82906e+08 0
001 371 2 1 6.88534e+08 6.88778e+08 6.89798e+08 6.92781e+08 0
001 372 1 1 6.95315e+08 6.95563e+08 6.96583e+08 6.96977e+08 0
000 373 1 1 7.04257e+08 7.04509e+08 7.05529e+08 7.09083e+08 1
000 374 1 1 7.16492e+08 7.16739e+08 7.17759e+08 7.19963e+08 1
000 375 1 1 7.2715e+08 7.27406e+08 7.28426e+08 7.2854e+08 1
000 376 1 1 7.36102e+08 7.3637e+08 7.3739e+08 7.40231e+08 0
000 377 2 1 7.47734e+08 7.47989e+08 7.4901e+08 7.49362e+08 0
001 378 1 1 7.58978e+08 7.59232e+08 7.60252e+08 7.65553e+08 0
000 379 1 1 7.76811e+08 7.77057e+08 7.78078e+08 7.79249e+08 1
000 380 1 1 7.8656e+08 7.86812e+08 7.87832e+08 7.92463e+08 1
000 381 1 1 8.01529e+08 8.01784e+08 8.02804e+08 8.09606e+08 1
000 382 2 1 8.17436e+08 8.17686e+08 8.18706e+08 8.20389e+08 0
001 383 1 1 8.27975e+08 8.28238e+08 8.29259e+08 8.31123e+08 0
000 384 1 1 8.38793e+08 8.39046e+08 8.40067e+08 8.40129e+08 1
000 385 1 1 8.57648e+08 8.57904e+08 8.58924e+08 8.60914e+08 1
000 386 1 1 8.68723e+08 8.68978e+08 8.69998e+08 8.85071e+08 1
000 387 1 1 8.9958e+08 8.99835e+08 9.00856e+08 9.05681e+08 0
000 388 1 1 9.1298e+08 9.13236e+08 9.14256e+08 9.33973e+08 0
000 389 2 0 9.41474e+08 9.41727e+08 9.42747e+08 9.42808e+08 0
000 390 2 1 9.54295e+08 9.54547e+08 9.55567e+08 9.5865e+08 0
001 391 2 1 9.61607e+08 9.61859e+08 9.6288e+08 9.63135e+08 0
001 392 1 1 9.68251e+08 9.68506e+08 9.69526e+08 9.71869e+08 0
000 393 1 1 9.81635e+08 9.8189e+08 9.82911e+08 1.00321e+09 1
000 394 1 1 1.01122e+09 1.01148e+09 1.0125e+09 1.02155e+09 1
000 395 1 1 1.03049e+09 1.03075e+09 1.03177e+09 1.03479e+09 1
000 396 2 0 1.04652e+09 1.04677e+09 1.04779e+09 1.05282e+09 0
000 397 1 0 1.06104e+09 1.0613e+09 1.06232e+09 1.06335e+09 0
001 398 2 1 1.06869e+09 1.06895e+09 1.06997e+09 1.07704e+09 0
001 399 1 0 1.08479e+09 1.08504e+09 1.08606e+09 1.08616e+09 0
001 400 2 1 1.09575e+09 1.09601e+09 1.09703e+09 1.09705e+09 0
001 401 1 1 1.10525e+09 1.1055e+09 1.10652e+09 1.10798e+09 0
000 402 1 1 1.119e+09 1.11925e+09 1.12027e+09 1.12028e+09 1
000 403 1 1 1.12756e+09 1.12781e+09 1.12883e+09 1.13083e+09 1
000 404 1 1 1.13936e+09 1.13963e+09 1.14065e+09 1.14441e+09 1
000 405 2 1 1.15181e+09 1.15206e+09 1.15308e+09 1.15317e+09 0
001 406 2 1 1.165e+09 1.16525e+09 1.16627e+09 1.1667e+09 0
001 407 1 1 1.17217e+09 1.17242e+09 1.17344e+09 1.17345e+09 0
000 408 1 0 1.19061e+09 1.19086e+09 1.19188e+09 1.19196e+09 1
001 409 2 1 1.20286e+09 1.20312e+09 1.20414e+09 1.2046e+09 0
001 410 2 1 1.21035e+09 1.2106e+09 1.21162e+09 1.21163e+09 0
001 411 2 1 1.21632e+09 1.21658e+09 1.2176e+09 1.21761e+09 0
001 412 1 1 1.22762e+09 1.22787e+09 1.22889e+09 1.22989e+09 0
000 413 1 0 1.23716e+09 1.23741e+09 1.23843e+09 1.23845e+09 1
001 414 1 1 1.24523e+09 1.24547e+09 1.24649e+09 1.24884e+09 0
000 415 1 1 1.26017e+09 1.26042e+09 1.26144e+09 1.26388e+09 1
000 416 1 1 1.27148e+09 1.27174e+09 1.27276e+09 1.2732e+09 1
000 417 1 1 1.28047e+09 1.28073e+09 1.28175e+09 1.28181e+09 1
000 418 2 1 1.29237e+09 1.29263e+09 1.29365e+09 1.29769e+09 0
001 419 1 1 1.30872e+09 1.30897e+09 1.30999e+09 1.31223e+09 0
000 420 1 1 1.3194e+09 1.31966e+09 1.32068e+09 1.32699e+09 1
000 421 1 1 1.33428e+09 1.33452e+09 1.33554e+09 1.34491e+09 1
000 422 1 1 1.35241e+09 1.35266e+09 1.35368e+09 1.35671e+09 1
000 423 1 1 1.36399e+09 1.36425e+09 1.36527e+09 1.38205e+09 0
000 424 1 1 1.38943e+09 1.38967e+09 1.39069e+09 1.39281e+09 0
000 425 2 0 1.40164e+09 1.40189e+09 1.40291e+09 1.40745e+09 0
000 426 1 1 1.41459e+09 1.41485e+09 1.41587e+09 1.41772e+09 0
000 427 2 1 1.42582e+09 1.42607e+09 1.42709e+09 1.42722e+09 0
001 428 2 1 1.43013e+09 1.43039e+09 1.43141e+09 1.43628e+09 0
001 429 1 1 1.44008e+09 1.44035e+09 1.44137e+09 1.4416e+09 0
000 430 1 1 1.44864e+09 1.44889e+09 1.44991e+09 1.46127e+09 1
000 431 1 1 1.46882e+09 1.46908e+09 1.4701e+09 1.47032e+09 1
000 432 1 1 1.47891e+09 1.47917e+09 1.48019e+09 1.4883e+09 1
000 433 2 1 1.49559e+09 1.49584e+09 1.49686e+09 1.50181e+09 0
001 434 1 1 1.50439e+09 1.50465e+09 1.50567e+09 1.50629e+09 0
000 435 1 1 1.51374e+09 1.514e+09 1.51502e+09 1.51745e+09 1
000 436 1 1 1.52808e+09 1.52834e+09 1.52936e+09 1.54089e+09 1
000 437 1 1 1.54809e+09 1.54834e+09 1.54936e+09 1.55088e+09 1
000 438 1 1 1.55839e+09 1.55864e+09 1.55966e+09 1.56221e+09 0
000 439 1 1 1.5706e+09 1.57085e+09 1.57187e+09 1.57966e+09 0
000 440 1 1 1.58677e+09 1.58704e+09 1.58806e+09 1.59647e+09 0
000 441 1 1 1.60357e+09 1.60382e+09 1.60484e+09 1.60952e+09 0
000 442 1 0 1.6182e+09 1.61846e+09 1.61948e+09 1.62225e+09 0
001 443 1 1 1.62869e+09 1.62896e+09 1.62998e+09 1.63206e+09 0
000 444 1 1 1.64183e+09 1.64209e+09 1.64311e+09 1.64414e+09 1
000 445 1 1 1.65231e+09 1.65257e+09 1.65359e+09 1.6612e+09 1
000 446 1 0 1.66924e+09 1.66949e+09 1.67052e+09 1.68032e+09 1
001 447 2 1 1.6847e+09 1.68496e+09 1.68598e+09 1.68628e+09 0
001 448 2 1 1.69023e+09 1.69048e+09 1.6915e+09 1.69164e+09 0
001 449 2 1 1.69599e+09 1.69626e+09 1.69728e+09 1.69769e+09 0
001 450 2 1 1.70189e+09 1.70216e+09 1.70318e+09 1.70325e+09 0
001 451 2 1 1.70603e+09 1.70628e+09 1.7073e+09 1.70738e+09 0
001 452 1 1 1.71493e+09 1.71518e+09 1.7162e+09 1.71926e+09 0
000 453 1 1 1.73019e+09 1.73045e+09 1.73147e+09 1.73244e+09 1
000 454 1 1 1.74385e+09 1.7441e+09 1.74512e+09 1.74652e+09 1
000 455 1 1 1.75384e+09 1.75408e+09 1.7551e+09 1.75678e+09 1
000 456 2 1 1.76733e+09 1.7676e+09 1.76862e+09 1.77159e+09 0
001 457 2 1 1.78093e+09 1.78118e+09 1.7822e+09 1.78252e+09 0
001 458 2 1 1.78494e+09 1.78519e+09 1.78621e+09 1.78823e+09 0
001 459 1 1 1.79233e+09 1.79259e+09 1.79361e+09 1.79742e+09 0
000 460 1 1 1.80803e+09 1.80829e+09 1.80931e+09 1.81076e+09 1
000 461 1 1 1.82411e+09 1.82438e+09 1.8254e+09 1.82801e+09 1
000 462 1 1 1.83588e+09 1.83614e+09 1.83716e+09 1.83856e+09 1
000 463 2 1 1.84626e+09 1.84652e+09 1.84754e+09 1.85063e+09 0
001 464 2 1 1.85301e+09 1.85327e+09 1.85429e+09 1.8545e+09 0
001 465 1 1 1.85753e+09 1.85778e+09 1.8588e+09 1.86114e+09 0
000 466 1 1 1.86831e+09 1.86857e+09 1.86959e+09 1.8701e+09 1
000 467 1 0 1.88286e+09 1.88312e+09 1.88414e+09 1.88433e+09 1
001 468 2 0 1.8884e+09 1.88865e+09 1.88967e+09 1.88971e+09 0
000 469 2 1 1.89969e+09 1.89995e+09 1.90097e+09 1.90134e+09 1
001 470 1 1 1.90379e+09 1.90404e+09 1.90506e+09 1.90508e+09 0
000 471 1 1 1.91385e+09 1.91411e+09 1.91513e+09 1.91682e+09 1
000 472 1 0 1.92387e+09 1.92413e+09 1.92515e+09 1.9252e+09 1
001 473 1 1 1.93498e+09 1.93524e+09 1.93626e+09 1.93893e+09 0
000 474 1 1 1.94915e+09 1.9494e+09 1.95042e+09 1.95402e+09 1
000 475 1 1 1.96323e+09 1.96348e+09 1.96451e+09 1.97057e+09 1
000 476 1 0 1.98586e+09 1.98611e+09 1.98713e+09 1.98714e+09 1
001 477 2 1 2.00211e+09 2.00237e+09 2.00339e+09 2.00362e+09 0
001 478 1 1 2.01006e+09 2.01031e+09 2.01133e+09 2.01553e+09 0
000 479 1 1 2.02295e+09 2.0232e+09 2.02422e+09 2.02571e+09 1
000 480 1 0 2.03486e+09 2.03512e+09 2.03614e+09 2.03625e+09 1
001 481 1 1 2.04589e+09 2.04614e+09 2.04716e+09 2.04731e+09 0
000 482 1 1 2.0552e+09 2.05545e+09 2.05647e+09 2.06892e+09 1
000 483 1 1 2.07946e+09 2.07971e+09 2.08073e+09 2.08233e+09 1
000 484 1 1 2.08979e+09 2.09004e+09 2.09106e+09 2.09267e+09 1
000 485 1 1 2.10002e+09 2.10027e+09 2.10129e+09 2.10191e+09 0
000 486 2 1 2.10929e+09 2.10954e+09 2.11056e+09 2.12481e+09 0
001 487 2 0 2.12953e+09 2.12979e+09 2.13081e+09 2.13084e+09 0
000 488 2 1 2.1387e+09 2.13896e+09 2.13998e+09 2.13999e+09 1
001 489 2 1 2.14284e+09 2.14309e+09 2.14411e+09 2.14419e+09 0
001 490 1 1 2.15703e+09 2.15729e+09 2.15831e+09 2.15922e+09 0
000 491 1 1 2.16719e+09 2.16745e+09 2.16847e+09 2.16857e+09 1
000 492 1 1 2.17649e+09 2.17675e+09 2.17777e+09 2.18308e+09 1
000 493 1 0 2.19159e+09 2.19185e+09 2.19287e+09 2.19288e+09 1
001 494 2 1 2.20225e+09 2.20252e+09 2.20354e+09 2.2086e+09 0
001 495 1 1 2.21486e+09 2.21512e+09 2.21614e+09 2.21663e+09 0
000 496 1 1 2.22906e+09 2.22932e+09 2.23034e+09 2.23136e+09 1
000 497 1 0 2.23976e+09 2.24002e+09 2.24104e+09 2.24133e+09 1
001 498 2 1 2.2453e+09 2.24555e+09 2.24657e+09 2.24684e+09 0
001 499 2 1 2.25051e+09 2.25076e+09 2.25178e+09 2.25179e+09 0
001 500 2 1 2.25437e+09 2.25463e+09 2.25566e+09 2.25953e+09 0
001 501 1 1 2.26302e+09 2.26326e+09 2.26428e+09 2.29406e+09 0
000 502 1 1 2.30122e+09 2.30148e+09 2.3025e+09 2.30303e+09 1
000 503 1 1 2.31045e+09 2.3107e+09 2.31172e+09 2.31281e+09 1
000 504 1 1 2.33007e+09 2.33034e+09 2.33136e+09 2.33326e+09 1
000 505 2 1 2.34363e+09 2.34388e+09 2.3449e+09 2.3512e+09 0
001 506 1 1 2.35638e+09 2.35663e+09 2.35766e+09 2.36405e+09 0
000 507 1 1 2.37125e+09 2.3715e+09 2.37252e+09 2.37362e+09 1
000 508 1 1 2.3807e+09 2.38095e+09 2.38197e+09 2.39884e+09 1
000 509 1 1 2.40685e+09 2.40709e+09 2.40812e+09 2.40817e+09 1
000 510 2 1 2.41671e+09 2.41696e+09 2.41798e+09 2.42249e+09 0
001 511 1 1 2.42602e+09 2.42627e+09 2.42729e+09 2.43375e+09 0
000 512 1 1 2.44583e+09 2.44608e+09 2.4471e+09 2.44832e+09 1
000 513 1 1 2.45549e+09 2.45574e+09 2.45676e+09 2.46442e+09 1
000 514 1 1 2.47182e+09 2.47207e+09 2.47309e+09 2.47473e+09 1
000 515 1 1 2.48814e+09 2.48839e+09 2.48942e+09 2.49252e+09 0
000 516 2 1 2.49967e+09 2.49992e+09 2.50094e+09 2.50703e+09 0
001 517 2 1 2.51103e+09 2.51129e+09 2.51231e+09 2.51246e+09 0
001 518 1 1 2.51987e+09 2.52013e+09 2.52115e+09 2.52204e+09 0
000 519 1 0 2.52931e+09 2.52957e+09 2.53059e+09 2.53636e+09 1
001 520 2 1 2.54024e+09 2.5405e+09 2.54152e+09 2.54183e+09 0
001 521 1 1 2.55002e+09 2.55028e+09 2.5513e+09 2.55271e+09 0
000 522 1 1 2.55978e+09 2.56004e+09 2.56106e+09 2.57004e+09 1
000 523 1 0 2.57751e+09 2.57776e+09 2.57879e+09 2.58372e+09 1
001 524 1 0 2.58772e+09 2.58798e+09 2.589e+09 2.58904e+09 0
001 525 2 1 2.59436e+09 2.59461e+09 2.59563e+09 2.59757e+09 0
001 526 1 1 2.60027e+09 2.60052e+09 2.60154e+09 2.60156e+09 0
000 527 1 1 2.60902e+09 2.60928e+09 2.61031e+09 2.61915e+09 1
000 528 1 1 2.62713e+09 2.62739e+09 2.62841e+09 2.63318e+09 1
000 529 1 1 2.64209e+09 2.64234e+09 2.64336e+09 2.64768e+09 1
000 530 2 1 2.65554e+09 2.6558e+09 2.65682e+09 2.65814e+09 0
001 531 2 1 2.66169e+09 2.66195e+09 2.66297e+09 2.6668e+09 0
001 532 2 1 2.67095e+09 2.6712e+09 2.67222e+09 2.67283e+09 0
001 533 1 1 2.67523e+09 2.6755e+09 2.67652e+09 2.67748e+09 0
000 534 1 1 2.68496e+09 2.68521e+09 2.68623e+09 2.69025e+09 1
000 535 1 1 2.69949e+09 2.69974e+09 2.70076e+09 2.70128e+09 1
000 536 1 1 2.71352e+09 2.71377e+09 2.71479e+09 2.7198e+09 1
000 537 2 1 2.72708e+09 2.72734e+09 2.72836e+09 2.73548e+09 0
001 538 2 1 2.74106e+09 2.74131e+09 2.74233e+09 2.74287e+09 0
001 539 2 1 2.74599e+09 2.74625e+09 2.74727e+09 2.74998e+09 0
001 540 1 1 2.75599e+09 2.75625e+09 2.75727e+09 2.7575e+09 0
000 541 1 1 2.76711e+09 2.76736e+09 2.76839e+09 2.77228e+09 1
000 542 1 1 2.77959e+09 2.77984e+09 2.78086e+09 2.78476e+09 1
000 543 1 1 2.79729e+09 2.79754e+09 2.79856e+09 2.79884e+09 1
000 544 1 1 2.80611e+09 2.80637e+09 2.80739e+09 2.83339e+09 0
000 545 1 0 2.84157e+09 2.84183e+09 2.84285e+09 2.85223e+09 0
001 546 2 1 2.85666e+09 2.85691e+09 2.85793e+09 2.858e+09 0
001 547 2 0 2.86156e+09 2.86182e+09 2.86284e+09 2.8629e+09 0
000 548 2 1 2.87135e+09 2.8716e+09 2.87262e+09 2.87786e+09 1
001 549 2 1 2.88045e+09 2.88071e+09 2.88173e+09 2.88384e+09 0
001 550 1 0 2.88805e+09 2.88832e+09 2.88934e+09 2.88961e+09 0
001 551 1 1 2.89401e+09 2.89426e+09 2.89528e+09 2.89559e+09 0
000 552 1 1 2.90559e+09 2.90584e+09 2.90686e+09 2.91093e+09 1
000 553 1 1 2.92062e+09 2.92088e+09 2.9219e+09 2.9228e+09 1
000 554 1 0 2.93083e+09 2.93107e+09 2.93209e+09 2.93252e+09 1
001 555 2 1 2.9378e+09 2.93805e+09 2.93907e+09 2.93933e+09 0
001 556 1 1 2.94249e+09 2.94274e+09 2.94376e+09 2.94679e+09 0
000 557 1 1 2.9581e+09 2.95835e+09 2.95937e+09 2.96114e+09 1
000 558 1 0 2.9686e+09 2.96884e+09 2.96986e+09 2.97012e+09 1
001 559 2 0 2.97294e+09 2.97319e+09 2.97421e+09 2.97425e+09 0
000 560 2 1 2.98757e+09 2.98781e+09 2.98883e+09 2.99488e+09 1
001 561 1 1 2.99865e+09 2.99889e+09 2.99991e+09 3.00601e+09 0
000 562 1 1 3.01446e+09 3.01472e+09 3.01574e+09 3.02905e+09 1
000 563 1 1 3.03639e+09 3.03665e+09 3.03767e+09 3.04128e+09 1
000 564 1 1 3.04856e+09 3.04881e+09 3.04983e+09 3.05386e+09 1
000 565 1 1 3.06097e+09 3.06122e+09 3.06224e+09 3.06425e+09 0
000 566 1 1 3.07157e+09 3.07183e+09 3.07285e+09 3.07843e+09 0
000 567 2 1 3.09327e+09 3.09351e+09 3.09453e+09 3.0992e+09 0
001 568 1 1 3.10688e+09 3.10714e+09 3.10816e+09 3.11097e+09 0
000 569 1 1 3.11827e+09 3.11853e+09 3.11955e+09 3.12955e+09 1
000 570 1 1 3.13679e+09 3.13705e+09 3.13807e+09 3.1447e+09 1
000 571 1 1 3.15404e+09 3.15429e+09 3.15531e+09 3.15667e+09 1
000 572 1 1 3.16524e+09 3.16548e+09 3.1665e+09 3.1751e+09 0
000 573 1 0 3.19038e+09 3.19063e+09 3.19165e+09 3.19187e+09 0
001 574 2 0 3.19928e+09 3.19954e+09 3.20056e+09 3.20073e+09 0
000 575 2 1 3.20851e+09 3.20877e+09 3.20979e+09 3.21615e+09 1
001 576 2 0 3.22631e+09 3.22656e+09 3.22758e+09 3.23086e+09 0
000 577 2 1 3.23792e+09 3.23817e+09 3.23919e+09 3.30359e+09 1
001 578 1 0 3.306e+09 3.30625e+09 3.30727e+09 3.94608e+09 0
001 