trial trialType response stillTime stimOnset stimOffset respTime correctionTrial correct
001 1 1 8.52891e+06 8.8587e+06 9.87898e+06 5.90339e+07 0
000 002 1 0 6.63306e+07 6.65906e+07 6.76109e+07 1.71082e+08 1
001 003 1 0 1.73409e+08 1.73691e+08 1.74711e+08 1.81805e+08 0
001 004 1 0 1.84207e+08 1.84479e+08 1.855e+08 3.84439e+08 0
001 005 2 1 3.87114e+08 3.87372e+08 3.88392e+08 3.93968e+08 0
001 006 2 0 3.96466e+08 3.96724e+08 3.97744e+08 4.54412e+08 0
000 007 2 0 4.69102e+08 4.69363e+08 4.70383e+08 4.71241e+08 1
000 008 2 1 4.84297e+08 4.84557e+08 4.85577e+08 4.88244e+08 1
001 009 2 0 4.96514e+08 4.96761e+08 4.97781e+08 4.98167e+08 0
000 010 2 1 5.14023e+08 5.14277e+08 5.15298e+08 5.15966e+08 1
001 011 1 1 5.23681e+08 5.23939e+08 5.24959e+08 5.24979e+08 0
000 012 1 0 5.32177e+08 5.32429e+08 5.33449e+08 5.33882e+08 1
001 013 1 1 5.40108e+08 5.40369e+08 5.41389e+08 5.45602e+08 0
000 014 1 1 5.57842e+08 5.581e+08 5.5912e+08 5.5979e+08 1
000 015 1 1 5.83256e+08 5.83507e+08 5.84528e+08 5.84538e+08 1
000 016 1 1 5.92631e+08 5.92883e+08 5.93903e+08 5.93911e+08 1
000 017 2 0 6.03732e+08 6.03991e+08 6.05011e+08 6.051e+08 0
000 018 1 1 6.1389e+08 6.14139e+08 6.15159e+08 6.15387e+08 0
000 019 2 1 6.25028e+08 6.2528e+08 6.263e+08 6.26459e+08 0
001 020 1 1 6.30575e+08 6.30823e+08 6.31844e+08 6.31922e+08 0
000 021 1 1 6.50323e+08 6.5059e+08 6.5161e+08 6.52397e+08 1
000 022 1 1 6.60084e+08 6.60349e+08 6.61369e+08 6.61383e+08 1
000 023 1 1 6.6916e+08 6.69411e+08 6.70432e+08 6.71272e+08 1
000 024 2 1 6.78621e+08 6.78868e+08 6.79888e+08 6.79955e+08 0
001 025 2 1 6.83085e+08 6.83332e+08 6.84352e+08 6.84605e+08 0
001 026 2 0 6.93455e+08 6.93702e+08 6.94722e+08 6.94754e+08 0
000 027 2 0 7.06572e+08 7.06831e+08 7.07852e+08 7.07907e+08 1
000 028 2 0 7.16835e+08 7.17091e+08 7.18111e+08 7.18125e+08 1
000 029 2 0 7.25477e+08 7.25734e+08 7.26754e+08 7.26786e+08 1
000 030 2 1 7.4718e+08 7.47444e+08 7.48465e+08 7.48624e+08 0
001 031 2 0 7.59097e+08 7.59342e+08 7.60363e+08 7.60427e+08 0
000 032 2 1 7.72237e+08 7.72487e+08 7.73508e+08 7.73568e+08 1
001 033 2 0 7.80492e+08 7.80745e+08 7.81765e+08 7.81793e+08 0
000 034 2 1 8.0292e+08 8.03181e+08 8.04202e+08 8.05407e+08 1
001 035 1 1 8.18479e+08 8.18739e+08 8.1976e+08 8.19851e+08 0
000 036 1 1 8.38818e+08 8.3907e+08 8.4009e+08 8.40508e+08 1
000 037 1 1 8.5715e+08 8.57409e+08 8.58429e+08 8.58461e+08 1
000 038 1 1 8.83249e+08 8.83509e+08 8.84529e+08 8.87548e+08 1
000 039 2 0 8.94775e+08 8.95034e+08 8.96054e+08 8.9608e+08 0
000 040 1 1 9.04673e+08 9.0492e+08 9.0594e+08 9.06014e+08 0
000 041 1 1 9.15407e+08 9.15669e+08 9.1669e+08 9.17089e+08 0
000 042 2 1 9.25754e+08 9.26006e+08 9.27026e+08 9.28977e+08 0
001 043 1 1 9.3301e+08 9.33257e+08 9.34277e+08 9.34291e+08 0
000 044 1 1 9.47899e+08 9.48162e+08 9.49182e+08 9.49217e+08 1
000 045 1 1 9.81046e+08 9.81297e+08 9.82317e+08 9.83397e+08 1
000 046 1 1 9.91985e+08 9.92244e+08 9.93264e+08 9.96359e+08 1
000 047 1 1 1.02788e+09 1.02814e+09 1.02916e+09 1.03141e+09 0
000 048 1 1 1.04151e+09 1.04176e+09 1.04278e+09 1.04308e+09 0
000 049 1 1 1.05649e+09 1.05673e+09 1.05776e+09 1.05788e+09 0
000 050 1 0 1.06887e+09 1.06912e+09 1.07014e+09 1.07022e+09 0
001 051 2 1 1.07853e+09 1.07879e+09 1.07981e+09 1.08071e+09 0
001 052 1 0 1.09374e+09 1.09399e+09 1.09501e+09 1.09504e+09 0
001 053 2 1 1.10219e+09 1.10245e+09 1.10347e+09 1.10347e+09 0
001 054 2 0 1.11871e+09 1.11896e+09 1.11998e+09 1.12008e+09 0
000 055 2 1 1.12727e+09 1.12753e+09 1.12855e+09 1.12856e+09 1
001 056 1 1 1.14119e+09 1.14145e+09 1.14247e+09 1.14249e+09 0
000 057 1 1 1.15282e+09 1.15309e+09 1.15411e+09 1.1542e+09 1
000 058 1 1 1.16924e+09 1.16949e+09 1.17051e+09 1.17052e+09 1
000 059 1 1 1.17928e+09 1.17954e+09 1.18056e+09 1.18081e+09 1
000 060 1 1 1.19996e+09 1.20022e+09 1.20124e+09 1.20315e+09 0
000 061 2 1 1.21046e+09 1.21071e+09 1.21173e+09 1.21261e+09 0
001 062 1 0 1.22626e+09 1.22651e+09 1.22753e+09 1.22756e+09 0
001 063 2 1 1.23181e+09 1.23208e+09 1.2331e+09 1.23316e+09 0
001 064 2 0 1.25086e+09 1.25112e+09 1.25214e+09 1.25216e+09 0
000 065 2 1 1.26238e+09 1.26264e+09 1.26366e+09 1.26427e+09 1
001 066 2 0 1.28939e+09 1.28964e+09 1.29066e+09 1.29068e+09 0
000 067 2 1 1.30393e+09 1.30418e+09 1.3052e+09 1.3074e+09 1
001 068 1 1 1.31698e+09 1.31724e+09 1.31826e+09 1.31927e+09 0
000 069 1 1 1.33059e+09 1.33085e+09 1.33187e+09 1.33189e+09 1
000 070 1 0 1.34751e+09 1.34777e+09 1.34879e+09 1.34899e+09 1
001 071 1 0 1.35354e+09 1.35379e+09 1.35481e+09 1.35483e+09 0
001 072 2 1 1.43345e+09 1.43371e+09 1.43473e+09 1.43476e+09 0
001 073 1 0 1.44911e+09 1.44936e+09 1.45038e+09 1.45057e+09 0
001 074 2 0 1.45751e+09 1.45777e+09 1.45879e+09 1.45882e+09 0
000 075 2 1 1.47194e+09 1.4722e+09 1.47322e+09 1.47322e+09 1
001 076 2 1 1.49959e+09 1.49985e+09 1.50087e+09 1.50291e+09 0
001 077 2 0 1.51096e+09 1.5112e+09 1.51223e+09 1.51224e+09 0
000 078 2 0 1.52008e+09 1.52034e+09 1.52136e+09 1.52137e+09 1
000 079 2 0 1.55758e+09 1.55783e+09 1.55885e+09 1.55894e+09 1
000 080 2 1 1.56667e+09 1.56693e+09 1.56795e+09 1.56956e+09 1
001 081 1 0 1.5817e+09 1.58196e+09 1.58298e+09 1.58308e+09 0
001 082 2 1 1.58979e+09 1.59004e+09 1.59106e+09 1.59107e+09 0
001 083 2 0 1.59858e+09 1.59884e+09 1.59986e+09 1.5999e+09 0
000 084 2 1 1.60893e+09 1.60918e+09 1.6102e+09 1.6102e+09 1
001 085 2 1 1.61327e+09 1.61353e+09 1.61455e+09 1.61456e+09 0
001 086 1 0 1.62892e+09 1.62918e+09 1.6302e+09 1.63022e+09 0
001 087 2 0 1.6356e+09 1.63585e+09 1.63687e+09 1.63691e+09 0
000 088 2 1 1.65657e+09 1.65682e+09 1.65784e+09 1.65789e+09 1
001 089 1 1 1.70012e+09 1.70038e+09 1.7014e+09 1.7014e+09 0
000 090 1 0 1.70931e+09 1.70957e+09 1.71059e+09 1.71061e+09 1
001 091 1 1 1.71529e+09 1.71555e+09 1.71657e+09 1.71663e+09 0
000 092 1 1 1.72404e+09 1.72429e+09 1.72531e+09 1.72532e+09 1
000 093 1 1 1.73351e+09 1.73376e+09 1.73478e+09 1.73492e+09 1
000 094 1 0 1.75743e+09 1.75769e+09 1.75871e+09 1.75883e+09 1
001 095 1 1 1.76537e+09 1.76563e+09 1.76665e+09 1.76666e+09 0
000 096 1 1 1.77629e+09 1.77655e+09 1.77757e+09 1.77758e+09 1
000 097 1 1 1.78482e+09 1.78508e+09 1.7861e+09 1.78617e+09 1
000 098 1 1 1.79717e+09 1.79742e+09 1.79844e+09 1.79851e+09 1
000 099 2 1 1.80668e+09 1.80694e+09 1.80796e+09 1.80801e+09 0
001 100 1 1 1.81135e+09 1.8116e+09 1.81262e+09 1.81262e+09 0
000 101 1 1 1.82022e+09 1.82048e+09 1.8215e+09 1.82159e+09 1
000 102 1 1 1.8558e+09 1.85605e+09 1.85707e+09 1.86286e+09 1
000 103 1 1 1.87176e+09 1.87201e+09 1.87303e+09 1.87314e+09 1
000 104 1 0 1.88155e+09 1.88181e+09 1.88283e+09 1.88294e+09 0
001 105 1 0 1.88737e+09 1.88761e+09 1.88863e+09 1.88913e+09 0
001 106 1 1 1.89441e+09 1.89466e+09 1.89568e+09 1.89569e+09 0
000 107 1 1 1.9051e+09 1.90536e+09 1.90638e+09 1.90742e+09 1
000 108 1 0 1.91758e+09 1.91784e+09 1.91886e+09 1.91894e+09 1
001 109 1 1 1.92673e+09 1.92697e+09 1.92799e+09 1.92813e+09 0
000 110 1 0 1.93917e+09 1.93942e+09 1.94044e+09 1.94046e+09 1
001 111 2 0 1.95415e+09 1.95441e+09 1.95543e+09 1.95546e+09 0
000 112 2 1 1.96539e+09 1.96565e+09 1.96667e+09 1.9667e+09 1
001 113 2 0 1.97531e+09 1.97558e+09 1.9766e+09 1.97665e+09 0
000 114 2 1 1.99086e+09 1.9911e+09 1.99212e+09 1.99232e+09 1
001 115 1 0 1.99507e+09 1.99534e+09 1.99636e+09 1.99666e+09 0
001 116 2 1 2.00368e+09 2.00393e+09 2.00495e+09 2.00507e+09 0
001 117 1 1 2.01042e+09 2.01068e+09 2.0117e+09 2.0117e+09 0
000 118 1 1 2.02239e+09 2.02264e+09 2.02366e+09 2.02368e+09 1
000 119 1 1 2.03325e+09 2.03349e+09 2.03451e+09 2.03454e+09 1
000 120 1 0 2.0491e+09 2.04936e+09 2.05038e+09 2.0504e+09 1
001 121 1 1 2.05859e+09 2.05885e+09 2.05987e+09 2.06136e+09 0
000 122 1 0 2.07034e+09 2.0706e+09 2.07162e+09 2.07163e+09 1
001 123 1 0 2.07524e+09 2.07549e+09 2.07651e+09 2.07656e+09 0
001 124 2 1 2.08093e+09 2.08117e+09 2.08219e+09 2.08221e+09 0
001 125 2 0 2.08967e+09 2.08992e+09 2.09094e+09 2.09201e+09 0
000 126 2 0 2.10091e+09 2.10116e+09 2.10218e+09 2.1022e+09 1
000 127 2 1 2.11068e+09 2.11094e+09 2.11196e+09 2.112e+09 1
001 128 2 1 2.11962e+09 2.11987e+09 2.12089e+09 2.12096e+09 0
001 129 1 0 2.13483e+09 2.1351e+09 2.13612e+09 2.13761e+09 0
001 130 2 1 2.16776e+09 2.16802e+09 2.16904e+09 2.16961e+09 0
001 131 1 0 2.17714e+09 2.1774e+09 2.17842e+09 2.17848e+09 0
001 132 2 0 2.18524e+09 2.18548e+09 2.1865e+09 2.18652e+09 0
000 133 2 1 2.19545e+09 2.1957e+09 2.19672e+09 2.19696e+09 1
001 134 2 0 2.20739e+09 2.20764e+09 2.20866e+09 2.2087e+09 0
000 135 2 0 2.21769e+09 2.21794e+09 2.21896e+09 2.21975e+09 1
000 136 2 0 2.23927e+09 2.23953e+09 2.24055e+09 2.24063e+09 1
000 137 2 1 2.25546e+09 2.25571e+09 2.25673e+09 2.25706e+09 1
001 138 1 1 2.26875e+09 2.26901e+09 2.27003e+09 2.27218e+09 0
000 139 1 1 2.28969e+09 2.28995e+09 2.29097e+09 2.29181e+09 1
000 140 1 1 2.30106e+09 2.30131e+09 2.30233e+09 2.30237e+09 1
000 141 1 1 2.30949e+09 2.30973e+09 2.31075e+09 2.31077e+09 1
000 142 1 0 2.31915e+09 2.3194e+09 2.32042e+09 2.32053e+09 0
001 143 1 1 2.33337e+09 2.33364e+09 2.33466e+09 2.33467e+09 0
000 144 1 0 2.34241e+09 2.34267e+09 2.34369e+09 2.34536e+09 1
001 145 1 0 2.34892e+09 2.34917e+09 2.35019e+09 2.3502e+09 0
001 146 2 1 2.36323e+09 2.36349e+09 2.36451e+09 2.36492e+09 0
001 147 1 0 2.37009e+09 2.37035e+09 2.37137e+09 2.37139e+09 0
001 148 2 1 2.38125e+09 2.38151e+09 2.38253e+09 2.38826e+09 0
001 149 1 1 2.39114e+09 2.3914e+09 2.39242e+09 2.39577e+09 0
000 150 1 0 2.40932e+09 2.40958e+09 2.4106e+09 2.41178e+09 1
001 151 1 1 2.42644e+09 2.42669e+09 2.42771e+09 2.42777e+09 0
000 152 1 0 2.43491e+09 2.43516e+09 2.43618e+09 2.43705e+09 1
001 153 2 0 2.45822e+09 2.45847e+09 2.45949e+09 2.45963e+09 0
000 154 2 0 2.46916e+09 2.46942e+09 2.47044e+09 2.47048e+09 1
000 155 2 0 2.47861e+09 2.47887e+09 2.47989e+09 2.47998e+09 1
000 156 2 0 2.48868e+09 2.48894e+09 2.48996e+09 2.49005e+09 1
000 157 2 1 2.50613e+09 2.50639e+09 2.50741e+09 2.50762e+09 0
001 158 2 1 2.53048e+09 2.53073e+09 2.53175e+09 2.53202e+09 0
001 159 2 0 2.54185e+09 2.54212e+09 2.54314e+09 2.54314e+09 0
000 160 2 1 2.55211e+09 2.55238e+09 2.5534e+09 2.55375e+09 1
001 161 2 0 2.56388e+09 2.56414e+09 2.56516e+09 2.56517e+09 0
000 162 2 0 2.57672e+09 2.57697e+09 2.57799e+09 2.57869e+09 1
000 163 2 0 2.59195e+09 2.59221e+09 2.59324e+09 2.59324e+09 1
000 164 2 0 2.612e+09 2.61226e+09 2.61328e+09 2.61376e+09 1
000 165 1 0 2.62489e+09 2.62515e+09 2.62617e+09 2.62623e+09 0
001 166 1 1 2.62847e+09 2.62872e+09 2.62974e+09 2.63025e+09 0
000 167 1 1 2.64487e+09 2.64512e+09 2.64614e+09 2.64617e+09 1
000 168 1 0 2.65396e+09 2.65422e+09 2.65524e+09 2.65524e+09 1
001 169 2 1 2.66079e+09 2.66104e+09 2.66206e+09 2.66209e+09 0
001 170 2 0 2.66662e+09 2.66688e+09 2.6679e+09 2.66793e+09 0
000 171 2 0 2.68609e+09 2.68635e+09 2.68737e+09 2.68739e+09 1
000 172 2 0 2.71387e+09 2.71414e+09 2.71516e+09 2.71555e+09 1
000 173 2 0 2.72732e+09 2.72758e+09 2.7286e+09 2.72887e+09 1
000 174 1 0 2.73627e+09 2.73653e+09 2.73755e+09 2.73791e+09 0
001 175 1 0 2.74373e+09 2.744e+09 2.74502e+09 2.74511e+09 0
001 176 2 0 2.75141e+09 2.75168e+09 2.7527e+09 2.76394e+09 0
000 177 2 0 2.77103e+09 2.77128e+09 2.7723e+09 2.77249e+09 1
000 178 2 0 2.77979e+09 2.78005e+09 2.78108e+09 2.78175e+09 1
000 179 2 0 2.79102e+09 2.79127e+09 2.79229e+09 2.79251e+09 1
000 180 2 1 2.80087e+09 2.80112e+09 2.80214e+09 2.80239e+09 0
001 181 1 1 2.80948e+09 2.80973e+09 2.81075e+09 2.81083e+09 0
000 182 1 0 2.82083e+09 2.82109e+09 2.82211e+09 2.82214e+09 1
001 183 2 0 2.82826e+09 2.82851e+09 2.82953e+09 2.82955e+09 0
000 184 2 1 2.83791e+09 2.83816e+09 2.83918e+09 2.83919e+09 1
001 185 2 0 2.8437e+09 2.84395e+09 2.84497e+09 2.84499e+09 0
000 186 2 0 2.8531e+09 2.85336e+09 2.85438e+09 2.85505e+09 1
000 187 2 1 2.86513e+09 2.86538e+09 2.8664e+09 2.86645e+09 1
001 188 1 0 2.87913e+09 2.87939e+09 2.88041e+09 2.88049e+09 0
001 189 2 0 2.88752e+09 2.88777e+09 2.88879e+09 2.8888e+09 0
000 190 2 1 2.89725e+09 2.89751e+09 2.89853e+09 2.89857e+09 1
001 191 2 0 2.91494e+09 2.9152e+09 2.91622e+09 2.91624e+09 0
000 192 2 1 2.92375e+09 2.924e+09 2.92502e+09 2.92519e+09 1
001 193 1 0 2.94713e+09 2.9474e+09 2.94842e+09 2.94844e+09 0
001 194 1 1 2.95355e+09 2.95382e+09 2.95484e+09 2.95484e+09 0
000 195 1 0 2.97038e+09 2.97063e+09 2.97166e+09 2.97167e+09 1
001 196 1 1 2.97629e+09 2.97656e+09 2.97758e+09 2.97759e+09 0
000 197 1 0 2.98671e+09 2.98697e+09 2.98799e+09 2.98803e+09 1
001 198 1 0 2.99179e+09 2.99205e+09 2.99307e+09 2.99317e+09 0
001 199 2 0 3.00186e+09 3.00213e+09 3.00315e+09 3.00336e+09 0
000 200 2 1 3.01091e+09 3.01116e+09 3.01218e+09 3.0127e+09 1
001 201 1 0 3.01881e+09 3.01907e+09 3.02009e+09 3.02012e+09 0
001 202 2 0 3.0383e+09 3.03855e+09 3.03957e+09 3.0396e+09 0
000 203 2 0 3.0533e+09 3.05356e+09 3.05458e+09 3.0546e+09 1
000 204 2 0 3.06777e+09 3.06803e+09 3.06905e+09 3.06913e+09 1
000 205 2 0 3.07689e+09 3.07714e+09 3.07816e+09 3.07826e+09 1
000 206 1 0 3.08747e+09 3.08772e+09 3.08874e+09 3.08877e+09 0
001 207 2 0 3.11079e+09 3.11106e+09 3.11208e+09 3.11209e+09 0
000 208 2 1 3.12066e+09 3.12091e+09 3.12193e+09 3.1222e+09 1
001 209 2 0 3.13005e+09 3.1303e+09 3.13132e+09 3.13133e+09 0
000 210 2 0 3.14244e+09 3.14271e+09 3.14373e+09 3.14375e+09 1
000 211 2 0 3.15097e+09 3.15124e+09 3.15226e+09 3.15226e+09 1
000 212 2 0 3.16291e+09 3.16318e+09 3.1642e+09 3.16429e+09 1
000 213 2 0 3.17375e+09 3.17402e+09 3.17504e+09 3.17506e+09 0
000 214 2 0 3.18236e+09 3.18262e+09 3.18364e+09 3.18366e+09 0
000 215 2 1 3.20157e+09 3.20182e+09 3.20284e+09 3.203e+09 0
001 216 1 0 3.21709e+09 3.21733e+09 3.21835e+09 3.22005e+09 0
001 217 2 1 3.22764e+09 3.22789e+09 3.22891e+09 3.2311e+09 0
001 218 2 0 3.243e+09 3.24326e+09 3.24428e+09 3.24663e+09 0
000 219 2 0 3.26056e+09 3.26082e+09 3.26184e+09 3.2621e+09 1
000 220 2 1 3.27239e+09 3.27266e+09 3.27368e+09 3.27385e+09 1
001 221 2 0 3.27901e+09 3.27927e+09 3.28029e+09 3.2803e+09 0
000 222 2 0 3.28847e+09 3.28873e+09 3.28975e+09 3.29192e+09 1
000 223 2 0 3.30105e+09 3.30131e+09 3.30233e+09 3.30233e+09 1
000 224 2 0 3.32447e+09 3.32472e+09 3.32574e+09 3.32597e+09 1
000 225 1 0 3.34769e+09 3.34794e+09 3.34896e+09 3.35009e+09 0
001 226 2 0 3.35793e+09 3.35819e+09 3.35921e+09 3.35924e+09 0
000 227 2 0 3.3702e+09 3.37046e+09 3.37148e+09 3.37162e+09 1
000 228 2 1 3.38048e+09 3.38074e+09 3.38176e+09 3.38176e+09 1
001 229 2 1 3.3841e+09 3.38435e+09 3.38537e+09 3.38544e+09 0
001 230 2 1 3.39543e+09 3.39569e+09 3.39671e+09 3.39671e+09 0
001 231 2 0 3.40261e+09 3.40286e+09 3.40388e+09 3.40446e+09 0
000 232 2 1 3.4125e+09 3.41275e+09 3.41377e+09 3.41377e+09 1
001 233 2 0 3.42256e+09 3.42282e+09 3.42384e+09 3.42384e+09 0
000 234 2 0 3.4324e+09 3.43265e+09 3.43367e+09 3.43368e+09 1
000 235 2 0 3.44365e+09 3.44391e+09 3.44493e+09 3.44494e+09 1
000 236 2 0 3.45987e+09 3.46012e+09 3.46114e+09 3.46116e+09 1
000 237 2 1 3.47416e+09 3.47442e+09 3.47544e+09 3.4755e+09 0
001 238 1 1 3.48655e+09 3.48681e+09 3.48783e+09 3.48785e+09 0
000 239 1 1 3.49507e+09 3.49533e+09 3.49635e+09 3.49636e+09 1
000 240 1 0 3.50506e+09 3.50531e+09 3.50633e+09 3.50635e+09 1
001 241 2 0 3.51685e+09 3.51711e+09 3.51813e+09 3.51814e+09 0
000 242 2 0 3.53999e+09 3.54024e+09 3.54126e+09 3.54129e+09 1
000 243 2 0 3.54867e+09 3.54893e+09 3.54995e+09 3.54996e+09 1
000 244 2 1 3.55922e+09 3.55947e+09 3.56049e+09 3.5605e+09 1
001 245 1 1 3.58375e+09 3.58399e+09 3.58501e+09 3.58534e+09 0
000 246 1 0 3.5927e+09 3.59295e+09 3.59397e+09 3.5943e+09 1
001 247 2 1 3.60352e+09 3.60378e+09 3.6048e+09 3.60482e+09 0
001 248 1 0 3.62012e+09 3.62039e+09 3.62141e+09 3.62346e+09 0
001 249 1 0 3.62873e+09 3.62899e+09 3.63001e+09 3.63002e+09 0
001 250 2 1 3.64049e+09 3.64075e+09 3.64177e+09 3.64228e+09 0
001 251 2 0 3.64647e+09 3.64672e+09 3.64774e+09 3.64775e+09 0
000 252 2 1 3.65707e+09 3.65733e+09 3.65835e+09 3.65836e+09 1
001 253 1 1 3.67305e+09 3.67332e+09 3.67434e+09 3.6744e+09 0
000 254 1 0 3.68405e+09 3.68431e+09 3.68533e+09 3.68534e+09 1
001 255 1 0 3.69853e+09 3.69878e+09 3.6998e+09 3.69981e+09 0
001 256 1 1 3.70488e+09 3.70513e+09 3.70615e+09 3.70616e+09 0
000 257 1 0 3.7179e+09 3.71815e+09 3.71917e+09 3.71918e+09 1
001 258 1 0 3.73789e+09 3.73815e+09 3.73917e+09 3.7392e+09 0
001 259 1 1 3.74823e+09 3.7485e+09 3.74952e+09 3.74955e+09 0
000 260 1 1 3.75659e+09 3.75686e+09 3.75788e+09 3.75791e+09 1
000 261 1 0 3.77365e+09 3.7739e+09 3.77493e+09 3.77538e+09 1
001 262 2 1 3.78391e+09 3.78416e+09 3.78518e+09 3.7853e+09 0
001 263 1 1 3.79451e+09 3.79476e+09 3.79578e+09 3.7958e+09 0
000 264 1 0 3.80309e+09 3.80335e+09 3.80437e+09 3.80442e+09 1
001 265 2 1 3.82544e+09 3.8257e+09 3.82672e+09 3.82673e+09 0
001 266 1 0 3.83578e+09 3.83603e+09 3.83705e+09 3.83706e+09 0
001 267 2 0 3.84945e+09 3.8497e+09 3.85072e+09 3.85074e+09 0
000 268 2 0 3.85803e+09 3.85829e+09 3.85931e+09 3.85933e+09 1
000 269 2 0 3.86972e+09 3.86997e+09 3.87099e+09 3.87101e+09 1
000 270 2 0 3.88204e+09 3.88229e+09 3.88331e+09 3.88335e+09 1
000 271 2 0 3.891e+09 3.89126e+09 3.89228e+09 3.89243e+09 0
000 272 1 1 3.89953e+09 3.89978e+09 3.9008e+09 3.90486e+09 0
000 273 2 0 3.92058e+09 3.92083e+09 3.92185e+09 3.92225e+09 0
000 274 1 0 3.93215e+09 3.93242e+09 3.93344e+09 3.93348e+09 0
001 275 1 0 3.9363e+09 3.93655e+09 3.93757e+09 3.93758e+09 0
001 276 2 0 3.94816e+09 3.94841e+09 3.94943e+09 3.94964e+09 0
000 277 2 1 3.95683e+09 3.95709e+09 3.95811e+09 3.95818e+09 1
001 278 2 0 3.96361e+09 3.96386e+09 3.96488e+09 3.96514e+09 0
000 279 2 0 3.97436e+09 3.97461e+09 3.97563e+09 3.97564e+09 1
000 280 2 0 3.98778e+09 3.98804e+09 3.98906e+09 3.99e+09 1
000 281 2 0 4.00091e+09 4.00116e+09 4.00218e+09 4.0022e+09 1
000 282 1 0 4.01e+09 4.01025e+09 4.01127e+09 4.01127e+09 0
001 283 1 0 4.02119e+09 4.02146e+09 4.02248e+09 4.0225e+09 0
001 284 1 0 4.03064e+09 4.0309e+09 4.03192e+09 4.03197e+09 0
001 285 1 0 4.04165e+09 4.0419e+09 4.04292e+09 4.04292e+09 0
001 286 2 0 4.0533e+09 4.05356e+09 4.05458e+09 4.05708e+09 0
000 287 2 0 4.06443e+09 4.06469e+09 4.06571e+09 4.06622e+09 1
000 288 2 0 4.0736e+09 4.07386e+09 4.07488e+09 4.07517e+09 1
000 289 2 1 4.08324e+09 4.0835e+09 4.08453e+09 4.08453e+09 1
001 290 1 0 4.09043e+09 4.09068e+09 4.0917e+09 4.0919e+09 0
001 291 2 0 4.10626e+09 4.10652e+09 4.10754e+09 4.10785e+09 0
000 292 2 0 4.11503e+09 4.11529e+09 4.11631e+09 4.11656e+09 1
000 293 2 0 4.12389e+09 4.12415e+09 4.12517e+09 4.12559e+09 1
000 294 2 0 4.13485e+09 4.1351e+09 4.13612e+09 4.13627e+09 1
000 295 2 0 4.15062e+09 4.15089e+09 4.15191e+09 4.15192e+09 0
000 296 1 0 4.16057e+09 4.16083e+09 4.16185e+09 4.16185e+09 0
001 297 2 0 4.18088e+09 4.18115e+09 4.18217e+09 4.18218e+09 0
000 298 2 0 4.19055e+09 4.1908e+09 4.19182e+09 4.19499e+09 1
000 299 2 0 4.20687e+09 4.20711e+09 4.20813e+09 4.20814e+09 1
000 300 2 0 4.21534e+09 4.21561e+09 4.21663e+09 4.21668e+09 1
000 301 1 0 4.22553e+09 4.2258e+09 4.22682e+09 4.22703e+09 0
001 302 2 1 4.23493e+09 4.23518e+09 4.23621e+09 4.23643e+09 0
001 303 1 0 4.24122e+09 4.24148e+09 4.2425e+09 4.24254e+09 0
001 304 1 1 4.24962e+09 4.24987e+09 4.25089e+09 4.2509e+09 0
000 305 1 0 4.25833e+09 4.25859e+09 4.25961e+09 4.2597e+09 1
001 306 2 1 4.27293e+09 4.27319e+09 4.27421e+09 4.27429e+09 0
001 307 2 0 4.28255e+09 4.2828e+09 4.28382e+09 4.28384e+09 0
000 308 2 1 4.29116e+09 4.29143e+09 4.29245e+09 4.29246e+09 1
001 309 2 0 3.30242e+06 3.56211e+06 4.5824e+06 4.5884e+06 0
000 310 2 1 1.81719e+07 1.84387e+07 1.9459e+07 2.01237e+07 1
001 311 1 0 2.4404e+07 2.46659e+07 2.56862e+07 2.56924e+07 0
001 312 1 1 3.09146e+07 3.11803e+07 3.22006e+07 3.22142e+07 0
000 313 1 0 4.76559e+07 4.79245e+07 4.89448e+07 4.92852e+07 1
001 314 1 1 5.2608e+07 5.286e+07 5.38803e+07 5.38905e+07 0
000 315 1 0 6.11082e+07 6.13563e+07 6.23766e+07 6.26245e+07 1
001 316 2 0 7.46537e+07 7.49003e+07 7.59206e+07 7.59372e+07 0
000 317 2 0 8.33321e+07 8.35849e+07 8.46052e+07 8.46286e+07 1
000 318 2 1 9.65591e+07 9.68136e+07 9.78339e+07 9.87055e+07 1
001 319 2 0 1.16713e+08 1.16977e+08 1.17997e+08 1.18129e+08 0
000 320 2 0 1.26763e+08 1.27017e+08 1.28037e+08 1.28446e+08 1
000 321 2 0 1.41833e+08 1.42096e+08 1.43116e+08 1.46541e+08 1
000 322 2 0 1.53813e+08 1.54074e+08 1.55094e+08 1.5542e+08 1
000 323 1 0 1.62654e+08 1.62914e+08 1.63935e+08 1.64026e+08 0
001 324 2 0 1.81946e+08 1.82194e+08 1.83214e+08 1.83425e+08 0
000 325 2 0 1.95186e+08 1.9545e+08 1.9647e+08 1.98732e+08 1
000 326 2 1 2.06209e+08 2.06468e+08 2.07489e+08 2.07678e+08 1
001 327 1 0 2.14939e+08 2.1519e+08 2.16211e+08 2.16224e+08 0
001 328 1 0 2.23659e+08 2.2392e+08 2.2494e+08 2.24958e+08 0
001 329 1 1 2.34637e+08 2.349e+08 2.3592e+08 2.35932e+08 0
000 330 1 1 2.43061e+08 2.43313e+08 2.44333e+08 2.44342e+08 1
000 331 1 1 2.51742e+08 2.51993e+08 2.53013e+08 2.5302e+08 1
000 332 1 0 2.61585e+08 2.61834e+08 2.62854e+08 2.62869e+08 1
001 333 1 1 2.65411e+08 2.65658e+08 2.66678e+08 2.66698e+08 0
000 334 1 0 2.74405e+08 2.74655e+08 2.75675e+08 2.75747e+08 1
001 335 2 1 2.87572e+08 2.87833e+08 2.88854e+08 2.88861e+08 0
001 336 2 1 2.97025e+08 2.97289e+08 2.9831e+08 2.98409e+08 0
001 337 2 0 3.07651e+08 3.07908e+08 3.08928e+08 3.09509e+08 0
000 338 2 0 3.16999e+08 3.17252e+08 3.18273e+08 3.18335e+08 1
000 339 2 1 3.32904e+08 3.33165e+08 3.34185e+08 3.34218e+08 1
001 340 1 0 3.36846e+08 3.37103e+08 3.38124e+08 3.38143e+08 0
001 341 2 0 3.4601e+08 3.46264e+08 3.47284e+08 3.47291e+08 0
000 342 2 0 3.62564e+08 3.62809e+08 3.63829e+08 3.64179e+08 1
000 343 2 1 3.77459e+08 3.77712e+08 3.78732e+08 3.79864e+08 1
001 344 1 0 3.88165e+08 3.88414e+08 3.89434e+08 3.89438e+08 0
001 345 1 1 3.92159e+08 3.92416e+08 3.93436e+08 3.93478e+08 0
000 346 1 0 4.01127e+08 4.01387e+08 4.02407e+08 4.04822e+08 1
001 347 2 1 4.11423e+08 4.11675e+08 4.12695e+08 4.12712e+08 0
001 348 1 0 4.16308e+08 4.16554e+08 4.17575e+08 4.17633e+08 0
001 349 2 1 4.28684e+08 4.2895e+08 4.2997e+08 4.30192e+08 0
001 350 1 1 4.34598e+08 4.34849e+08 4.35869e+08 4.35914e+08 0
000 351 1 0 4.43942e+08 4.44191e+08 4.45211e+08 4.4528e+08 1
001 352 1 0 4.47859e+08 4.48118e+08 4.49138e+08 4.49753e+08 0
001 353 1 1 4.59677e+08 4.59936e+08 4.60957e+08 4.60961e+08 0
000 354 1 0 4.73556e+08 4.73801e+08 4.74822e+08 4.74868e+08 1
001 355 1 1 4.85492e+08 4.85758e+08 4.86778e+08 4.86899e+08 0
000 356 1 1 4.97102e+08 4.97353e+08 4.98373e+08 4.98381e+08 1
000 357 1 0 5.05766e+08 5.06017e+08 5.07037e+08 5.07048e+08 1
001 358 2 0 5.14152e+08 5.14406e+08 5.15426e+08 5.15434e+08 0
000 359 2 0 5.34532e+08 5.34784e+08 5.35805e+08 5.36361e+08 1
000 360 2 0 5.43464e+08 5.4373e+08 5.4475e+08 5.47584e+08 1
000 361 2 0 5.54685e+08 5.54945e+08 5.55965e+08 5.55982e+08 1
000 362 1 0 5.63188e+08 5.63453e+08 5.64473e+08 5.64747e+08 0
001 363 1 1 5.83043e+08 5.8329e+08 5.8431e+08 5.84339e+08 0
000 364 1 0 5.93277e+08 5.93532e+08 5.94552e+08 5.94558e+08 1
001 365 2 0 6.06874e+08 6.07139e+08 6.0816e+08 6.08213e+08 0
000 366 2 1 6.20888e+08 6.2114e+08 6.2216e+08 6.22633e+08 1
001 367 2 0 6.29875e+08 6.30138e+08 6.31158e+08 6.31237e+08 0
000 368 2 1 6.38531e+08 6.38783e+08 6.39803e+08 6.39811e+08 1
001 369 2 0 6.54109e+08 6.5436e+08 6.5538e+08 6.55515e+08 0
000 370 2 0 6.63773e+08 6.64026e+08 6.65047e+08 6.65094e+08 1
000 371 2 0 6.74227e+08 6.74488e+08 6.75508e+08 6.75516e+08 1
000 372 2 0 6.82767e+08 6.83019e+08 6.84039e+08 6.84051e+08 1
000 373 2 0 6.95603e+08 6.95857e+08 6.96877e+08 6.97107e+08 0
000 374 1 0 7.08135e+08 7.08387e+08 7.09407e+08 7.09454e+08 0
001 375 2 0 7.17685e+08 7.1795e+08 7.1897e+08 7.19076e+08 0
000 376 2 0 7.29772e+08 7.30033e+08 7.31053e+08 7.31245e+08 1
000 377 2 0 7.45567e+08 7.45826e+08 7.46846e+08 7.46852e+08 1
000 378 2 1 7.57687e+08 7.57945e+08 7.58965e+08 7.59825e+08 1
001 379 1 0 7.67526e+08 7.67783e+08 7.68803e+08 7.69144e+08 0
001 380 1 0 7.76436e+08 7.76688e+08 7.77709e+08 7.77979e+08 0
001 381 1 0 7.96325e+08 7.9658e+08 7.976e+08 7.9768e+08 0
001 382 1 0 8.03825e+08 8.04091e+08 8.05111e+08 8.05118e+08 0
001 383 1 1 8.11263e+08 8.11516e+08 8.12536e+08 8.12544e+08 0
000 384 1 0 8.22366e+08 8.22624e+08 8.23644e+08 8.23856e+08 1
001 385 2 0 8.3334e+08 8.33594e+08 8.34614e+08 8.34625e+08 0
000 386 2 0 8.41899e+08 8.42161e+08 8.43181e+08 8.43926e+08 1
000 387 2 1 8.59159e+08 8.59409e+08 8.6043e+08 8.60721e+08 1
001 388 2 0 8.6861e+08 8.68869e+08 8.69889e+08 8.6999e+08 0
000 389 2 1 8.78596e+08 8.7886e+08 8.7988e+08 8.79902e+08 1
001 390 1 1 8.8775e+08 8.88007e+08 8.89028e+08 8.89044e+08 0
000 391 1 0 8.96114e+08 8.96377e+08 8.97398e+08 8.9741e+08 1
001 392 2 0 9.25095e+08 9.25342e+08 9.26362e+08 9.26375e+08 0
000 393 2 0 9.33407e+08 9.33663e+08 9.34684e+08 9.34692e+08 1
000 394 2 0 9.42836e+08 9.43082e+08 9.44103e+08 9.4417e+08 1
000 395 2 0 9.51644e+08 9.51896e+08 9.52917e+08 9.53694e+08 1
000 396 1 0 9.64087e+08 9.64338e+08 9.65359e+08 9.65628e+08 0
001 397 2 0 9.73222e+08 9.73467e+08 9.74487e+08 9.74516e+08 0
000 398 2 0 9.84804e+08 9.85056e+08 9.86076e+08 9.87329e+08 1
000 399 2 1 9.94687e+08 9.94934e+08 9.95954e+08 9.96195e+08 1
001 400 2 0 1.00801e+09 1.00826e+09 1.00928e+09 1.00931e+09 0
000 401 2 0 1.01784e+09 1.01809e+09 1.01912e+09 1.01936e+09 1
000 402 2 0 1.02644e+09 1.0267e+09 1.02772e+09 1.02796e+09 1
000 403 2 1 1.03525e+09 1.03552e+09 1.03654e+09 1.03885e+09 1
001 404 1 0 1.05449e+09 1.05475e+09 1.05577e+09 1.06008e+09 0
001 405 2 0 1.06497e+09 1.06523e+09 1.06625e+09 1.06633e+09 0
000 406 2 0 1.07765e+09 1.0779e+09 1.07892e+09 1.08159e+09 1
000 407 2 1 1.09306e+09 1.09331e+09 1.09433e+09 1.09443e+09 1
001 408 2 0 1.09743e+09 1.09767e+09 1.09869e+09 1.09883e+09 0
000 409 2 0 1.10906e+09 1.10933e+09 1.11035e+09 1.1104e+09 1
000 410 2 1 1.11896e+09 1.11921e+09 1.12023e+09 1.12303e+09 1
001 411 1 1 1.13427e+09 1.13452e+09 1.13554e+09 1.13555e+09 0
000 412 1 0 1.14873e+09 1.14898e+09 1.15e+09 1.15006e+09 1
001 413 1 0 1.16706e+09 1.16732e+09 1.16834e+09 1.17162e+09 0
001 414 1 1 1.17421e+09 1.17447e+09 1.17549e+09 1.17556e+09 0
000 415 1 1 1.18312e+09 1.18338e+09 1.1844e+09 1.18447e+09 1
000 416 1 0 1.19231e+09 1.19256e+09 1.19358e+09 1.19632e+09 1
001 417 2 0 1.21646e+09 1.21673e+09 1.21775e+09 1.21784e+09 0
000 418 2 1 1.227e+09 1.22726e+09 1.22828e+09 1.22832e+09 1
001 419 1 0 1.23185e+09 1.23212e+09 1.23314e+09 1.23316e+09 0
001 420 2 1 1.24529e+09 1.24555e+09 1.24657e+09 1.24658e+09 0
001 421 1 1 1.25318e+09 1.25344e+09 1.25446e+09 1.25473e+09 0
000 422 1 1 1.26221e+09 1.26247e+09 1.26349e+09 1.26355e+09 1
000 423 1 0 1.27077e+09 1.27103e+09 1.27205e+09 1.27205e+09 1
001 424 2 0 1.28328e+09 1.28354e+09 1.28456e+09 1.28481e+09 0
000 425 2 0 1.29564e+09 1.29589e+09 1.29692e+09 1.29696e+09 1
000 426 2 0 1.30627e+09 1.30653e+09 1.30755e+09 1.30765e+09 1
000 427 2 0 1.31565e+09 1.31591e+09 1.31693e+09 1.31749e+09 1
000 428 1 0 1.32607e+09 1.32632e+09 1.32734e+09 1.3275e+09 0
001 429 2 1 1.33492e+09 1.33517e+09 1.33619e+09 1.33642e+09 0
001 430 2 0 1.34361e+09 1.34387e+09 1.34489e+09 1.34491e+09 0
000 431 2 1 1.352e+09 1.35226e+09 1.35328e+09 1.35337e+09 1
001 432 2 0 1.35676e+09 1.35701e+09 1.35803e+09 1.35804e+09 0
000 433 2 1 1.37011e+09 1.37035e+09 1.37137e+09 1.37158e+09 1
001 434 2 0 1.37893e+09 1.37919e+09 1.38021e+09 1.38024e+09 0
000 435 2 0 1.38874e+09 1.38899e+09 1.39001e+09 1.39002e+09 1
000 436 2 0 1.40121e+09 1.40146e+09 1.40248e+09 1.4025e+09 1
000 437 2 0 1.41263e+09 1.41288e+09 1.4139e+09 1.41397e+09 1
000 438 2 0 1.42719e+09 1.42746e+09 1.42848e+09 1.43157e+09 0
000 439 2 0 1.43993e+09 1.4402e+09 1.44122e+09 1.44138e+09 0
000 440 2 0 1.44988e+09 1.45014e+09 1.45116e+09 1.45117e+09 0
000 441 1 0 1.45829e+09 1.45853e+09 1.45955e+09 1.45964e+09 0
001 442 1 0 1.46835e+09 1.46859e+09 1.46962e+09 1.46965e+09 0
001 443 1 1 1.47907e+09 1.47934e+09 1.48036e+09 1.4807e+09 0
000 444 1 0 1.48825e+09 1.48851e+09 1.48953e+09 1.4896e+09 1
001 445 2 1 1.49349e+09 1.49374e+09 1.49476e+09 1.50464e+09 0
001 446 2 0 1.50689e+09 1.50714e+09 1.50816e+09 1.50818e+09 0
000 447 2 0 1.51799e+09 1.51825e+09 1.51927e+09 1.51988e+09 1
000 448 2 0 1.5283e+09 1.52855e+09 1.52957e+09 1.52977e+09 1
000 449 2 0 1.53817e+09 1.53843e+09 1.53945e+09 1.54619e+09 1
000 450 1 0 1.55639e+09 1.55664e+09 1.55766e+09 1.55966e+09 0
001 451 2 1 1.56711e+09 1.56736e+09 1.56838e+09 1.56842e+09 0
001 452 1 0 1.57283e+09 1.57308e+09 1.5741e+09 1.57412e+09 0
001 453 2 0 1.57686e+09 1.57711e+09 1.57813e+09 1.57861e+09 0
000 454 2 0 1.58891e+09 1.58916e+09 1.59018e+09 1.5903e+09 1
000 455 2 0 1.59963e+09 1.59988e+09 1.6009e+09 1.60212e+09 1
000 456 2 0 1.61698e+09 1.61722e+09 1.61824e+09 1.61831e+09 1
000 457 1 0 1.64639e+09 1.64666e+09 1.64768e+09 1.65027e+09 0
001 458 2 1 1.66197e+09 1.66222e+09 1.66324e+09 1.66343e+09 0
001 459 1 0 1.66766e+09 1.66792e+09 1.66894e+09 1.66907e+09 0
001 460 2 0 1.67861e+09 1.67887e+09 1.67989e+09 1.68046e+09 0
000 461 2 1 1.68781e+09 1.68807e+09 1.68909e+09 1.69023e+09 1
001 462 2 0 1.69369e+09 1.69394e+09 1.69496e+09 1.69497e+09 0
000 463 2 0 1.7041e+09 1.70436e+09 1.70538e+09 1.7057e+09 1
000 464 2 0 1.71546e+09 1.71572e+09 1.71674e+09 1.71674e+09 1
000 465 2 0 1.72765e+09 1.72791e+09 1.72893e+09 1.72893e+09 1
000 466 1 0 1.73849e+09 1.73875e+09 1.73977e+09 1.74115e+09 0
001 467 2 1 1.74746e+09 1.74772e+09 1.74874e+09 1.74915e+09 0
001 468 2 1 1.75887e+09 1.75913e+09 1.76015e+09 1.76075e+09 0
001 469 1 0 1.76905e+09 1.7693e+09 1.77032e+09 1.77056e+09 0
001 470 1 0 1.77524e+09 1.7755e+09 1.77652e+09 1.77654e+09 0
001 471 2 0 1.79081e+09 1.79107e+09 1.79209e+09 1.79284e+09 0
000 472 2 0 1.80138e+09 1.80163e+09 1.80265e+09 1.80267e+09 1
000 473 2 0 1.81008e+09 1.81035e+09 1.81137e+09 1.81164e+09 1
000 474 2 0 1.82118e+09 1.82143e+09 1.82245e+09 1.82402e+09 1
000 475 2 0 1.83322e+09 1.83347e+09 1.83449e+09 1.83451e+09 0
000 476 2 0 1.8473e+09 1.84756e+09 1.84858e+09 1.8491e+09 0
000 477 1 0 1.87124e+09 1.87151e+09 1.87253e+09 1.87269e+09 0
001 478 2 0 1.87935e+09 1.8796e+09 1.88062e+09 1.88072e+09 0
000 479 2 0 1.89332e+09 1.89357e+09 1.89459e+09 1.89475e+09 1
000 480 2 0 1.90219e+09 1.90245e+09 1.90347e+09 1.90546e+09 1
000 481 2 0 1.91683e+09 1.91708e+09 1.9181e+09 1.91816e+09 1
000 482 2 1 1.9253e+09 1.92555e+09 1.92657e+09 1.92661e+09 0
001 483 1 0 1.93022e+09 1.93047e+09 1.93149e+09 1.93166e+09 0
001 484 1 1 1.93591e+09 1.93615e+09 1.93717e+09 1.93738e+09 0
000 485 1 0 1.94654e+09 1.94679e+09 1.94781e+09 1.94782e+09 1
001 486 2 0 1.95054e+09 1.9508e+09 1.95182e+09 1.95219e+09 0
000 487 2 0 1.96087e+09 1.96113e+09 1.96215e+09 1.96308e+09 1
000 488 2 0 1.97098e+09 1.97123e+09 1.97225e+09 1.97583e+09 1
000 489 2 0 1.98316e+09 1.98342e+09 1.98444e+09 1.98452e+09 1
000 490 1 0 1.9944e+09 1.99466e+09 1.99568e+09 1.99776e+09 0
001 491 2 0 2.00228e+09 2.00253e+09 2.00355e+09 2.00357e+09 0
000 492 2 0 2.01163e+09 2.01189e+09 2.01291e+09 2.01483e+09 1
000 493 2 0 2.02273e+09 2.02298e+09 2.024e+09 2.02814e+09 1
000 494 2 1 2.03536e+09 2.03562e+09 2.03664e+09 2.03665e+09 1
001 495 2 0 2.04248e+09 2.04272e+09 2.04374e+09 2.04384e+09 0
000 496 2 0 2.05559e+09 2.05585e+09 2.05687e+09 2.05737e+09 1
000 497 2 0 2.06857e+09 2.06881e+09 2.06983e+09 2.07038e+09 1
000 498 2 1 2.07915e+09 2.0794e+09 2.08042e+09 2.08125e+09 1
001 499 1 0 2.08377e+09 2.08402e+09 2.08504e+09 2.08507e+09 0
001 500 2 0 2.09482e+09 2.09508e+09 2.0961e+09 2.09616e+09 0
000 501 2 0 2.10407e+09 2.10433e+09 2.10535e+09 2.11069e+09 1
000 502 2 0 2.12411e+09 2.12437e+09 2.12539e+09 2.12745e+09 1
000 503 2 0 2.13488e+09 2.13513e+09 2.13615e+09 2.13622e+09 1
000 504 1 1 2.14348e+09 2.14373e+09 2.14475e+09 2.14711e+09 0
000 505 1 0 2.15443e+09 2.15469e+09 2.15571e+09 2.15793e+09 0
001 506 1 1 2.16649e+09 2.16673e+09 2.16775e+09 2.1679e+09 0
000 507 1 0 2.17974e+09 2.18e+09 2.18102e+09 2.1813e+09 1
001 508 1 0 2.18403e+09 2.18428e+09 2.1853e+09 2.18622e+09 0
001 509 1 0 2.18984e+09 2.19009e+09 2.19111e+09 2.19113e+09 0
001 510 1 0 2.20232e+09 2.20258e+09 2.2036e+09 2.20658e+09 0
001 511 2 0 2.21418e+09 2.21443e+09 2.21545e+09 2.21598e+09 0
000 512 2 0 2.23243e+09 2.23268e+09 2.2337e+09 2.23419e+09 1
000 513 2 0 2.24271e+09 2.24297e+09 2.24399e+09 2.24414e+09 1
000 514 2 0 2.25239e+09 2.25265e+09 2.25367e+09 2.25436e+09 1
000 515 2 0 2.26168e+09 2.26194e+09 2.26296e+09 2.26324e+09 0
000 516 1 0 2.2704e+09 2.27067e+09 2.27169e+09 2.27941e+09 0
001 517 1 0 2.2856e+09 2.28585e+09 2.28687e+09 2.29013e+09 0
001 518 1 0 2.2969e+09 2.29716e+09 2.29818e+09 2.29837e+09 0
001 519 1 0 2.30742e+09 2.30767e+09 2.30869e+09 2.30904e+09 0
001 520 2 0 2.31797e+09 2.31822e+09 2.31924e+09 2.31956e+09 0
000 521 2 0 2.32688e+09 2.32713e+09 2.32815e+09 2.32915e+09 1
000 522 2 0 2.33839e+09 2.33865e+09 2.33967e+09 2.34043e+09 1
000 523 2 0 2.34791e+09 2.34816e+09 2.34918e+09 2.35075e+09 1
000 524 2 0 2.35843e+09 2.35869e+09 2.35971e+09 2.3606e+09 0
000 525 1 0 2.36773e+09 2.36799e+09 2.36901e+09 2.36903e+09 0
001 526 1 0 2.37861e+09 2.37885e+09 2.37987e+09 2.38288e+09 0
001 527 1 0 2.38659e+09 2.38684e+09 2.38786e+09 2.38794e+09 0
001 528 2 0 2.39266e+09 2.39291e+09 2.39393e+09 2.39397e+09 0
000 529 2 0 2.4011e+09 2.40135e+09 2.40237e+09 2.40272e+09 1
000 530 2 0 2.40992e+09 2.41017e+09 2.41119e+09 2.41158e+09 1
000 531 2 0 2.42074e+09 2.421e+09 2.42202e+09 2.42286e+09 1
000 532 2 0 2.4378e+09 2.43805e+09 2.43907e+09 2.44015e+09 0
000 533 2 0 2.44768e+09 2.44794e+09 2.44896e+09 2.45032e+09 0
000 534 1 0 2.46487e+09 2.46513e+09 2.46615e+09 2.46618e+09 0
001 535 2 0 2.47051e+09 2.47077e+09 2.47179e+09 2.47181e+09 0
000 536 2 0 2.48375e+09 2.484e+09 2.48502e+09 2.48546e+09 1
000 537 2 0 2.49677e+09 2.49702e+09 2.49804e+09 2.49906e+09 1
000 538 2 0 2.5084e+09 2.50866e+09 2.50968e+09 2.51009e+09 1
000 539 1 0 2.52052e+09 2.52078e+09 2.5218e+09 2.52194e+09 0
001 540 1 0 2.52764e+09 2.52789e+09 2.52891e+09 2.52964e+09 0
001 541 1 0 2.54349e+09 2.54373e+09 2.54475e+09 2.54479e+09 0
001 542 2 1 2.55268e+09 2.55292e+09 2.55394e+09 2.55397e+09 0
001 543 2 0 2.56306e+09 2.56332e+09 2.56434e+09 2.56879e+09 0
000 544 2 0 2.576e+09 2.57626e+09 2.57728e+09 2.98453e+09 1
000 