trial trialType response stillTime stimOnset stimOffset respTime correctionTrial correct
001 2 0 1.80132e+07 1.83329e+07 1.93531e+07 2.4317e+07 0 0
002 2 0 4.22564e+07 4.25252e+07 4.35455e+07 4.36134e+07 1 0
003 2 1 5.38983e+07 5.41734e+07 5.51937e+07 5.68728e+07 1 1
004 1 0 8.07189e+07 8.09874e+07 8.20077e+07 8.20917e+07 0 1
005 2 0 9.34247e+07 9.36842e+07 9.47045e+07 9.47193e+07 0 0
006 2 0 1.09937e+08 1.10193e+08 1.11213e+08 1.11231e+08 1 0
007 2 0 1.18315e+08 1.18588e+08 1.19608e+08 1.19679e+08 1 0
008 2 1 1.31456e+08 1.31712e+08 1.32733e+08 1.3277e+08 1 1
009 2 0 1.37708e+08 1.37971e+08 1.38991e+08 1.39724e+08 0 0
010 2 0 1.4698e+08 1.4724e+08 1.4826e+08 1.49389e+08 1 0
011 2 1 1.64704e+08 1.64969e+08 1.65989e+08 1.69009e+08 1 1
012 1 0 1.79071e+08 1.7933e+08 1.8035e+08 1.80366e+08 0 1
013 2 1 1.84394e+08 1.84647e+08 1.85667e+08 1.85711e+08 0 1
014 2 0 1.89207e+08 1.89459e+08 1.90479e+08 1.90528e+08 0 0
015 2 1 2.06607e+08 2.06869e+08 2.0789e+08 2.08018e+08 1 1
016 1 1 2.16441e+08 2.16704e+08 2.17725e+08 2.18735e+08 0 0
017 1 0 2.28498e+08 2.28754e+08 2.29775e+08 2.29794e+08 1 1
018 1 0 2.3817e+08 2.3843e+08 2.39451e+08 2.40738e+08 0 1
019 1 0 2.47281e+08 2.47539e+08 2.48559e+08 2.48846e+08 0 1
020 1 1 2.5151e+08 2.51773e+08 2.52794e+08 2.54205e+08 0 0
021 1 1 2.6355e+08 2.63799e+08 2.64819e+08 2.65261e+08 1 0
022 1 0 2.74795e+08 2.75046e+08 2.76066e+08 2.76181e+08 1 1
023 2 1 2.90008e+08 2.90274e+08 2.91294e+08 2.91668e+08 0 1
024 1 1 3.00103e+08 3.00349e+08 3.0137e+08 3.01452e+08 0 0
025 1 1 3.09957e+08 3.10221e+08 3.11241e+08 3.1125e+08 1 0
026 1 1 3.18912e+08 3.19158e+08 3.20178e+08 3.20864e+08 1 0
027 1 0 3.30271e+08 3.3052e+08 3.3154e+08 3.3171e+08 1 1
028 1 1 3.34554e+08 3.34808e+08 3.35829e+08 3.37029e+08 0 0
029 1 1 3.68472e+08 3.68731e+08 3.69752e+08 3.69767e+08 1 0
030 1 1 3.85375e+08 3.85627e+08 3.86647e+08 3.86829e+08 1 0
031 1 1 4.01272e+08 4.01528e+08 4.02548e+08 4.02944e+08 1 0
032 1 1 4.24431e+08 4.24683e+08 4.25703e+08 4.2634e+08 0 0
033 2 0 4.33667e+08 4.33937e+08 4.34957e+08 4.38373e+08 0 0
034 1 0 4.49613e+08 4.49872e+08 4.50892e+08 4.51137e+08 0 1
035 2 1 4.55856e+08 4.56118e+08 4.57138e+08 4.57249e+08 0 1
036 1 0 4.73142e+08 4.73409e+08 4.7443e+08 4.74473e+08 0 1
037 1 0 4.79686e+08 4.79939e+08 4.8096e+08 4.82028e+08 0 1
038 2 0 4.89191e+08 4.89457e+08 4.90477e+08 4.90512e+08 0 0
039 2 1 5.02502e+08 5.02756e+08 5.03776e+08 5.0448e+08 1 1
040 2 1 5.14298e+08 5.14558e+08 5.15578e+08 5.1559e+08 0 1
041 1 1 5.20696e+08 5.20958e+08 5.21979e+08 5.22e+08 0 0
042 1 0 5.31571e+08 5.31825e+08 5.32845e+08 5.32907e+08 1 1
043 1 1 5.58719e+08 5.5897e+08 5.59991e+08 5.60081e+08 0 0
044 1 0 5.70667e+08 5.70914e+08 5.71934e+08 5.72283e+08 1 1
045 1 0 5.99225e+08 5.99493e+08 6.00513e+08 6.00677e+08 0 1
046 1 1 6.09121e+08 6.09372e+08 6.10393e+08 6.10639e+08 0 0
047 1 0 6.29637e+08 6.29888e+08 6.30908e+08 6.30927e+08 1 1
048 2 0 6.40465e+08 6.40725e+08 6.41745e+08 6.41853e+08 0 0
049 2 0 6.67176e+08 6.67432e+08 6.68453e+08 6.68475e+08 1 0
050 2 0 6.81674e+08 6.81934e+08 6.82955e+08 6.82961e+08 1 0
051 2 1 7.04886e+08 7.05151e+08 7.06171e+08 7.06614e+08 1 1
052 2 1 7.21137e+08 7.21388e+08 7.22408e+08 7.22584e+08 0 1
053 1 0 7.34123e+08 7.3438e+08 7.35401e+08 7.35414e+08 0 1
054 2 1 7.40263e+08 7.40522e+08 7.41542e+08 7.41629e+08 0 1
055 1 0 7.5893e+08 7.59192e+08 7.60212e+08 7.6022e+08 0 1
056 2 0 7.73635e+08 7.73897e+08 7.74917e+08 7.7517e+08 0 0
057 2 0 7.86338e+08 7.86598e+08 7.87618e+08 7.88475e+08 1 0
058 2 1 8.03793e+08 8.04052e+08 8.05072e+08 8.05082e+08 1 1
059 1 1 8.13859e+08 8.14112e+08 8.15132e+08 8.15276e+08 0 0
060 1 0 8.45832e+08 8.46093e+08 8.47114e+08 8.47204e+08 1 1
061 1 1 8.60701e+08 8.60963e+08 8.61983e+08 8.6207e+08 0 0
062 1 0 8.7287e+08 8.73132e+08 8.74152e+08 8.74305e+08 1 1
063 2 0 8.79537e+08 8.79794e+08 8.80814e+08 8.80921e+08 0 0
064 2 1 8.94881e+08 8.95143e+08 8.96163e+08 8.9784e+08 1 1
065 1 1 9.02572e+08 9.0284e+08 9.03861e+08 9.03878e+08 0 0
066 1 1 9.26682e+08 9.26938e+08 9.27958e+08 9.27972e+08 1 0
067 1 1 9.55756e+08 9.56012e+08 9.57032e+08 9.57099e+08 1 0
068 1 1 9.68384e+08 9.68651e+08 9.69671e+08 9.7006e+08 1 0
069 2 1 9.81905e+08 9.82161e+08 9.83182e+08 9.83208e+08 0 1
070 1 0 1.00152e+09 1.00178e+09 1.0028e+09 1.00283e+09 0 1
071 1 1 1.00638e+09 1.00663e+09 1.00765e+09 1.00767e+09 0 0
072 1 0 1.02879e+09 1.02905e+09 1.03007e+09 1.03011e+09 1 1
073 2 0 1.03577e+09 1.03603e+09 1.03705e+09 1.03705e+09 0 0
074 2 1 1.0461e+09 1.04636e+09 1.04738e+09 1.04739e+09 1 1
075 1 0 1.0769e+09 1.07716e+09 1.07818e+09 1.07821e+09 0 1
076 1 1 1.09267e+09 1.09292e+09 1.09394e+09 1.09395e+09 0 0
077 1 0 1.10424e+09 1.10449e+09 1.10551e+09 1.10566e+09 1 1
078 2 1 1.11822e+09 1.11848e+09 1.1195e+09 1.11961e+09 0 1
079 1 1 1.12662e+09 1.12688e+09 1.1279e+09 1.12791e+09 0 0
080 1 1 1.1553e+09 1.15555e+09 1.15657e+09 1.15658e+09 1 0
081 1 1 1.16374e+09 1.16399e+09 1.16501e+09 1.16502e+09 1 0
082 1 0 1.17436e+09 1.17462e+09 1.17564e+09 1.17586e+09 1 1
083 2 0 1.18713e+09 1.18738e+09 1.1884e+09 1.18846e+09 0 0
084 2 1 1.19661e+09 1.19686e+09 1.19788e+09 1.19802e+09 1 1
085 2 0 1.21567e+09 1.21594e+09 1.21696e+09 1.21697e+09 0 0
086 2 0 1.23297e+09 1.23324e+09 1.23426e+09 1.2343e+09 1 0
087 2 1 1.24634e+09 1.24659e+09 1.24761e+09 1.24762e+09 1 1
088 1 0 1.26718e+09 1.26743e+09 1.26845e+09 1.26857e+09 0 1
089 1 1 1.29202e+09 1.29227e+09 1.29329e+09 1.2933e+09 0 0
090 1 0 1.30271e+09 1.30297e+09 1.30399e+09 1.30436e+09 1 1
091 1 0 1.31812e+09 1.31837e+09 1.31939e+09 1.3194e+09 0 1
092 2 0 1.32588e+09 1.32614e+09 1.32716e+09 1.32718e+09 0 0
093 2 1 1.34182e+09 1.34209e+09 1.34311e+09 1.34348e+09 1 1
094 1 1 1.36496e+09 1.36521e+09 1.36623e+09 1.36625e+09 0 0
095 1 1 1.37773e+09 1.37798e+09 1.379e+09 1.37903e+09 1 0
096 1 0 1.38768e+09 1.38793e+09 1.38895e+09 1.38902e+09 1 1
097 2 1 1.41154e+09 1.4118e+09 1.41282e+09 1.4129e+09 0 1
098 2 0 1.43222e+09 1.43248e+09 1.4335e+09 1.43361e+09 0 0
099 2 1 1.44273e+09 1.44298e+09 1.444e+09 1.44402e+09 1 1
100 2 0 1.45546e+09 1.45572e+09 1.45674e+09 1.45697e+09 0 0
101 2 1 1.46953e+09 1.46979e+09 1.47082e+09 1.47143e+09 1 1
102 1 1 1.48375e+09 1.48401e+09 1.48503e+09 1.48507e+09 0 0
103 1 1 1.49641e+09 1.49667e+09 1.49769e+09 1.4977e+09 1 0
104 1 1 1.51464e+09 1.51491e+09 1.51593e+09 1.516e+09 1 0
105 1 0 1.5271e+09 1.52736e+09 1.52838e+09 1.52855e+09 1 1
106 1 1 1.54044e+09 1.5407e+09 1.54172e+09 1.54182e+09 0 0
107 1 1 1.54973e+09 1.54999e+09 1.55101e+09 1.55104e+09 1 0
108 1 1 1.55981e+09 1.56008e+09 1.5611e+09 1.56111e+09 1 0
109 1 1 1.56999e+09 1.57024e+09 1.57126e+09 1.57149e+09 1 0
110 1 0 1.59027e+09 1.59053e+09 1.59155e+09 1.59157e+09 0 1
111 2 1 1.59566e+09 1.59591e+09 1.59693e+09 1.59695e+09 0 1
112 2 0 1.61166e+09 1.61192e+09 1.61294e+09 1.61768e+09 0 0
113 2 0 1.62502e+09 1.62526e+09 1.62628e+09 1.62629e+09 1 0
114 2 1 1.6335e+09 1.63376e+09 1.63478e+09 1.6348e+09 1 1
115 1 1 1.6421e+09 1.64236e+09 1.64338e+09 1.64341e+09 0 0
116 1 1 1.65261e+09 1.65287e+09 1.65389e+09 1.65395e+09 1 0
117 1 0 1.66241e+09 1.66267e+09 1.66369e+09 1.66371e+09 1 1
118 2 1 1.66795e+09 1.66821e+09 1.66923e+09 1.66928e+09 0 1
119 1 1 1.70501e+09 1.70528e+09 1.7063e+09 1.70633e+09 0 0
120 1 1 1.71574e+09 1.71601e+09 1.71703e+09 1.71711e+09 1 0
121 1 0 1.73544e+09 1.73569e+09 1.73671e+09 1.73691e+09 1 1
122 2 1 1.74227e+09 1.74253e+09 1.74355e+09 1.74358e+09 0 1
123 1 1 1.75155e+09 1.7518e+09 1.75282e+09 1.75283e+09 0 0
124 1 1 1.76568e+09 1.76593e+09 1.76695e+09 1.76697e+09 1 0
125 1 1 1.78048e+09 1.78074e+09 1.78176e+09 1.78179e+09 1 0
126 1 1 1.79651e+09 1.79676e+09 1.79778e+09 1.79839e+09 1 0
127 2 0 1.80558e+09 1.80585e+09 1.80687e+09 1.80688e+09 0 0
128 2 1 1.8155e+09 1.81576e+09 1.81678e+09 1.81697e+09 0 1
129 2 1 1.82052e+09 1.82078e+09 1.8218e+09 1.82182e+09 0 1
130 1 0 1.84227e+09 1.84253e+09 1.84355e+09 1.84356e+09 0 1
131 1 0 1.87136e+09 1.87161e+09 1.87263e+09 1.87273e+09 0 1
132 2 0 1.87797e+09 1.87822e+09 1.87924e+09 1.88119e+09 0 0
133 2 1 1.88936e+09 1.88962e+09 1.89064e+09 1.8923e+09 1 1
134 2 1 1.90635e+09 1.90661e+09 1.90763e+09 1.90765e+09 0 1
135 2 1 1.94211e+09 1.94237e+09 1.9434e+09 1.94343e+09 0 1
136 2 0 1.95396e+09 1.95422e+09 1.95524e+09 1.95529e+09 0 0
137 2 0 1.96416e+09 1.96443e+09 1.96545e+09 1.96546e+09 1 0
138 2 0 1.97906e+09 1.97932e+09 1.98034e+09 1.98039e+09 1 0
139 2 1 1.98951e+09 1.98976e+09 1.99078e+09 1.99091e+09 1 1
140 2 1 2.04303e+09 2.04328e+09 2.0443e+09 2.04431e+09 0 1
141 1 1 2.05473e+09 2.05499e+09 2.05601e+09 2.05602e+09 0 0
142 1 1 2.0717e+09 2.07196e+09 2.07298e+09 2.073e+09 1 0
143 1 0 2.08028e+09 2.08054e+09 2.08156e+09 2.08161e+09 1 1
144 1 1 2.08688e+09 2.08713e+09 2.08815e+09 2.08831e+09 0 0
145 1 1 2.1054e+09 2.10566e+09 2.10668e+09 2.10669e+09 1 0
146 1 1 2.11505e+09 2.11531e+09 2.11633e+09 2.11636e+09 1 0
147 1 1 2.12766e+09 2.12792e+09 2.12894e+09 2.12908e+09 1 0
148 2 0 2.13709e+09 2.13735e+09 2.13837e+09 2.13893e+09 0 0
149 1 1 2.15188e+09 2.15214e+09 2.15316e+09 2.15317e+09 0 0
150 1 0 2.16204e+09 2.16231e+09 2.16333e+09 2.16335e+09 0 1
151 2 0 2.1755e+09 2.17577e+09 2.17679e+09 2.1768e+09 0 0
152 2 1 2.18613e+09 2.18639e+09 2.18741e+09 2.18773e+09 1 1
153 1 1 2.19332e+09 2.19358e+09 2.1946e+09 2.20262e+09 0 0
154 1 1 2.20997e+09 2.21024e+09 2.21126e+09 2.21128e+09 1 0
155 1 0 2.22297e+09 2.22324e+09 2.22426e+09 2.22427e+09 1 1
156 2 1 2.2321e+09 2.23237e+09 2.23339e+09 2.2334e+09 0 1
157 1 1 2.23868e+09 2.23895e+09 2.23997e+09 2.2402e+09 0 0
158 1 1 2.24805e+09 2.2483e+09 2.24932e+09 2.24934e+09 1 0
159 1 0 2.26184e+09 2.2621e+09 2.26312e+09 2.26319e+09 1 1
160 1 1 2.27084e+09 2.2711e+09 2.27212e+09 2.27217e+09 0 0
161 1 0 2.29035e+09 2.2906e+09 2.29162e+09 2.29164e+09 1 1
162 2 0 2.29716e+09 2.29742e+09 2.29844e+09 2.31803e+09 0 0
163 2 1 2.32568e+09 2.32595e+09 2.32697e+09 2.3291e+09 1 1
164 1 0 2.33515e+09 2.3354e+09 2.33643e+09 2.33997e+09 0 1
165 2 1 2.34788e+09 2.34813e+09 2.34916e+09 2.35148e+09 0 1
166 2 1 2.35942e+09 2.35968e+09 2.3607e+09 2.36174e+09 0 1
167 1 1 2.3654e+09 2.36565e+09 2.36668e+09 2.36703e+09 0 0
168 1 1 2.37768e+09 2.37794e+09 2.37896e+09 2.37965e+09 1 0
169 1 0 2.38841e+09 2.38866e+09 2.38968e+09 2.39038e+09 1 1
170 1 0 2.39333e+09 2.39358e+09 2.3946e+09 2.39788e+09 0 1
171 2 0 2.40246e+09 2.40272e+09 2.40374e+09 2.41042e+09 0 0
172 2 0 2.42299e+09 2.42325e+09 2.42427e+09 2.42966e+09 1 0
173 2 1 2.43953e+09 2.43978e+09 2.4408e+09 2.44084e+09 1 1
174 2 1 2.44697e+09 2.44723e+09 2.44825e+09 2.451e+09 0 1
175 2 0 2.45668e+09 2.45694e+09 2.45796e+09 2.4612e+09 0 0
176 2 0 2.46833e+09 2.46859e+09 2.46961e+09 2.46963e+09 1 0
177 2 1 2.48805e+09 2.4883e+09 2.48932e+09 2.48934e+09 1 1
178 1 1 2.49209e+09 2.49236e+09 2.49338e+09 2.49339e+09 0 0
179 1 1 2.50071e+09 2.50096e+09 2.50198e+09 2.50212e+09 1 0
180 1 0 2.5182e+09 2.51846e+09 2.51948e+09 2.51949e+09 1 1
181 2 1 2.52947e+09 2.52974e+09 2.53076e+09 2.53081e+09 0 1
182 2 1 2.53488e+09 2.53515e+09 2.53617e+09 2.54586e+09 0 1
183 2 1 2.55043e+09 2.55068e+09 2.5517e+09 2.55171e+09 0 1
184 2 0 2.57418e+09 2.57444e+09 2.57546e+09 2.57547e+09 0 0
185 2 1 2.58305e+09 2.5833e+09 2.58433e+09 2.58467e+09 1 1
186 1 0 2.59058e+09 2.59084e+09 2.59186e+09 2.59196e+09 0 1
187 2 1 2.59497e+09 2.59522e+09 2.59624e+09 2.59643e+09 0 1
188 1 0 2.6029e+09 2.60316e+09 2.60418e+09 2.6084e+09 0 1
189 1 0 2.61122e+09 2.61148e+09 2.6125e+09 2.6132e+09 0 1
190 1 1 2.6163e+09 2.61655e+09 2.61757e+09 2.63028e+09 0 0
191 1 1 2.64106e+09 2.64132e+09 2.64234e+09 2.64235e+09 1 0
192 1 1 2.67043e+09 2.67068e+09 2.6717e+09 2.67173e+09 1 0
193 1 1 2.67899e+09 2.67925e+09 2.68027e+09 2.68089e+09 1 0
194 2 1 2.69259e+09 2.69285e+09 2.69387e+09 2.69388e+09 0 1
195 1 1 2.69843e+09 2.69869e+09 2.69971e+09 2.69976e+09 0 0
196 1 1 2.70683e+09 2.70709e+09 2.70811e+09 2.70875e+09 1 0
197 1 1 2.7362e+09 2.73646e+09 2.73748e+09 2.7376e+09 1 0
198 1 0 2.74611e+09 2.74637e+09 2.74739e+09 2.74741e+09 1 1
199 1 1 2.75049e+09 2.75075e+09 2.75177e+09 2.75193e+09 0 0
200 1 1 2.76025e+09 2.7605e+09 2.76152e+09 2.76481e+09 1 0
201 1 1 2.77304e+09 2.77329e+09 2.77431e+09 2.77486e+09 1 0
202 1 1 2.78501e+09 2.78526e+09 2.78628e+09 2.78631e+09 1 0
203 1 1 2.79391e+09 2.79418e+09 2.7952e+09 2.7958e+09 0 0
204 2 1 2.80329e+09 2.80355e+09 2.80457e+09 2.80465e+09 0 1
205 2 0 2.81e+09 2.81027e+09 2.81129e+09 2.81133e+09 0 0
206 2 1 2.81895e+09 2.81921e+09 2.82023e+09 2.8203e+09 1 1
207 2 0 2.8321e+09 2.83236e+09 2.83338e+09 2.83401e+09 0 0
208 2 0 2.84325e+09 2.8435e+09 2.84453e+09 2.84454e+09 1 0
209 2 0 2.85254e+09 2.8528e+09 2.85383e+09 2.85384e+09 1 0
210 2 0 2.86128e+09 2.86154e+09 2.86256e+09 2.86264e+09 1 0
211 2 1 2.87121e+09 2.87146e+09 2.87248e+09 2.87293e+09 0 1
212 1 1 2.87602e+09 2.87629e+09 2.87731e+09 2.87732e+09 0 0
213 1 0 2.89992e+09 2.90018e+09 2.9012e+09 2.90126e+09 1 1
214 1 1 2.90766e+09 2.90792e+09 2.90894e+09 2.90895e+09 0 0
215 1 1 2.91862e+09 2.91887e+09 2.91989e+09 2.92002e+09 1 0
216 1 1 2.93482e+09 2.93507e+09 2.93609e+09 2.93613e+09 1 0
217 1 1 2.94483e+09 2.94509e+09 2.94611e+09 2.94612e+09 1 0
218 1 0 2.96631e+09 2.96657e+09 2.96759e+09 2.96759e+09 0 1
219 2 1 2.9816e+09 2.98185e+09 2.98287e+09 2.98823e+09 0 1
220 2 0 2.99881e+09 2.99908e+09 3.0001e+09 3.00246e+09 0 0
221 2 1 3.00984e+09 3.01009e+09 3.01111e+09 3.0125e+09 1 1
222 2 0 3.01614e+09 3.0164e+09 3.01742e+09 3.01746e+09 0 0
223 2 1 3.03151e+09 3.03177e+09 3.03279e+09 3.0335e+09 1 1
224 2 1 3.04149e+09 3.04176e+09 3.04278e+09 3.04281e+09 0 1
225 2 1 3.04739e+09 3.04764e+09 3.04866e+09 3.04906e+09 0 1
226 1 0 3.05443e+09 3.05469e+09 3.05571e+09 3.05574e+09 0 1
227 2 0 3.05978e+09 3.06005e+09 3.06107e+09 3.06115e+09 0 0
228 2 0 3.06894e+09 3.0692e+09 3.07022e+09 3.07031e+09 1 0
229 2 0 3.0774e+09 3.07766e+09 3.07868e+09 3.07871e+09 1 0
230 2 0 3.08617e+09 3.08643e+09 3.08745e+09 3.08771e+09 1 0
231 1 1 3.10258e+09 3.10283e+09 3.10385e+09 3.10391e+09 0 0
232 2 1 3.11105e+09 3.11131e+09 3.11233e+09 3.11235e+09 0 1
233 2 0 3.11596e+09 3.11623e+09 3.11725e+09 3.11727e+09 0 0
234 2 0 3.12585e+09 3.1261e+09 3.12712e+09 3.12713e+09 1 0
235 2 0 3.13649e+09 3.13674e+09 3.13776e+09 3.13799e+09 1 0
236 2 1 3.14902e+09 3.14927e+09 3.15029e+09 3.15033e+09 1 1
237 1 1 3.17848e+09 3.17874e+09 3.17976e+09 3.18113e+09 0 0
238 1 1 3.18818e+09 3.18845e+09 3.18947e+09 3.18949e+09 1 0
239 1 1 3.1991e+09 3.19936e+09 3.20038e+09 3.2004e+09 1 0
240 1 1 3.21589e+09 3.21616e+09 3.21718e+09 3.21723e+09 1 0
241 2 1 3.2265e+09 3.22675e+09 3.22777e+09 3.22825e+09 0 1
242 2 1 3.23744e+09 3.23769e+09 3.23871e+09 3.23893e+09 0 1
243 2 1 3.246e+09 3.24626e+09 3.24728e+09 3.24736e+09 0 1
244 1 1 3.25178e+09 3.25203e+09 3.25305e+09 3.25315e+09 0 0
245 1 1 3.26805e+09 3.2683e+09 3.26932e+09 3.26948e+09 1 0
246 1 1 3.27769e+09 3.27796e+09 3.27898e+09 3.27948e+09 1 0
247 1 1 3.28868e+09 3.28894e+09 3.28996e+09 3.29105e+09 1 0
248 2 1 3.29912e+09 3.29937e+09 3.3004e+09 3.30052e+09 0 1
249 2 1 3.31529e+09 3.31554e+09 3.31656e+09 3.32867e+09 0 1
250 1 1 3.34677e+09 3.34702e+09 3.34804e+09 3.3491e+09 0 0
251 1 1 3.35991e+09 3.36019e+09 3.36121e+09 3.36122e+09 1 0
252 1 1 3.36923e+09 3.36949e+09 3.37051e+09 3.37052e+09 1 0
253 1 1 3.38166e+09 3.38193e+09 3.38295e+09 3.38296e+09 1 0
254 1 1 3.39929e+09 3.39955e+09 3.40057e+09 3.40093e+09 0 0
255 2 1 3.41538e+09 3.41563e+09 3.41665e+09 3.41693e+09 0 1
256 1 0 3.42177e+09 3.42203e+09 3.42305e+09 3.42307e+09 0 1
257 2 1 3.42626e+09 3.42652e+09 3.42755e+09 3.42953e+09 0 1
258 1 1 3.4457e+09 3.44596e+09 3.44698e+09 3.4471e+09 0 0
259 1 0 3.45837e+09 3.45863e+09 3.45965e+09 3.45967e+09 1 1
260 1 0 3.46311e+09 3.46337e+09 3.46439e+09 3.46445e+09 0 1
261 2 0 3.46863e+09 3.46889e+09 3.46991e+09 3.47011e+09 0 0
262 2 1 3.47985e+09 3.48011e+09 3.48113e+09 3.48192e+09 1 1
263 2 0 3.48579e+09 3.48604e+09 3.48706e+09 3.48716e+09 0 0
264 2 0 3.49609e+09 3.49636e+09 3.49738e+09 3.50308e+09 1 0
265 2 1 3.51166e+09 3.51192e+09 3.51294e+09 3.51567e+09 1 1
266 1 1 3.5186e+09 3.51885e+09 3.51987e+09 3.52045e+09 0 0
267 1 0 3.52946e+09 3.52971e+09 3.53073e+09 3.53076e+09 1 1
268 1 0 3.53541e+09 3.53567e+09 3.53669e+09 3.53695e+09 0 1
269 1 1 3.54199e+09 3.54226e+09 3.54328e+09 3.54347e+09 0 0
270 1 1 3.55147e+09 3.55172e+09 3.55274e+09 3.55287e+09 1 0
271 1 1 3.56022e+09 3.56048e+09 3.5615e+09 3.56152e+09 1 0
272 1 1 3.57027e+09 3.57052e+09 3.57154e+09 3.57157e+09 1 0
273 1 1 3.58527e+09 3.58553e+09 3.58655e+09 3.58679e+09 0 0
274 2 1 3.59479e+09 3.59506e+09 3.59608e+09 3.59626e+09 0 1
275 1 1 3.60177e+09 3.60202e+09 3.60304e+09 3.60305e+09 0 0
276 1 1 3.61017e+09 3.61044e+09 3.61146e+09 3.61194e+09 1 0
277 1 1 3.61913e+09 3.61939e+09 3.62041e+09 3.62043e+09 1 0
278 1 1 3.63769e+09 3.63794e+09 3.63896e+09 3.64049e+09 1 0
279 1 1 3.64761e+09 3.64788e+09 3.6489e+09 3.65204e+09 0 0
280 2 1 3.66357e+09 3.66383e+09 3.66485e+09 3.66835e+09 0 1
281 2 1 3.67799e+09 3.67824e+09 3.67926e+09 3.68501e+09 0 1
282 2 1 3.68886e+09 3.68911e+09 3.69013e+09 3.69055e+09 0 1
283 1 1 3.70045e+09 3.7007e+09 3.70172e+09 3.70208e+09 0 0
284 1 1 3.71063e+09 3.71089e+09 3.71191e+09 3.71471e+09 1 0
285 1 1 3.72231e+09 3.72257e+09 3.72359e+09 3.724e+09 1 0
286 1 0 3.75261e+09 3.75287e+09 3.75389e+09 3.75406e+09 1 1
287 2 1 3.76522e+09 3.76547e+09 3.76649e+09 3.77044e+09 0 1
288 1 0 3.77317e+09 3.77343e+09 3.77445e+09 3.77465e+09 0 1
289 1 1 3.77986e+09 3.78011e+09 3.78113e+09 3.78121e+09 0 0
290 1 1 3.78928e+09 3.78953e+09 3.79055e+09 3.79058e+09 1 0
291 1 1 3.79782e+09 3.79809e+09 3.79911e+09 3.79912e+09 1 0
292 1 1 3.80977e+09 3.81003e+09 3.81105e+09 3.81137e+09 1 0
293 2 1 3.81985e+09 3.82011e+09 3.82113e+09 3.82209e+09 0 1
294 2 0 3.84047e+09 3.84072e+09 3.84174e+09 3.86252e+09 0 0
295 2 1 3.87354e+09 3.87379e+09 3.87481e+09 3.87483e+09 1 1
296 2 0 3.88047e+09 3.88073e+09 3.88175e+09 3.88445e+09 0 0
297 2 0 3.89435e+09 3.89459e+09 3.89561e+09 3.89566e+09 1 0
298 2 1 3.90403e+09 3.90428e+09 3.9053e+09 3.90531e+09 1 1
299 2 1 3.91347e+09 3.91373e+09 3.91475e+09 3.92163e+09 0 1
300 2 1 3.93809e+09 3.93835e+09 3.93937e+09 3.93966e+09 0 1
301 1 1 3.94827e+09 3.94853e+09 3.94955e+09 3.94957e+09 0 0
302 1 1 3.95771e+09 3.95796e+09 3.95898e+09 3.959e+09 1 0
303 1 1 3.97123e+09 3.97149e+09 3.97252e+09 3.97267e+09 1 0
304 1 0 3.9811e+09 3.98135e+09 3.98237e+09 3.98249e+09 1 1
305 2 1 4.00208e+09 4.00234e+09 4.00337e+09 4.00343e+09 0 1
306 2 0 4.02013e+09 4.02039e+09 4.02141e+09 4.02176e+09 0 0
307 2 0 4.03585e+09 4.0361e+09 4.03712e+09 4.03719e+09 1 0
308 2 1 4.04634e+09 4.0466e+09 4.04762e+09 4.04799e+09 1 1
309 2 1 4.05085e+09 4.05111e+09 4.05213e+09 4.05217e+09 0 1
310 1 0 4.05864e+09 4.0589e+09 4.05992e+09 4.06013e+09 0 1
311 1 1 4.06623e+09 4.06649e+09 4.06751e+09 4.07316e+09 0 0
312 1 1 4.08336e+09 4.08362e+09 4.08464e+09 4.08493e+09 1 0
313 1 1 4.09203e+09 4.09227e+09 4.09329e+09 4.09427e+09 1 0
314 1 0 4.10137e+09 4.10163e+09 4.10265e+09 4.10284e+09 1 1
315 1 0 4.1082e+09 4.10846e+09 4.10949e+09 4.12612e+09 0 1
316 2 1 4.12906e+09 4.12932e+09 4.13034e+09 4.13037e+09 0 1
317 2 1 4.13375e+09 4.13399e+09 4.13501e+09 4.1352e+09 0 1
318 2 1 4.13826e+09 4.13853e+09 4.13955e+09 4.14707e+09 0 1
319 1 1 4.16388e+09 4.16414e+09 4.16516e+09 4.16517e+09 0 0
320 1 0 4.17606e+09 4.17631e+09 4.17733e+09 4.1774e+09 1 1
321 1 0 4.19122e+09 4.19147e+09 4.19249e+09 4.1925e+09 0 1
322 1 0 4.1983e+09 4.19856e+09 4.19958e+09 4.19959e+09 0 1
323 1 0 4.20492e+09 4.20518e+09 4.2062e+09 4.20624e+09 0 1
324 1 1 4.21141e+09 4.21166e+09 4.21268e+09 4.22115e+09 0 0
325 1 1 4.23043e+09 4.23069e+09 4.23171e+09 4.23175e+09 1 0
326 1 1 4.24773e+09 4.24799e+09 4.24901e+09 4.24909e+09 1 0
327 1 1 4.25881e+09 4.25906e+09 4.26008e+09 4.26075e+09 1 0
328 2 1 4.26901e+09 4.26927e+09 4.27029e+09 4.27055e+09 0 1
329 1 1 4.27527e+09 4.27553e+09 4.27655e+09 4.27664e+09 0 0
330 1 1 4.2841e+09 4.28436e+09 4.28538e+09 4.2862e+09 1 0
331 1 1 4.29494e+09 236700 1.25698e+06 7.12538e+06 1 0
332 1 1 1.61065e+07 1.63588e+07 1.73791e+07 1.7639e+07 1 0
333 1 1 2.51116e+07 2.53676e+07 2.63879e+07 2.82402e+07 0 0
334 2 0 4.34535e+07 4.37098e+07 4.47301e+07 5.04583e+07 0 0
335 1 0 5.79246e+07 5.81902e+07 5.92105e+07 6.53011e+07 0 1
336 2 1 7.16708e+07 7.19243e+07 7.29446e+07 7.38955e+07 0 1
337 2 0 7.78107e+07 7.80695e+07 7.90898e+07 8.21445e+07 0 0
338 2 1 8.96328e+07 8.98913e+07 9.09116e+07 9.15431e+07 1 1
339 2 0 9.56396e+07 9.59044e+07 9.69247e+07 9.69719e+07 0 0
340 2 1 1.04965e+08 1.05217e+08 1.06237e+08 1.08542e+08 1 1
341 2 1 1.1854e+08 1.18797e+08 1.19818e+08 1.20188e+08 0 1
342 1 0 1.28076e+08 1.28338e+08 1.29358e+08 1.36048e+08 0 1
343 1 1 1.49915e+08 1.50161e+08 1.51182e+08 1.63501e+08 0 0
344 1 1 1.71082e+08 1.71334e+08 1.72355e+08 1.74913e+08 1 0
345 1 1 1.84621e+08 1.84874e+08 1.85894e+08 1.8621e+08 1 0
346 1 1 1.96892e+08 1.97151e+08 1.98171e+08 1.98222e+08 1 0
347 1 1 2.06703e+08 2.06964e+08 2.07985e+08 2.10171e+08 0 0
348 2 1 2.17705e+08 2.1796e+08 2.1898e+08 2.19335e+08 0 1
349 1 0 2.29335e+08 2.29583e+08 2.30603e+08 2.33333e+08 0 1
350 1 1 2.4045e+08 2.40703e+08 2.41724e+08 2.41752e+08 0 0
351 1 0 2.48888e+08 2.49141e+08 2.50161e+08 2.50208e+08 1 1
352 1 1 2.58041e+08 2.58296e+08 2.59317e+08 2.61025e+08 0 0
353 1 0 2.68163e+08 2.68416e+08 2.69436e+08 2.75973e+08 1 1
354 1 0 2.84058e+08 2.8432e+08 2.8534e+08 2.90388e+08 0 1
355 2 0 2.97844e+08 2.98098e+08 2.99118e+08 3.01273e+08 0 0
356 2 0 3.08717e+08 3.08976e+08 3.09996e+08 3.1001e+08 1 0
357 2 1 3.20546e+08 3.20814e+08 3.21834e+08 3.22291e+08 1 1
358 2 0 3.27722e+08 3.27975e+08 3.28995e+08 3.29002e+08 0 0
359 2 1 3.40405e+08 3.40667e+08 3.41687e+08 3.46241e+08 1 1
360 2 1 3.50432e+08 3.50698e+08 3.51718e+08 3.51733e+08 0 1
361 2 1 3.55505e+08 3.55758e+08 3.56778e+08 3.58225e+08 0 1
362 1 1 3.61968e+08 3.62221e+08 3.63242e+08 3.63258e+08 0 0
363 1 1 3.74937e+08 3.7519e+08 3.7621e+08 3.76234e+08 1 0
364 1 1 3.85789e+08 3.86042e+08 3.87062e+08 3.87827e+08 1 0
365 1 1 3.95608e+08 3.9587e+08 3.9689e+08 3.97606e+08 1 0
366 1 1 4.09422e+08 4.09691e+08 4.10711e+08 4.17308e+08 0 0
367 1 0 4.24648e+08 4.24897e+08 4.25917e+08 4.25982e+08 0 1
368 2 1 4.3196e+08 4.32222e+08 4.33242e+08 4.38859e+08 0 1
369 1 0 4.42018e+08 4.42276e+08 4.43297e+08 4.43688e+08 0 1
370 1 1 4.47195e+08 4.47461e+08 4.48481e+08 4.48495e+08 0 0
371 1 1 4.56007e+08 4.56263e+08 4.57283e+08 4.61561e+08 1 0
372 1 1 4.70813e+08 4.71081e+08 4.72101e+08 4.73211e+08 1 0
373 1 1 4.83661e+08 4.83925e+08 4.84945e+08 4.85188e+08 1 0
374 1 0 4.92675e+08 4.92934e+08 4.93954e+08 4.9397e+08 0 1
375 2 0 4.98602e+08 4.98861e+08 4.99882e+08 4.99906e+08 0 0
376 2 1 5.07391e+08 5.07649e+08 5.08669e+08 5.08779e+08 1 1
377 1 1 5.16032e+08 5.16288e+08 5.17308e+08 5.26268e+08 0 0
378 1 1 5.34327e+08 5.34572e+08 5.35592e+08 5.35611e+08 1 0
379 1 1 5.43874e+08 5.44134e+08 5.45154e+08 5.49091e+08 1 0
380 1 0 5.58024e+08 5.58292e+08 5.59313e+08 5.59369e+08 1 1
381 1 0 5.64212e+08 5.64469e+08 5.65489e+08 5.65666e+08 0 1
382 1 1 5.70562e+08 5.70823e+08 5.71843e+08 5.72574e+08 0 0
383 1 1 5.80003e+08 5.80268e+08 5.81288e+08 5.84851e+08 1 0
384 1 1 5.99823e+08 6.00073e+08 6.01093e+08 6.01129e+08 1 0
385 1 0 6.11743e+08 6.12005e+08 6.13025e+08 6.13054e+08 1 1
386 1 0 6.24183e+08 6.24445e+08 6.25465e+08 6.25527e+08 0 1
387 2 1 6.3346e+08 6.33721e+08 6.34742e+08 6.34768e+08 0 1
388 2 1 6.47129e+08 6.47386e+08 6.48406e+08 6.49065e+08 0 1
389 1 1 6.52535e+08 6.52789e+08 6.5381e+08 6.53828e+08 0 0
390 1 1 6.61091e+08 6.61342e+08 6.62362e+08 6.67343e+08 1 0
391 1 1 6.75991e+08 6.76236e+08 6.77257e+08 6.79512e+08 1 0
392 1 1 6.8681e+08 6.87064e+08 6.88084e+08 6.88103e+08 1 0
393 2 1 6.97391e+08 6.97651e+08 6.98671e+08 7.00524e+08 0 1
394 2 0 7.05512e+08 7.05764e+08 7.06785e+08 7.06833e+08 0 0
395 2 1 7.14327e+08 7.14585e+08 7.15606e+08 7.23443e+08 1 1
396 1 1 7.33246e+08 7.33501e+08 7.34521e+08 7.34559e+08 0 0
397 1 1 7.43959e+08 7.44211e+08 7.45232e+08 7.45246e+08 1 0
398 1 1 7.62348e+08 7.62606e+08 7.63626e+08 7.63645e+08 1 0
399 1 0 7.74777e+08 7.75026e+08 7.76047e+08 7.7605e+08 1 1
400 2 1 7.78655e+08 7.78901e+08 7.79922e+08 7.80453e+08 0 1
401 1 1 7.84046e+08 7.84302e+08 7.85323e+08 7.8534e+08 0 0
402 1 1 7.95493e+08 7.95755e+08 7.96775e+08 7.96822e+08 1 0
403 1 1 8.04652e+08 8.04913e+08 8.05933e+08 8.06239e+08 1 0
404 1 1 8.14121e+08 8.14384e+08 8.15404e+08 8.20285e+08 1 0
405 2 1 8.28642e+08 8.28906e+08 8.29926e+08 8.31576e+08 0 1
406 1 1 8.34571e+08 8.34828e+08 8.35849e+08 8.35892e+08 0 0
407 1 1 8.45324e+08 8.45585e+08 8.46605e+08 8.47151e+08 1 0
408 1 1 8.57002e+08 8.57267e+08 8.58287e+08 8.63082e+08 1 0
409 1 1 8.72679e+08 8.72932e+08 8.73952e+08 8.74282e+08 1 0
410 2 1 8.84127e+08 8.84385e+08 8.85405e+08 8.90909e+08 0 1
411 2 0 8.94573e+08 8.9482e+08 8.9584e+08 8.96098e+08 0 0
412 2 0 9.03611e+08 9.03862e+08 9.04883e+08 9.13624e+08 1 0
413 2 1 9.23126e+08 9.23378e+08 9.24399e+08 9.27616e+08 1 1
414 2 0 9.33304e+08 9.33558e+08 9.34578e+08 9.34881e+08 0 0
415 2 1 9.42153e+08 9.42401e+08 9.43421e+08 9.44543e+08 1 1
416 1 1 9.49518e+08 9.49765e+08 9.50785e+08 9.5142e+08 0 0
417 1 1 9.58691e+08 9.58948e+08 9.59969e+08 9.64267e+08 1 0
418 1 1 9.71429e+08 9.7168e+08 9.72701e+08 9.78841e+08 1 0
419 1 1 9.86727e+08 9.86997e+08 9.88017e+08 9.89192e+08 1 0
420 2 1 9.98213e+08 9.98472e+08 9.99492e+08 9.99836e+08 0 1
421 1 1 1.00338e+09 1.00363e+09 1.00465e+09 1.01737e+09 0 0
422 1 1 1.02487e+09 1.02512e+09 1.02614e+09 1.02709e+09 1 0
423 1 1 1.03629e+09 1.03653e+09 1.03756e+09 1.03957e+09 1 0
424 1 1 1.04689e+09 1.04714e+09 1.04816e+09 1.04821e+09 1 0
425 1 1 1.05537e+09 1.05564e+09 1.05666e+09 1.05734e+09 0 0
426 2 1 1.06447e+09 1.06473e+09 1.06575e+09 1.06615e+09 0 1
427 1 1 1.06908e+09 1.06934e+09 1.07036e+09 1.07393e+09 0 0
428 1 1 1.08184e+09 1.0821e+09 1.08312e+09 1.0838e+09 1 0
429 1 1 1.09426e+09 1.09452e+09 1.09554e+09 1.09981e+09 1 0
430 1 1 1.10685e+09 1.10711e+09 1.10813e+09 1.11372e+09 1 0
431 2 1 1.12086e+09 1.12111e+09 1.12213e+09 1.12249e+09 0 1
432 1 1 1.12543e+09 1.12569e+09 1.12671e+09 1.12916e+09 0 0
433 1 1 1.1364e+09 1.13665e+09 1.13767e+09 1.14052e+09 1 0
434 1 0 1.1485e+09 1.14875e+09 1.14977e+09 1.17483e+09 1 1
435 1 1 1.18346e+09 1.18372e+09 1.18474e+09 1.18515e+09 0 0
436 1 0 1.19245e+09 1.19271e+09 1.19373e+09 1.19759e+09 1 1
437 2 0 1.20222e+09 1.20248e+09 1.2035e+09 1.20983e+09 0 0
438 2 0 1.21729e+09 1.21755e+09 1.21857e+09 1.22958e+09 1 0
439 2 1 1.23694e+09 1.23719e+09 1.23821e+09 1.23862e+09 1 1
440 1 1 1.24503e+09 1.24529e+09 1.24631e+09 1.25063e+09 0 0
441 1 0 1.25767e+09 1.25794e+09 1.25896e+09 1.26063e+09 1 1
442 1 1 1.26407e+09 1.26433e+09 1.26535e+09 1.2737e+09 0 0
443 1 1 1.28102e+09 1.28128e+09 1.2823e+09 1.2911e+09 1 0
444 1 1 1.29894e+09 1.29919e+09 1.30021e+09 1.30559e+09 1 0
445 1 1 1.31321e+09 1.31347e+09 1.31449e+09 1.31718e+09 1 0
446 2 1 1.32431e+09 1.32457e+09 1.32559e+09 1.34141e+09 0 1
447 1 1 1.34772e+09 1.34798e+09 1.349e+09 1.34995e+09 0 0
448 1 1 1.35719e+09 1.35744e+09 1.35846e+09 1.36532e+09 1 0
449 1 0 1.37262e+09 1.37288e+09 1.3739e+09 1.38525e+09 1 1
450 1 0 1.38973e+09 1.38999e+09 1.39101e+09 1.4493e+09 0 1
451 2 1 1.45988e+09 1.46014e+09 1.46116e+09 1.46411e+09 0 1
452 1 1 1.46883e+09 1.46908e+09 1.4701e+09 1.50222e+09 0 0
453 1 1 1.50967e+09 1.50993e+09 1.51095e+09 1.52017e+09 1 0
454 1 1 1.52751e+09 1.52776e+09 1.52878e+09 1.52892e+09 1 0
455 1 0 1.53601e+09 1.53628e+09 1.5373e+09 1.53742e+09 1 1
456 1 1 1.54339e+09 1.54365e+09 1.54467e+09 1.54623e+09 0 0
457 1 0 1.55686e+09 1.55711e+09 1.55813e+09 1.56543e+09 1 1
458 1 1 1.57106e+09 1.57132e+09 1.57234e+09 1.5896e+09 0 0
459 1 1 1.60005e+09 1.60031e+09 1.60133e+09 1.60403e+09 1 0
460 1 1 1.61142e+09 1.61167e+09 1.61269e+09 1.61274e+09 1 0
461 1 0 1.62135e+09 1.6216e+09 1.62262e+09 1.63447e+09 1 1
462 2 0 1.64169e+09 1.64194e+09 1.64296e+09 1.65926e+09 0 0
463 2 1 1.66791e+09 1.66816e+09 1.66919e+09 1.67429e+09 1 1
464 2 0 1.68212e+09 1.68238e+09 1.6834e+09 1.68345e+09 0 0
465 2 1 1.69079e+09 1.69104e+09 1.69206e+09 1.73032e+09 1 1
466 2 1 1.73647e+09 1.73672e+09 1.73774e+09 1.74706e+09 0 1
467 2 0 1.74999e+09 1.75025e+09 1.75127e+09 1.76606e+09 0 0
468 2 0 1.77489e+09 1.77514e+09 1.77616e+09 1.78009e+09 1 0
469 2 0 1.78871e+09 1.78896e+09 1.78998e+09 1.80719e+09 1 0
470 2 1 1.81548e+09 1.81574e+09 1.81676e+09 1.81821e+09 1 1
471 2 1 1.82684e+09 1.82709e+09 1.82811e+09 1.8366e+09 0 1
472 1 0 1.84e+09 1.84026e+09 1.84128e+09 1.84181e+09 0 1
473 2 0 1.85022e+09 1.85048e+09 1.8515e+09 1.86076e+09 0 0
474 2 1 1.86813e+09 1.86839e+09 1.86941e+09 1.87352e+09 1 1
475 1 1 1.87723e+09 1.87749e+09 1.87851e+09 1.88281e+09 0 0
476 1 1 1.89204e+09 1.8923e+09 1.89332e+09 1.89786e+09 1 0
477 1 1 1.90534e+09 1.90559e+09 1.90661e+09 1.94476e+09 1 0
478 1 0 1.95347e+09 1.95373e+09 1.95475e+09 1.95996e+09 1 1
479 2 1 1.9679e+09 1.96816e+09 1.96918e+09 1.9692e+09 0 1
480 2 0 1.97217e+09 1.97243e+09 1.97345e+09 1.97801e+09 0 0
481 2 1 1.98587e+09 1.98612e+09 1.98714e+09 1.98742e+09 1 1
482 1 1 1.99034e+09 1.9906e+09 1.99162e+09 2.00766e+09 0 0
483 1 1 2.01499e+09 2.01524e+09 2.01626e+09 2.01726e+09 1 0
484 1 1 2.02473e+09 2.02499e+09 2.02601e+09 2.03317e+09 1 0
485 1 1 2.04046e+09 2.04071e+09 2.04173e+09 2.04764e+09 1 0
486 2 1 2.05493e+09 2.05518e+09 2.0562e+09 2.0578e+09 0 1
487 1 1 2.06051e+09 2.06077e+09 2.06179e+09 2.06276e+09 0 0
488 1 1 2.07065e+09 2.07091e+09 2.07193e+09 2.07263e+09 1 0
489 1 1 2.07997e+09 2.08023e+09 2.08125e+09 2.08403e+09 1 0
490 1 0 2.09143e+09 2.09168e+09 2.0927e+09 2.09323e+09 1 1
491 1 0 2.09679e+09 2.09704e+09 2.09806e+09 2.11613e+09 0 1
492 2 1 2.11931e+09 2.11956e+09 2.12058e+09 2.12153e+09 0 1
493 1 1 2.12434e+09 2.12459e+09 2.12561e+09 2.12675e+09 0 0
494 1 1 2.13577e+09 2.13602e+09 2.13705e+09 2.15466e+09 1 0
495 1 0 2.16277e+09 2.16303e+09 2.16405e+09 2.20947e+09 1 1
496 1 1 2.21738e+09 2.21762e+09 2.21864e+09 2.24311e+09 0 0
497 1 0 2.2505e+09 2.25075e+09 2.25177e+09 2.2519e+09 1 1
498 1 0 2.25757e+09 2.25783e+09 2.25885e+09 2.27269e+09 0 1
499 2 0 2.27772e+09 2.27797e+09 2.27899e+09 2.33849e+09 0 0
500 2 0 2.34702e+09 2.34728e+09 2.3483e+09 2.35476e+09 1 0
501 2 1 2.3621e+09 2.36235e+09 2.36337e+09 2.44049e+09 1 1
502 1 1 2.44465e+09 2.44491e+09 2.44593e+09 2.44619e+09 0 0
503 1 1 2.45362e+09 2.45387e+09 2.45489e+09 2.46111e+09 1 0
504 1 1 2.4685e+09 2.46876e+09 2.46978e+09 2.47445e+09 1 0
505 1 0 2.4817e+09 2.48195e+09 2.48297e+09 2.48481e+09 1 1
506 2 1 2.48788e+09 2.48813e+09 2.48915e+09 2.49171e+09 0 1
507 2 1 2.4965e+09 2.49675e+09 2.49777e+09 2.49989e+09 0 1
508 2 0 2.50513e+09 2.50538e+09 2.5064e+09 2.55444e+09 0 0
509 2 0 2.5616e+09 2.56185e+09 2.56287e+09 2.56319e+09 1 0
510 2 0 2.57046e+09 2.57071e+09 2.57173e+09 2.6067e+09 1 0
511 2 0 2.61437e+09 2.61463e+09 2.61565e+09 2.61708e+09 1 0
512 1 0 2.62799e+09 2.62824e+09 2.62926e+09 2.63107e+09 0 1
513 2 1 2.63611e+09 2.63637e+09 2.63739e+09 2.63904e+09 0 1
514 2 1 2.64229e+09 2.64256e+09 2.64358e+09 2.75605e+09 0 1
515 2 1 2.75884e+09 2.75909e+09 2.76012e+09 2.76356e+09 0 1
516 2 0 2.76949e+09 2.76974e+09 2.77077e+09 2.77088e+09 0 0
517 2 1 2.78088e+09 2.78114e+09 2.78216e+09 2.82453e+09 1 1
518 1 0 2.82768e+09 2.82793e+09 2.82895e+09 2.84342e+09 0 1
519 1 1 2.84619e+09 2.84645e+09 2.84747e+09 2.86899e+09 0 0
520 1 0 2.87636e+09 2.8766e+09 2.87762e+09 2.88158e+09 1 1
521 2 0 2.88446e+09 2.88473e+09 2.88575e+09 2.89824e+09 0 0
522 2 0 2.9053e+09 2.90556e+09 2.90658e+09 2.90691e+09 1 0
523 2 1 2.91497e+09 2.91522e+09 2.91624e+09 2.91659e+09 1 1
524 2 0 2.91976e+09 2.92002e+09 2.92104e+09 2.92236e+09 0 0
525 2 0 2.92945e+09 2.9297e+09 2.93072e+09 2.95524e+09 1 0
526 2 1 2.9623e+09 2.96255e+09 2.96357e+09 2.97625e+09 1 1
527 2 0 2.97922e+09 2.97948e+09 2.9805e+09 2.9833e+09 0 0
528 2 1 2.99045e+09 2.99072e+09 2.99174e+09 3.35582e+09 1 1
