trial trialType response stillTime stimOnset stimOffset respTime correctionTrial correct
001 2 0 1.54174e+07 1.57239e+07 1.67441e+07 1.69312e+07 0 0
002 2 1 2.42135e+07 2.44842e+07 2.55045e+07 2.71087e+07 1 1
003 1 1 2.98343e+07 3.01074e+07 3.11277e+07 3.60144e+07 0 0
004 1 1 4.32067e+07 4.34641e+07 4.44844e+07 5.6667e+07 1 0
005 1 1 6.9462e+07 6.97189e+07 7.07391e+07 7.14953e+07 1 0
006 1 1 8.08776e+07 8.11314e+07 8.21517e+07 1.02109e+08 1 0
007 1 0 1.0995e+08 1.10208e+08 1.11228e+08 1.25769e+08 0 1
008 2 1 1.33441e+08 1.33694e+08 1.34715e+08 1.42486e+08 0 1
009 2 0 1.4699e+08 1.47254e+08 1.48274e+08 1.49764e+08 0 0
010 2 0 1.57869e+08 1.58119e+08 1.59139e+08 1.62312e+08 1 0
011 2 1 1.69795e+08 1.70057e+08 1.71077e+08 1.73209e+08 1 1
012 1 0 1.76923e+08 1.77178e+08 1.78198e+08 1.79148e+08 0 1
013 1 0 1.82223e+08 1.82491e+08 1.83512e+08 1.90633e+08 0 1
014 1 1 1.93264e+08 1.93528e+08 1.94548e+08 1.97257e+08 0 0
015 1 0 2.04781e+08 2.05032e+08 2.06052e+08 2.06078e+08 1 1
016 2 1 2.12061e+08 2.12308e+08 2.13328e+08 2.23813e+08 0 1
017 1 1 2.2844e+08 2.28707e+08 2.29728e+08 2.30558e+08 0 0
018 1 1 2.41211e+08 2.41474e+08 2.42494e+08 2.47107e+08 1 0
019 1 1 2.57403e+08 2.57664e+08 2.58684e+08 2.63856e+08 1 0
020 1 1 2.73304e+08 2.73556e+08 2.74577e+08 2.76883e+08 1 0
021 2 1 2.8494e+08 2.85194e+08 2.86214e+08 2.9395e+08 0 1
022 1 1 3.01275e+08 3.01534e+08 3.02554e+08 3.06538e+08 0 0
023 1 1 3.15391e+08 3.15648e+08 3.16668e+08 3.20723e+08 1 0
024 1 1 3.30783e+08 3.31043e+08 3.32063e+08 3.33928e+08 1 0
025 1 1 3.41022e+08 3.4128e+08 3.423e+08 3.42627e+08 1 0
026 2 1 3.57206e+08 3.57476e+08 3.58496e+08 3.6335e+08 0 1
027 2 0 3.68566e+08 3.68818e+08 3.69839e+08 3.7795e+08 0 0
028 2 1 3.85254e+08 3.85513e+08 3.86533e+08 3.8664e+08 1 1
029 1 0 3.9068e+08 3.90945e+08 3.91965e+08 3.92049e+08 0 1
030 1 1 3.9497e+08 3.95232e+08 3.96252e+08 4.03911e+08 0 0
031 1 1 4.11041e+08 4.11301e+08 4.12321e+08 4.29379e+08 1 0
032 1 0 4.40726e+08 4.40977e+08 4.41997e+08 4.42214e+08 1 1
033 1 1 4.49138e+08 4.49405e+08 4.50426e+08 4.56603e+08 0 0
034 1 0 4.66152e+08 4.66411e+08 4.67432e+08 4.6956e+08 1 1
035 1 1 4.73002e+08 4.73264e+08 4.74284e+08 4.79329e+08 0 0
036 1 1 4.88372e+08 4.88625e+08 4.89645e+08 4.90545e+08 1 0
037 1 1 4.98063e+08 4.98331e+08 4.99351e+08 5.27641e+08 1 0
038 1 0 5.34827e+08 5.35081e+08 5.36101e+08 5.36117e+08 1 1
039 1 0 5.4098e+08 5.41237e+08 5.42257e+08 5.4287e+08 0 1
040 1 1 5.45812e+08 5.46072e+08 5.47092e+08 5.5208e+08 0 0
041 1 1 5.59574e+08 5.59826e+08 5.60847e+08 5.66572e+08 1 0
042 1 1 5.7378e+08 5.74038e+08 5.75058e+08 5.76058e+08 1 0
043 1 1 5.85765e+08 5.86028e+08 5.87048e+08 5.95604e+08 1 0
044 1 1 6.15221e+08 6.15478e+08 6.16498e+08 6.16501e+08 0 0
045 2 1 6.2858e+08 6.28832e+08 6.29852e+08 6.32498e+08 0 1
046 1 1 6.35258e+08 6.35508e+08 6.36529e+08 6.37564e+08 0 0
047 1 0 6.44829e+08 6.45079e+08 6.46099e+08 6.47743e+08 1 1
048 1 0 6.50981e+08 6.51246e+08 6.52266e+08 6.53104e+08 0 1
049 2 0 6.56596e+08 6.56849e+08 6.57869e+08 6.64518e+08 0 0
050 2 0 6.71915e+08 6.72166e+08 6.73187e+08 6.73209e+08 1 0
051 2 0 6.80236e+08 6.80494e+08 6.81515e+08 6.84764e+08 1 0
052 2 1 6.91957e+08 6.9221e+08 6.9323e+08 6.99968e+08 1 1
053 2 0 7.04901e+08 7.05163e+08 7.06183e+08 7.06217e+08 0 0
054 2 1 7.13688e+08 7.13943e+08 7.14964e+08 7.16856e+08 1 1
055 1 0 7.1989e+08 7.20143e+08 7.21163e+08 7.291e+08 0 1
056 2 1 7.32198e+08 7.32456e+08 7.33476e+08 7.35585e+08 0 1
057 2 1 7.39757e+08 7.40012e+08 7.41032e+08 7.48483e+08 0 1
058 1 1 7.52225e+08 7.5248e+08 7.535e+08 7.64111e+08 0 0
059 1 0 7.74351e+08 7.74603e+08 7.75624e+08 7.8013e+08 1 1
060 1 1 7.8464e+08 7.84906e+08 7.85927e+08 7.86451e+08 0 0
061 1 1 8.00694e+08 8.00957e+08 8.01977e+08 8.12937e+08 1 0
062 1 1 8.30175e+08 8.30437e+08 8.31457e+08 8.3277e+08 1 0
063 1 1 8.39858e+08 8.40118e+08 8.41138e+08 8.49313e+08 1 0
064 2 1 8.56427e+08 8.56672e+08 8.57692e+08 8.66872e+08 0 1
065 1 1 8.71661e+08 8.71919e+08 8.72939e+08 8.75439e+08 0 0
066 1 1 8.92837e+08 8.93101e+08 8.94121e+08 8.99155e+08 1 0
067 1 1 9.10068e+08 9.10318e+08 9.11338e+08 9.13114e+08 1 0
068 1 1 9.22753e+08 9.23009e+08 9.24029e+08 9.30506e+08 1 0
069 1 1 9.38862e+08 9.3912e+08 9.40141e+08 9.43875e+08 0 0
070 2 1 9.51403e+08 9.5166e+08 9.52681e+08 9.56728e+08 0 1
071 2 1 9.71037e+08 9.71296e+08 9.72317e+08 9.72516e+08 0 1
072 2 1 9.79852e+08 9.80108e+08 9.81129e+08 9.81823e+08 0 1
073 2 1 9.8822e+08 9.88477e+08 9.89498e+08 9.94708e+08 0 1
074 2 1 9.9865e+08 9.98916e+08 9.99936e+08 1.00188e+09 0 1
075 1 1 1.00611e+09 1.00637e+09 1.00739e+09 1.01349e+09 0 0
076 1 1 1.02085e+09 1.0211e+09 1.02212e+09 1.02267e+09 1 0
077 1 1 1.03071e+09 1.03096e+09 1.03198e+09 1.03459e+09 1 0
078 1 1 1.04166e+09 1.04192e+09 1.04294e+09 1.04736e+09 1 0
079 1 0 1.05595e+09 1.0562e+09 1.05723e+09 1.07798e+09 0 1
080 2 1 1.08067e+09 1.08093e+09 1.08195e+09 1.08231e+09 0 1
081 2 1 1.08496e+09 1.08522e+09 1.08624e+09 1.08757e+09 0 1
082 2 0 1.09996e+09 1.10022e+09 1.10124e+09 1.10158e+09 0 0
083 2 1 1.11222e+09 1.11247e+09 1.11349e+09 1.1135e+09 1 1
084 2 0 1.11602e+09 1.1163e+09 1.11732e+09 1.12617e+09 0 0
085 2 0 1.13323e+09 1.13349e+09 1.13451e+09 1.13767e+09 1 0
086 2 1 1.14642e+09 1.14668e+09 1.1477e+09 1.14937e+09 1 1
087 1 0 1.15593e+09 1.15618e+09 1.1572e+09 1.15851e+09 0 1
088 2 1 1.1624e+09 1.16266e+09 1.16368e+09 1.16924e+09 0 1
089 2 1 1.18026e+09 1.18053e+09 1.18155e+09 1.18177e+09 0 1
090 1 0 1.18984e+09 1.1901e+09 1.19113e+09 1.19117e+09 0 1
091 1 1 1.19388e+09 1.19413e+09 1.19515e+09 1.19637e+09 0 0
092 1 1 1.20704e+09 1.20731e+09 1.20833e+09 1.21147e+09 1 0
093 1 1 1.21852e+09 1.21878e+09 1.2198e+09 1.21981e+09 1 0
094 1 1 1.22722e+09 1.22748e+09 1.2285e+09 1.22985e+09 1 0
095 1 1 1.25772e+09 1.25798e+09 1.259e+09 1.25913e+09 0 0
096 2 1 1.27399e+09 1.27424e+09 1.27526e+09 1.27565e+09 0 1
097 2 1 1.29081e+09 1.29107e+09 1.29209e+09 1.29486e+09 0 1
098 1 1 1.30274e+09 1.30299e+09 1.30401e+09 1.31425e+09 0 0
099 1 1 1.33135e+09 1.33161e+09 1.33263e+09 1.33601e+09 1 0
100 1 1 1.34319e+09 1.34344e+09 1.34446e+09 1.34522e+09 1 0
101 1 1 1.35434e+09 1.35459e+09 1.35561e+09 1.35665e+09 1 0
102 1 1 1.36415e+09 1.36441e+09 1.36543e+09 1.36872e+09 0 0
103 1 1 1.39829e+09 1.39855e+09 1.39957e+09 1.4018e+09 0 0
104 2 1 1.40922e+09 1.40948e+09 1.4105e+09 1.41166e+09 0 1
105 2 1 1.41612e+09 1.41638e+09 1.4174e+09 1.41749e+09 0 1
106 1 1 1.42085e+09 1.42111e+09 1.42213e+09 1.42219e+09 0 0
107 1 1 1.43026e+09 1.43051e+09 1.43153e+09 1.43307e+09 1 0
108 1 1 1.44606e+09 1.44631e+09 1.44733e+09 1.45366e+09 1 0
109 1 1 1.46367e+09 1.46393e+09 1.46495e+09 1.4718e+09 1 0
110 2 1 1.48038e+09 1.48065e+09 1.48167e+09 1.48542e+09 0 1
111 2 1 1.48964e+09 1.4899e+09 1.49092e+09 1.49095e+09 0 1
112 2 1 1.49637e+09 1.49662e+09 1.49764e+09 1.49824e+09 0 1
113 1 0 1.50905e+09 1.50931e+09 1.51033e+09 1.51041e+09 0 1
114 2 1 1.51769e+09 1.51794e+09 1.51896e+09 1.53113e+09 0 1
115 1 1 1.53428e+09 1.53454e+09 1.53556e+09 1.5361e+09 0 0
116 1 1 1.54343e+09 1.5437e+09 1.54472e+09 1.54496e+09 1 0
117 1 1 1.55256e+09 1.55283e+09 1.55385e+09 1.55996e+09 1 0
118 1 1 1.56775e+09 1.568e+09 1.56902e+09 1.57648e+09 1 0
119 2 1 1.58708e+09 1.58733e+09 1.58835e+09 1.59196e+09 0 1
120 1 1 1.61003e+09 1.61028e+09 1.6113e+09 1.61344e+09 0 0
121 1 1 1.62158e+09 1.62183e+09 1.62285e+09 1.62935e+09 1 0
122 1 1 1.63644e+09 1.63669e+09 1.63771e+09 1.64395e+09 1 0
123 1 0 1.65455e+09 1.65481e+09 1.65583e+09 1.65703e+09 1 1
124 1 0 1.66291e+09 1.66316e+09 1.66418e+09 1.66424e+09 0 1
125 2 1 1.66716e+09 1.66741e+09 1.66843e+09 1.67232e+09 0 1
126 1 1 1.67912e+09 1.67937e+09 1.68039e+09 1.68688e+09 0 0
127 1 1 1.69403e+09 1.69429e+09 1.69531e+09 1.69723e+09 1 0
128 1 1 1.70431e+09 1.70456e+09 1.70558e+09 1.7078e+09 1 0
129 1 1 1.71485e+09 1.7151e+09 1.71612e+09 1.71786e+09 1 0
130 1 0 1.73073e+09 1.73099e+09 1.73201e+09 1.73217e+09 0 1
131 1 1 1.73728e+09 1.73753e+09 1.73855e+09 1.73858e+09 0 0
132 1 0 1.76477e+09 1.76503e+09 1.76605e+09 1.76608e+09 1 1
133 1 1 1.7687e+09 1.76896e+09 1.76998e+09 1.7705e+09 0 0
134 1 0 1.78637e+09 1.78662e+09 1.78764e+09 1.7877e+09 1 1
135 1 1 1.7905e+09 1.79075e+09 1.79177e+09 1.79202e+09 0 0
136 1 1 1.80079e+09 1.80104e+09 1.80206e+09 1.80283e+09 1 0
137 1 1 1.81005e+09 1.81032e+09 1.81134e+09 1.81898e+09 1 0
138 1 1 1.82984e+09 1.83009e+09 1.83111e+09 1.83482e+09 1 0
139 1 1 1.84287e+09 1.84313e+09 1.84415e+09 1.84698e+09 0 0
140 2 1 1.85609e+09 1.85635e+09 1.85737e+09 1.86182e+09 0 1
141 1 1 1.86937e+09 1.86962e+09 1.87064e+09 1.87526e+09 0 0
142 1 1 1.88262e+09 1.88288e+09 1.8839e+09 1.88707e+09 1 0
143 1 1 1.89435e+09 1.89462e+09 1.89564e+09 1.89707e+09 1 0
144 1 0 1.90417e+09 1.90443e+09 1.90545e+09 1.90547e+09 1 1
145 2 1 1.90814e+09 1.9084e+09 1.90942e+09 1.91072e+09 0 1
146 2 1 1.91513e+09 1.91539e+09 1.91641e+09 1.91978e+09 0 1
147 2 0 1.92343e+09 1.92369e+09 1.92471e+09 1.92584e+09 0 0
148 2 1 1.93305e+09 1.93332e+09 1.93434e+09 1.93977e+09 1 1
149 1 1 1.95271e+09 1.95297e+09 1.95399e+09 1.95937e+09 0 0
150 1 1 1.96685e+09 1.96711e+09 1.96813e+09 1.9723e+09 1 0
151 1 1 1.98078e+09 1.98104e+09 1.98206e+09 1.98787e+09 1 0
152 1 1 1.99592e+09 1.99619e+09 1.99721e+09 2.01599e+09 1 0
153 2 1 2.02585e+09 2.0261e+09 2.02712e+09 2.03213e+09 0 1
154 2 0 2.03566e+09 2.03591e+09 2.03693e+09 2.04164e+09 0 0
155 2 1 2.04966e+09 2.04991e+09 2.05093e+09 2.05491e+09 1 1
156 1 1 2.06088e+09 2.06113e+09 2.06215e+09 2.06953e+09 0 0
157 1 1 2.08155e+09 2.08182e+09 2.08284e+09 2.08803e+09 1 0
158 1 1 2.09533e+09 2.0956e+09 2.09662e+09 2.10405e+09 1 0
159 1 1 2.11172e+09 2.11198e+09 2.113e+09 2.1139e+09 1 0
160 1 1 2.12112e+09 2.12139e+09 2.12241e+09 2.15414e+09 0 0
161 1 1 2.16188e+09 2.16213e+09 2.16315e+09 2.17476e+09 0 0
162 2 0 2.18561e+09 2.18586e+09 2.18688e+09 2.1869e+09 0 0
163 2 1 2.1943e+09 2.19456e+09 2.19558e+09 2.20356e+09 0 1
164 2 1 2.21087e+09 2.21113e+09 2.21215e+09 2.21222e+09 0 1
165 2 1 2.23355e+09 2.23381e+09 2.23483e+09 2.23515e+09 0 1
166 2 1 2.23892e+09 2.23917e+09 2.24019e+09 2.24316e+09 0 1
167 1 1 2.25182e+09 2.25209e+09 2.25311e+09 2.26103e+09 0 0
168 1 1 2.2693e+09 2.26956e+09 2.27058e+09 2.27149e+09 1 0
169 1 1 2.27889e+09 2.27914e+09 2.28016e+09 2.28551e+09 1 0
170 1 1 2.29257e+09 2.29284e+09 2.29386e+09 2.30341e+09 1 0
171 2 1 2.31179e+09 2.31205e+09 2.31307e+09 2.3375e+09 0 1
172 1 1 2.34253e+09 2.34279e+09 2.34381e+09 2.34382e+09 0 0
173 1 1 2.35299e+09 2.35325e+09 2.35427e+09 2.35583e+09 1 0
174 1 1 2.36921e+09 2.36947e+09 2.37049e+09 2.37057e+09 1 0
175 1 1 2.38389e+09 2.38414e+09 2.38516e+09 2.38606e+09 1 0
176 2 1 2.39325e+09 2.3935e+09 2.39452e+09 2.40484e+09 0 1
177 1 1 2.41214e+09 2.4124e+09 2.41342e+09 2.4153e+09 0 0
178 1 1 2.4254e+09 2.42566e+09 2.42668e+09 2.43389e+09 1 0
179 1 1 2.44105e+09 2.44132e+09 2.44234e+09 2.47333e+09 1 0
180 1 1 2.48081e+09 2.48106e+09 2.48208e+09 2.48344e+09 1 0
181 2 1 2.49436e+09 2.49462e+09 2.49564e+09 2.50131e+09 0 1
182 2 1 2.50406e+09 2.50431e+09 2.50533e+09 2.51071e+09 0 1
183 2 1 2.51605e+09 2.51631e+09 2.51733e+09 2.51857e+09 0 1
184 1 1 2.52165e+09 2.5219e+09 2.52292e+09 2.53169e+09 0 0
185 1 1 2.54057e+09 2.54082e+09 2.54184e+09 2.5544e+09 1 0
186 1 1 2.5629e+09 2.56317e+09 2.56419e+09 2.56557e+09 1 0
187 1 1 2.5731e+09 2.57337e+09 2.57439e+09 2.58301e+09 1 0
188 2 1 2.59167e+09 2.59192e+09 2.59294e+09 2.61221e+09 0 1
189 1 1 2.61774e+09 2.618e+09 2.61902e+09 2.62597e+09 0 0
190 1 1 2.64088e+09 2.64114e+09 2.64216e+09 2.6448e+09 1 0
191 1 1 2.65349e+09 2.65375e+09 2.65477e+09 2.65486e+09 1 0
192 1 1 2.66827e+09 2.66853e+09 2.66955e+09 2.67085e+09 1 0
193 2 1 2.68018e+09 2.68044e+09 2.68146e+09 2.69348e+09 0 1
194 1 1 2.69838e+09 2.69865e+09 2.69967e+09 2.70285e+09 0 0
195 1 1 2.71e+09 2.71025e+09 2.71127e+09 2.74061e+09 1 0
196 1 1 2.75028e+09 2.75053e+09 2.75155e+09 2.75499e+09 1 0
197 1 1 2.76207e+09 2.76234e+09 2.76336e+09 2.78061e+09 1 0
198 1 1 2.78783e+09 2.78808e+09 2.7891e+09 2.7929e+09 0 0
199 1 1 2.80045e+09 2.8007e+09 2.80172e+09 2.80644e+09 0 0
200 1 1 2.8137e+09 2.81396e+09 2.81498e+09 2.81732e+09 0 0
201 1 1 2.82465e+09 2.82491e+09 2.82593e+09 2.82834e+09 0 0
202 2 1 2.83572e+09 2.83597e+09 2.83699e+09 2.8375e+09 0 1
203 1 1 2.86077e+09 2.86103e+09 2.86205e+09 2.86575e+09 0 0
204 1 1 2.87508e+09 2.87534e+09 2.87636e+09 2.88685e+09 1 0
205 1 1 2.89472e+09 2.89498e+09 2.896e+09 2.91751e+09 1 0
206 1 1 2.92485e+09 2.92512e+09 2.92614e+09 2.93418e+09 1 0
207 1 1 2.94211e+09 2.94236e+09 2.94338e+09 2.94634e+09 0 0
208 1 1 2.95414e+09 2.95441e+09 2.95543e+09 2.96679e+09 0 0
209 2 1 2.97404e+09 2.9743e+09 2.97532e+09 2.98916e+09 0 1
210 1 1 3.00356e+09 3.00382e+09 3.00484e+09 3.0078e+09 0 0
211 1 1 3.01751e+09 3.01777e+09 3.01879e+09 3.02275e+09 1 0
212 1 1 3.02984e+09 3.03011e+09 3.03113e+09 3.04272e+09 1 0
213 1 1 3.05093e+09 3.05118e+09 3.0522e+09 3.07164e+09 1 0
214 2 1 3.07894e+09 3.0792e+09 3.08022e+09 3.08499e+09 0 1
215 1 1 3.08858e+09 3.08884e+09 3.08986e+09 3.09385e+09 0 0
216 1 1 3.10108e+09 3.10135e+09 3.10237e+09 3.10272e+09 1 0
217 1 1 3.11749e+09 3.11775e+09 3.11877e+09 3.11976e+09 1 0
218 1 1 3.12853e+09 3.12879e+09 3.12981e+09 3.1355e+09 1 0
219 1 1 3.14642e+09 3.14668e+09 3.1477e+09 3.19341e+09 0 0
220 1 1 3.20062e+09 3.20089e+09 3.20191e+09 3.22221e+09 0 0
221 2 1 3.22962e+09 3.22988e+09 3.2309e+09 3.23789e+09 0 1
222 1 1 3.247e+09 3.24727e+09 3.24829e+09 3.25094e+09 0 0
223 1 1 3.25936e+09 3.25963e+09 3.26065e+09 3.26567e+09 1 0
224 1 1 3.27539e+09 3.27564e+09 3.27666e+09 3.27777e+09 1 0
225 1 0 3.28738e+09 3.28764e+09 3.28866e+09 3.28869e+09 1 1
226 2 1 3.29786e+09 3.29812e+09 3.29914e+09 3.30065e+09 0 1
227 2 1 3.30584e+09 3.3061e+09 3.30712e+09 3.31123e+09 0 1
228 1 1 3.31486e+09 3.31511e+09 3.31614e+09 3.31867e+09 0 0
229 1 1 3.32576e+09 3.32602e+09 3.32704e+09 3.33973e+09 1 0
230 1 1 3.34708e+09 3.34735e+09 3.34837e+09 3.35325e+09 1 0
231 1 1 3.36407e+09 3.36433e+09 3.36535e+09 3.37082e+09 1 0
232 2 1 3.37797e+09 3.37822e+09 3.37924e+09 3.39073e+09 0 1
233 1 1 3.40684e+09 3.40709e+09 3.40811e+09 3.41018e+09 0 0
234 1 0 3.41793e+09 3.41819e+09 3.41921e+09 3.42632e+09 1 1
235 1 0 3.43023e+09 3.43049e+09 3.43151e+09 3.43488e+09 0 1
236 2 1 3.43826e+09 3.43852e+09 3.43954e+09 3.44144e+09 0 1
237 2 1 3.4444e+09 3.44466e+09 3.44569e+09 3.44679e+09 0 1
238 1 1 3.45121e+09 3.45148e+09 3.4525e+09 3.4527e+09 0 0
239 1 1 3.46034e+09 3.4606e+09 3.46162e+09 3.46297e+09 1 0
240 1 1 3.47913e+09 3.47938e+09 3.4804e+09 3.50468e+09 1 0
241 1 1 3.51188e+09 3.51214e+09 3.51316e+09 3.52406e+09 1 0
242 1 1 3.54403e+09 3.54429e+09 3.54531e+09 3.55104e+09 0 0
243 2 1 3.55848e+09 3.55873e+09 3.55976e+09 3.5676e+09 0 1
244 2 1 3.57371e+09 3.57396e+09 3.57498e+09 3.575e+09 0 1
245 1 1 3.57914e+09 3.5794e+09 3.58042e+09 3.58241e+09 0 0
246 1 1 3.59898e+09 3.59925e+09 3.60027e+09 3.60505e+09 1 0
247 1 1 3.61583e+09 3.61609e+09 3.61711e+09 3.62092e+09 1 0
248 1 1 3.62964e+09 3.62989e+09 3.63091e+09 3.65732e+09 1 0
249 1 1 3.66464e+09 3.6649e+09 3.66592e+09 3.71056e+09 0 0
250 1 1 3.71877e+09 3.71904e+09 3.72006e+09 3.72021e+09 0 0
251 2 1 3.73054e+09 3.7308e+09 3.73182e+09 3.73298e+09 0 1
252 1 1 3.73569e+09 3.73594e+09 3.73696e+09 3.73774e+09 0 0
253 1 1 3.75155e+09 3.75181e+09 3.75283e+09 3.75355e+09 1 0
254 1 1 3.76457e+09 3.76483e+09 3.76585e+09 3.77213e+09 1 0
255 1 1 3.7811e+09 3.78136e+09 3.78238e+09 3.80019e+09 1 0
256 1 1 3.80764e+09 3.80789e+09 3.80891e+09 3.81999e+09 0 0
257 1 1 3.8273e+09 3.82756e+09 3.82858e+09 3.84753e+09 0 0
258 1 1 3.85485e+09 3.8551e+09 3.85612e+09 3.89344e+09 0 0
259 2 1 3.90376e+09 3.90402e+09 3.90504e+09 3.90733e+09 0 1
260 2 1 3.92826e+09 3.92852e+09 3.92954e+09 3.93068e+09 0 1
261 1 1 3.94256e+09 3.94281e+09 3.94383e+09 3.98284e+09 0 0
262 1 1 3.99014e+09 3.9904e+09 3.99142e+09 4.03133e+09 1 0
263 1 1 4.03837e+09 4.03864e+09 4.03966e+09 4.0516e+09 1 0
264 1 1 4.06341e+09 4.06366e+09 4.06468e+09 4.0661e+09 1 0
265 2 1 4.07364e+09 4.0739e+09 4.07492e+09 4.08318e+09 0 1
266 2 1 4.0871e+09 4.08735e+09 4.08837e+09 4.08843e+09 0 1
267 2 1 4.09361e+09 4.09387e+09 4.09489e+09 4.0949e+09 0 1
268 2 1 4.0977e+09 4.09796e+09 4.09898e+09 4.09928e+09 0 1
269 1 1 4.10541e+09 4.10567e+09 4.10669e+09 4.10694e+09 0 0
270 1 1 4.11722e+09 4.11749e+09 4.11851e+09 4.13923e+09 1 0
271 1 1 4.14713e+09 4.14738e+09 4.1484e+09 4.15374e+09 1 0
272 1 1 4.1608e+09 4.16107e+09 4.16209e+09 4.19197e+09 1 0
273 2 1 4.19927e+09 4.19953e+09 4.20055e+09 4.20056e+09 0 1
274 1 1 4.21393e+09 4.21419e+09 4.21521e+09 4.21772e+09 0 0
275 1 1 4.22731e+09 4.22756e+09 4.22858e+09 4.24461e+09 1 0
276 1 1 4.25175e+09 4.25201e+09 4.25303e+09 4.25838e+09 1 0
277 1 1 4.26555e+09 4.26581e+09 4.26683e+09 3.45555e+06 1 0
278 1 1 1.0753e+07 1.09968e+07 1.20171e+07 7.35804e+07 0 0
279 1 1 8.07035e+07 8.09695e+07 8.19898e+07 1.04337e+08 0 0
280 2 1 1.11922e+08 1.1218e+08 1.132e+08 1.16248e+08 0 1
281 2 1 1.29562e+08 1.29818e+08 1.30838e+08 1.30882e+08 0 1
282 1 1 1.4164e+08 1.41907e+08 1.42927e+08 1.60086e+08 0 0
283 1 1 1.67175e+08 1.67437e+08 1.68457e+08 1.69895e+08 1 0
284 1 1 1.77231e+08 1.7749e+08 1.7851e+08 1.85757e+08 1 0
285 1 1 1.93077e+08 1.9333e+08 1.9435e+08 2.18853e+08 1 0
286 2 1 2.27478e+08 2.27732e+08 2.28752e+08 2.48446e+08 0 1
287 2 1 2.51252e+08 2.51506e+08 2.52526e+08 2.53623e+08 0 1
288 2 0 2.62359e+08 2.62626e+08 2.63646e+08 2.66412e+08 0 0
289 2 1 2.73892e+08 2.74145e+08 2.75165e+08 2.75473e+08 1 1
290 2 1 2.83422e+08 2.83686e+08 2.84706e+08 2.90416e+08 0 1
291 1 0 2.93772e+08 2.94033e+08 2.95053e+08 2.95241e+08 0 1
292 2 1 2.97916e+08 2.98168e+08 2.99188e+08 3.01077e+08 0 1
293 2 1 3.03694e+08 3.03947e+08 3.04967e+08 3.13803e+08 0 1
294 2 1 3.26614e+08 3.26865e+08 3.27885e+08 3.31972e+08 0 1
295 1 1 3.37345e+08 3.37598e+08 3.38618e+08 3.49108e+08 0 0
296 1 1 3.56242e+08 3.56495e+08 3.57515e+08 3.6625e+08 1 0
297 1 1 3.73564e+08 3.73822e+08 3.74842e+08 4.01001e+08 1 0
298 1 0 4.08356e+08 4.08612e+08 4.09633e+08 4.09717e+08 1 1
299 2 1 4.23134e+08 4.2339e+08 4.2441e+08 4.25001e+08 0 1
300 2 0 4.28491e+08 4.28744e+08 4.29764e+08 4.36676e+08 0 0
301 2 0 4.4377e+08 4.44023e+08 4.45043e+08 4.47294e+08 1 0
302 2 1 4.54725e+08 4.54986e+08 4.56007e+08 4.56447e+08 1 1
303 2 0 4.62021e+08 4.62285e+08 4.63305e+08 4.71533e+08 0 0
304 2 1 4.95411e+08 4.95676e+08 4.96696e+08 4.97196e+08 1 1
305 2 1 5.02159e+08 5.02422e+08 5.03442e+08 5.21781e+08 0 1
306 1 1 5.2847e+08 5.28739e+08 5.29759e+08 5.40132e+08 0 0
307 1 1 5.50325e+08 5.50576e+08 5.51597e+08 5.52616e+08 1 0
308 1 1 5.59939e+08 5.60191e+08 5.61211e+08 5.62175e+08 1 0
309 1 1 5.69227e+08 5.69486e+08 5.70507e+08 5.74125e+08 1 0
310 2 1 5.83263e+08 5.83509e+08 5.8453e+08 6.03893e+08 0 1
311 2 1 6.08548e+08 6.08813e+08 6.09834e+08 6.11473e+08 0 1
312 2 1 6.17475e+08 6.17727e+08 6.18748e+08 6.194e+08 0 1
313 1 1 6.24097e+08 6.24351e+08 6.25371e+08 6.29659e+08 0 0
314 1 1 6.36762e+08 6.37029e+08 6.38049e+08 6.3929e+08 1 0
315 1 1 6.46512e+08 6.46764e+08 6.47785e+08 6.50613e+08 1 0
316 1 0 6.59834e+08 6.60089e+08 6.61109e+08 6.6793e+08 1 1
317 2 0 6.71566e+08 6.71817e+08 6.72838e+08 6.75788e+08 0 0
318 2 1 6.83036e+08 6.83307e+08 6.84328e+08 6.84532e+08 1 1
319 2 1 6.8878e+08 6.89034e+08 6.90055e+08 6.91225e+08 0 1
320 2 1 6.94001e+08 6.94263e+08 6.95283e+08 6.96146e+08 0 1
321 1 0 7.04837e+08 7.05091e+08 7.06111e+08 7.16187e+08 0 1
322 2 1 7.23268e+08 7.23523e+08 7.24543e+08 7.24585e+08 0 1
323 1 1 7.29298e+08 7.29543e+08 7.30564e+08 7.31249e+08 0 0
324 1 1 7.3967e+08 7.39933e+08 7.40953e+08 7.58668e+08 1 0
325 1 1 7.68559e+08 7.68822e+08 7.69842e+08 7.88759e+08 1 0
326 1 1 7.97576e+08 7.97837e+08 7.98857e+08 7.99599e+08 1 0
327 2 0 8.08788e+08 8.09046e+08 8.10066e+08 8.11478e+08 0 0
328 1 1 8.38345e+08 8.38605e+08 8.39625e+08 8.39957e+08 0 0
329 2 1 8.47088e+08 8.47345e+08 8.48365e+08 8.4908e+08 0 1
330 2 1 8.5607e+08 8.56329e+08 8.57349e+08 8.61787e+08 0 1
331 1 1 8.70516e+08 8.7077e+08 8.7179e+08 9.11736e+08 0 0
332 1 1 9.20812e+08 9.21073e+08 9.22094e+08 9.22564e+08 1 0
333 1 0 9.33378e+08 9.33647e+08 9.34667e+08 9.36027e+08 1 1
334 1 1 9.39124e+08 9.39375e+08 9.40396e+08 9.41052e+08 0 0
335 1 1 9.51554e+08 9.51806e+08 9.52826e+08 9.53839e+08 1 0
336 1 1 9.63795e+08 9.64052e+08 9.65072e+08 9.68569e+08 1 0
337 1 1 9.75879e+08 9.76134e+08 9.77154e+08 9.84929e+08 1 0
338 2 1 9.94335e+08 9.94592e+08 9.95613e+08 9.97046e+08 0 1
339 1 1 1.00113e+09 1.00139e+09 1.00241e+09 1.01402e+09 0 0
340 1 1 1.02297e+09 1.02324e+09 1.02426e+09 1.02723e+09 1 0
341 1 1 1.03684e+09 1.0371e+09 1.03812e+09 1.03813e+09 1 0
342 1 1 1.04541e+09 1.04567e+09 1.04669e+09 1.04918e+09 1 0
343 2 1 1.05675e+09 1.05701e+09 1.05803e+09 1.05933e+09 0 1
344 2 1 1.06978e+09 1.07003e+09 1.07105e+09 1.0816e+09 0 1
345 1 1 1.09078e+09 1.09103e+09 1.09205e+09 1.09263e+09 0 0
346 1 1 1.09989e+09 1.10015e+09 1.10117e+09 1.11863e+09 1 0
347 1 1 1.12566e+09 1.12592e+09 1.12694e+09 1.14463e+09 1 0
348 1 1 1.15349e+09 1.15374e+09 1.15476e+09 1.18293e+09 1 0
349 1 1 1.19295e+09 1.19322e+09 1.19424e+09 1.1962e+09 0 0
350 1 1 1.20365e+09 1.20391e+09 1.20493e+09 1.20609e+09 0 0
351 1 1 1.21845e+09 1.2187e+09 1.21973e+09 1.22994e+09 0 0
352 1 1 1.23715e+09 1.2374e+09 1.23842e+09 1.24e+09 0 0
353 1 1 1.24717e+09 1.24742e+09 1.24844e+09 1.25829e+09 0 0
354 1 1 1.26574e+09 1.26598e+09 1.267e+09 1.29808e+09 0 0
355 2 1 1.30553e+09 1.30579e+09 1.30681e+09 1.31914e+09 0 1
356 2 1 1.33461e+09 1.33486e+09 1.33588e+09 1.33596e+09 0 1
357 2 0 1.34453e+09 1.34478e+09 1.3458e+09 1.34677e+09 0 0
358 2 1 1.35389e+09 1.35414e+09 1.35516e+09 1.35568e+09 1 1
359 1 1 1.3614e+09 1.36166e+09 1.36268e+09 1.37841e+09 0 0
360 1 1 1.38547e+09 1.38572e+09 1.38674e+09 1.40582e+09 1 0
361 1 1 1.41292e+09 1.41317e+09 1.41419e+09 1.43382e+09 1 0
362 1 1 1.44535e+09 1.44561e+09 1.44663e+09 1.45238e+09 1 0
363 1 1 1.45988e+09 1.46013e+09 1.46115e+09 1.46323e+09 0 0
364 1 1 1.4714e+09 1.47166e+09 1.47268e+09 1.47496e+09 0 0
365 2 1 1.48617e+09 1.48644e+09 1.48746e+09 1.48762e+09 0 1
366 1 1 1.49398e+09 1.49425e+09 1.49527e+09 1.49829e+09 0 0
367 1 1 1.50559e+09 1.50585e+09 1.50687e+09 1.51935e+09 1 0
368 1 1 1.52666e+09 1.52692e+09 1.52794e+09 1.53267e+09 1 0
369 1 1 1.54009e+09 1.54035e+09 1.54137e+09 1.5457e+09 1 0
370 1 1 1.55432e+09 1.55457e+09 1.55559e+09 1.56206e+09 0 0
371 1 1 1.58157e+09 1.58183e+09 1.58285e+09 1.60172e+09 0 0
372 2 1 1.61548e+09 1.61572e+09 1.61674e+09 1.61727e+09 0 1
373 2 1 1.62676e+09 1.62702e+09 1.62804e+09 1.63558e+09 0 1
374 1 1 1.64367e+09 1.64393e+09 1.64495e+09 1.66061e+09 0 0
375 1 1 1.67684e+09 1.6771e+09 1.67812e+09 1.68143e+09 1 0
376 1 1 1.69214e+09 1.69239e+09 1.69341e+09 1.69629e+09 1 0
377 1 1 1.70658e+09 1.70683e+09 1.70785e+09 1.72113e+09 1 0
378 2 1 1.72916e+09 1.72941e+09 1.73043e+09 1.73049e+09 0 1
379 1 1 1.73749e+09 1.73774e+09 1.73876e+09 1.75353e+09 0 0
380 1 1 1.7617e+09 1.76196e+09 1.76298e+09 1.77968e+09 1 0
381 1 1 1.79405e+09 1.79431e+09 1.79533e+09 1.83969e+09 1 0
382 1 1 1.85012e+09 1.85036e+09 1.85138e+09 1.85488e+09 1 0
383 1 1 1.86239e+09 1.86265e+09 1.86367e+09 1.88057e+09 0 0
384 2 1 1.88809e+09 1.88834e+09 1.88936e+09 1.91128e+09 0 1
385 1 1 1.91829e+09 1.91855e+09 1.91957e+09 1.92935e+09 0 0
386 1 1 1.93662e+09 1.93688e+09 1.9379e+09 1.95263e+09 1 0
387 1 1 1.96541e+09 1.96566e+09 1.96668e+09 1.96703e+09 1 0
388 1 1 1.97648e+09 1.97673e+09 1.97775e+09 1.98815e+09 1 0
389 1 1 1.99564e+09 1.9959e+09 1.99692e+09 2.00587e+09 0 0
390 1 1 2.013e+09 2.01326e+09 2.01428e+09 2.01887e+09 0 0
391 1 1 2.02606e+09 2.02632e+09 2.02734e+09 2.03501e+09 0 0
392 1 1 2.04276e+09 2.04302e+09 2.04404e+09 2.05787e+09 0 0
393 1 1 2.06521e+09 2.06547e+09 2.06649e+09 2.07126e+09 0 0
394 2 1 2.0801e+09 2.08035e+09 2.08138e+09 2.08186e+09 0 1
395 1 1 2.11376e+09 2.11401e+09 2.11503e+09 2.1253e+09 0 0
396 1 1 2.13335e+09 2.13361e+09 2.13463e+09 2.13614e+09 1 0
397 1 1 2.14364e+09 2.14389e+09 2.14491e+09 2.14525e+09 1 0
398 1 1 2.15266e+09 2.15292e+09 2.15394e+09 2.15525e+09 1 0
399 2 1 2.16268e+09 2.16293e+09 2.16395e+09 2.16868e+09 0 1
400 2 1 2.17352e+09 2.17378e+09 2.1748e+09 2.17868e+09 0 1
401 2 1 2.18392e+09 2.18417e+09 2.18519e+09 2.18539e+09 0 1
402 1 1 2.18847e+09 2.18873e+09 2.18975e+09 2.1898e+09 0 0
403 1 1 2.1973e+09 2.19755e+09 2.19857e+09 2.19989e+09 1 0
404 1 1 2.20719e+09 2.20744e+09 2.20846e+09 2.20958e+09 1 0
405 1 1 2.21691e+09 2.21717e+09 2.21819e+09 2.22833e+09 1 0
406 1 1 2.2358e+09 2.23605e+09 2.23707e+09 2.25395e+09 0 0
407 2 1 2.26181e+09 2.26208e+09 2.2631e+09 2.26528e+09 0 1
408 1 1 2.2744e+09 2.27465e+09 2.27567e+09 2.27763e+09 0 0
409 1 1 2.28642e+09 2.28667e+09 2.28769e+09 2.2918e+09 1 0
410 1 1 2.29906e+09 2.29932e+09 2.30034e+09 2.30057e+09 1 0
411 1 1 2.30943e+09 2.30968e+09 2.3107e+09 2.31167e+09 1 0
412 2 0 2.32751e+09 2.32777e+09 2.32879e+09 2.3293e+09 0 0
413 2 1 2.34014e+09 2.34039e+09 2.34141e+09 2.35656e+09 0 1
414 2 1 2.36069e+09 2.36095e+09 2.36197e+09 2.36699e+09 0 1
415 2 0 2.37016e+09 2.37042e+09 2.37144e+09 2.37731e+09 0 0
416 2 0 2.38464e+09 2.3849e+09 2.38592e+09 2.38601e+09 1 0
417 2 1 2.39513e+09 2.39539e+09 2.39641e+09 2.40366e+09 1 1
418 2 1 2.40635e+09 2.40662e+09 2.40764e+09 2.41613e+09 0 1
419 2 1 2.41995e+09 2.4202e+09 2.42122e+09 2.42126e+09 0 1
420 1 1 2.42429e+09 2.42455e+09 2.42557e+09 2.42581e+09 0 0
421 1 1 2.43509e+09 2.43534e+09 2.43636e+09 2.43653e+09 1 0
422 1 1 2.44658e+09 2.44684e+09 2.44786e+09 2.44917e+09 1 0
423 1 1 2.45762e+09 2.45788e+09 2.4589e+09 2.4686e+09 1 0
424 2 1 2.47788e+09 2.47813e+09 2.47915e+09 2.47946e+09 0 1
425 1 1 2.48208e+09 2.48232e+09 2.48334e+09 2.48351e+09 0 0
426 1 1 2.49511e+09 2.49537e+09 2.49639e+09 2.49899e+09 1 0
427 1 1 2.50947e+09 2.50973e+09 2.51075e+09 2.51321e+09 1 0
428 1 1 2.53367e+09 2.53394e+09 2.53496e+09 2.53543e+09 1 0
429 2 1 2.54297e+09 2.54324e+09 2.54426e+09 2.58082e+09 0 1
430 2 0 2.58533e+09 2.58558e+09 2.5866e+09 2.58666e+09 0 0
431 2 1 2.59707e+09 2.59732e+09 2.59834e+09 2.59859e+09 1 1
432 2 1 2.614e+09 2.61425e+09 2.61527e+09 2.62476e+09 0 1
433 1 1 2.62782e+09 2.62807e+09 2.62909e+09 2.63633e+09 0 0
434 1 0 2.64349e+09 2.64375e+09 2.64477e+09 2.64714e+09 1 1
435 2 1 2.65029e+09 2.65055e+09 2.65157e+09 2.65207e+09 0 1
436 2 0 2.65494e+09 2.65519e+09 2.65621e+09 2.65668e+09 0 0
437 2 1 2.66386e+09 2.66411e+09 2.66513e+09 2.66598e+09 1 1
438 1 1 2.67238e+09 2.67263e+09 2.67365e+09 2.67426e+09 0 0
439 1 0 2.68183e+09 2.68207e+09 2.68309e+09 2.6845e+09 1 1
440 1 1 2.69112e+09 2.69139e+09 2.69241e+09 2.69464e+09 0 0
441 1 1 2.70168e+09 2.70194e+09 2.70296e+09 2.71225e+09 1 0
442 1 1 2.71956e+09 2.71981e+09 2.72083e+09 2.72919e+09 1 0
443 1 1 2.7365e+09 2.73675e+09 2.73777e+09 2.74757e+09 1 0
444 2 0 2.7548e+09 2.75505e+09 2.75607e+09 2.75998e+09 0 0
445 2 1 2.77502e+09 2.77526e+09 2.77628e+09 2.7775e+09 0 1
446 1 1 2.78368e+09 2.78393e+09 2.78495e+09 2.78533e+09 0 0
447 1 0 2.79628e+09 2.79653e+09 2.79755e+09 2.79818e+09 1 1
448 1 0 2.80449e+09 2.80475e+09 2.80577e+09 2.80719e+09 0 1
449 2 1 2.81622e+09 2.81648e+09 2.8175e+09 2.81976e+09 0 1
450 1 1 2.82412e+09 2.82437e+09 2.82539e+09 2.83479e+09 0 0
451 1 1 2.84441e+09 2.84467e+09 2.84569e+09 2.87508e+09 1 0
452 1 1 2.88395e+09 2.8842e+09 2.88522e+09 2.88525e+09 1 0
453 1 1 2.89774e+09 2.898e+09 2.89902e+09 2.90318e+09 1 0
454 1 1 2.91177e+09 2.91203e+09 2.91305e+09 2.91486e+09 0 0
455 2 1 2.92219e+09 2.92245e+09 2.92347e+09 2.9535e+09 0 1
456 2 1 2.95958e+09 2.95983e+09 2.96085e+09 2.96134e+09 0 1
457 2 1 2.97609e+09 2.97633e+09 2.97736e+09 2.97742e+09 0 1
458 2 1 2.98232e+09 2.98257e+09 2.98359e+09 2.98797e+09 0 1
459 2 1 2.99457e+09 2.99483e+09 2.99585e+09 2.99652e+09 0 1
460 2 1 3.00164e+09 3.0019e+09 3.00292e+09 3.00564e+09 0 1
461 2 1 3.00966e+09 3.00991e+09 3.01093e+09 3.01124e+09 0 1
462 1 1 3.01872e+09 3.01896e+09 3.01998e+09 3.02006e+09 0 0
463 1 1 3.03007e+09 3.03032e+09 3.03134e+09 3.03206e+09 1 0
464 1 1 3.04034e+09 3.0406e+09 3.04162e+09 3.04275e+09 1 0
465 1 1 3.05009e+09 3.05035e+09 3.05137e+09 3.09231e+09 1 0
466 2 1 3.09952e+09 3.09979e+09 3.10081e+09 3.11648e+09 0 1
467 1 1 3.12673e+09 3.12699e+09 3.12801e+09 3.12908e+09 0 0
468 1 1 3.14012e+09 3.14037e+09 3.14139e+09 3.14154e+09 1 0
469 1 1 3.15915e+09 3.1594e+09 3.16042e+09 3.16061e+09 1 0
470 1 1 3.16776e+09 3.16802e+09 3.16904e+09 3.16904e+09 1 0
471 2 1 3.18209e+09 3.18234e+09 3.18336e+09 3.18624e+09 0 1
472 1 0 3.18883e+09 3.18908e+09 3.1901e+09 3.19056e+09 0 1
473 2 1 3.19763e+09 3.19788e+09 3.1989e+09 3.24319e+09 0 1
474 2 1 3.25496e+09 3.25522e+09 3.25624e+09 3.26306e+09 0 1
475 1 1 3.26956e+09 3.26981e+09 3.27083e+09 3.28624e+09 0 0
476 1 0 3.29375e+09 3.29401e+09 3.29503e+09 3.29513e+09 1 1
477 1 1 3.3008e+09 3.30106e+09 3.30208e+09 3.3027e+09 0 0
478 1 1 3.31012e+09 3.31037e+09 3.31139e+09 3.31538e+09 1 0
479 1 1 3.32562e+09 3.32587e+09 3.32689e+09 3.33784e+09 1 0
480 1 1 3.3453e+09 3.34555e+09 3.34657e+09 3.34918e+09 1 0
481 1 1 3.3582e+09 3.35846e+09 3.35948e+09 3.3598e+09 0 0
482 2 1 3.36966e+09 3.36992e+09 3.37094e+09 3.37098e+09 0 1
483 2 1 3.37386e+09 3.37413e+09 3.37515e+09 3.37615e+09 0 1
484 1 1 3.38794e+09 3.38819e+09 3.38921e+09 3.39702e+09 0 0
485 1 1 3.41121e+09 3.41146e+09 3.41248e+09 3.41413e+09 1 0
486 1 1 3.4214e+09 3.42166e+09 3.42268e+09 3.42389e+09 1 0
487 1 1 3.43111e+09 3.43136e+09 3.43238e+09 3.43618e+09 1 0
488 2 1 3.44364e+09 3.4439e+09 3.44492e+09 3.45188e+09 0 1
489 2 1 3.46278e+09 3.46303e+09 3.46405e+09 3.47122e+09 0 1
490 1 1 3.47723e+09 3.47748e+09 3.4785e+09 3.47852e+09 0 0
491 1 1 3.49416e+09 3.49442e+09 3.49544e+09 3.53266e+09 1 0
492 1 1 3.53979e+09 3.54004e+09 3.54106e+09 3.58276e+09 1 0
493 1 1 3.59781e+09 3.59807e+09 3.59909e+09 3.61117e+09 1 0
494 2 1 3.61838e+09 3.61864e+09 3.61966e+09 3.62004e+09 0 1
495 1 1 3.62393e+09 3.62419e+09 3.62521e+09 3.62619e+09 0 0
496 1 1 3.63409e+09 3.63435e+09 3.63537e+09 3.63538e+09 1 0
497 1 1 3.64331e+09 3.64357e+09 3.64459e+09 3.64462e+09 1 0
498 1 1 3.65425e+09 3.65452e+09 3.65554e+09 3.65724e+09 1 0
499 2 1 3.67276e+09 3.67302e+09 3.67404e+09 3.6742e+09 0 1
500 1 1 3.68131e+09 3.68157e+09 3.68259e+09 3.68427e+09 0 0
501 1 1 3.69215e+09 3.6924e+09 3.69342e+09 3.69344e+09 1 0
502 1 1 3.70456e+09 3.70482e+09 3.70584e+09 3.7116e+09 1 0
503 1 1 3.71902e+09 3.71928e+09 3.7203e+09 3.72197e+09 1 0
504 2 1 3.73029e+09 3.73055e+09 3.73157e+09 3.73703e+09 0 1
505 1 1 3.73995e+09 3.74021e+09 3.74123e+09 3.74614e+09 0 0
506 1 1 3.75335e+09 3.7536e+09 3.75462e+09 3.75683e+09 1 0
507 1 1 3.76403e+09 3.76429e+09 3.76531e+09 3.76829e+09 1 0
508 1 1 3.77931e+09 3.77956e+09 3.78058e+09 3.79188e+09 1 0
509 1 1 3.81911e+09 3.81938e+09 3.8204e+09 3.82102e+09 0 0
510 1 1 3.83484e+09 3.83509e+09 3.83611e+09 3.85852e+09 0 0
511 2 1 3.8666e+09 3.86687e+09 3.86789e+09 3.8683e+09 0 1
512 1 0 3.87134e+09 3.8716e+09 3.87262e+09 3.87292e+09 0 1
513 1 1 3.87631e+09 3.87656e+09 3.87758e+09 3.8785e+09 0 0
514 1 0 3.88994e+09 3.8902e+09 3.89122e+09 3.89129e+09 1 1
515 1 1 3.89409e+09 3.89435e+09 3.89537e+09 3.89601e+09 0 0
516 1 1 3.92204e+09 3.92229e+09 3.92331e+09 3.92427e+09 1 0
517 1 0 3.94216e+09 3.94241e+09 3.94343e+09 3.94379e+09 1 1
518 2 1 3.94671e+09 3.94698e+09 3.948e+09 3.94933e+09 0 1
519 1 1 3.95402e+09 3.95427e+09 3.95529e+09 3.95787e+09 0 0
520 1 1 3.96738e+09 3.96764e+09 3.96866e+09 3.96888e+09 1 0
521 1 1 3.97622e+09 3.97648e+09 3.9775e+09 3.97834e+09 1 0
522 1 1 3.98599e+09 3.98625e+09 3.98727e+09 3.99162e+09 1 0
523 2 1 3.99916e+09 3.99941e+09 4.00043e+09 4.00219e+09 0 1
524 1 1 4.00611e+09 4.00637e+09 4.00739e+09 4.01548e+09 0 0
525 1 1 4.02296e+09 4.02321e+09 4.02423e+09 4.03681e+09 1 0
526 1 1 4.04386e+09 4.04412e+09 4.04514e+09 4.0474e+09 1 0
527 1 1 4.05486e+09 4.05512e+09 4.05615e+09 4.05967e+09 1 0
528 2 1 4.06685e+09 4.06711e+09 4.06813e+09 4.06863e+09 0 1
529 1 1 4.07516e+09 4.07541e+09 4.07643e+09 4.07771e+09 0 0
530 1 1 4.09917e+09 4.09942e+09 4.10044e+09 4.10218e+09 1 0
531 1 1 4.1098e+09 4.11007e+09 4.11109e+09 4.11863e+09 1 0
532 1 1 4.127e+09 4.12726e+09 4.12828e+09 4.13028e+09 1 0
533 1 1 4.14574e+09 4.14601e+09 4.14703e+09 4.15403e+09 0 0
534 1 1 4.17335e+09 4.17361e+09 4.17463e+09 4.17657e+09 0 0
535 1 1 4.18393e+09 4.18419e+09 4.18521e+09 4.18562e+09 0 0
536 2 1 4.19699e+09 4.19724e+09 4.19826e+09 4.20082e+09 0 1
537 1 0 4.21846e+09 4.21873e+09 4.21975e+09 8.24099e+07 0 1
