trial trialType response stillTime stimOnset stimOffset respTime correctionTrial correct
001 1 1 3.3188e+06 3.61394e+06 4.63422e+06 9.05037e+06 0 0
002 1 1 1.93536e+07 1.96132e+07 2.06335e+07 2.7243e+07 1 0
003 1 0 3.43501e+07 3.46234e+07 3.56437e+07 3.60912e+07 1 1
004 2 1 4.50222e+07 4.52744e+07 4.62947e+07 4.77465e+07 0 1
005 1 1 5.78724e+07 5.81297e+07 5.91499e+07 6.87447e+07 0 0
006 1 0 7.60535e+07 7.63212e+07 7.73415e+07 7.89105e+07 1 1
007 2 1 8.29327e+07 8.31967e+07 8.4217e+07 9.31744e+07 0 1
008 1 1 9.7707e+07 9.79734e+07 9.89937e+07 1.0651e+08 0 0
009 1 1 1.1396e+08 1.14224e+08 1.15244e+08 1.15894e+08 1 0
010 1 1 1.23132e+08 1.23408e+08 1.24428e+08 1.39547e+08 1 0
011 1 1 1.4703e+08 1.47305e+08 1.48326e+08 1.5507e+08 1 0
012 2 0 1.65057e+08 1.65327e+08 1.66347e+08 1.68786e+08 0 0
013 2 1 1.76346e+08 1.76604e+08 1.77625e+08 1.90845e+08 0 1
014 2 0 1.9665e+08 1.96906e+08 1.97926e+08 2.0143e+08 0 0
015 2 0 2.08955e+08 2.09203e+08 2.10223e+08 2.15909e+08 1 0
016 2 1 2.22939e+08 2.23195e+08 2.24215e+08 2.24994e+08 1 1
017 2 1 2.30392e+08 2.30644e+08 2.31665e+08 2.55154e+08 0 1
018 1 1 2.58967e+08 2.59225e+08 2.60246e+08 2.64725e+08 0 0
019 1 1 2.72088e+08 2.72353e+08 2.73373e+08 2.7429e+08 1 0
020 1 1 2.81436e+08 2.81702e+08 2.82722e+08 2.82924e+08 1 0
021 1 1 2.90253e+08 2.90509e+08 2.91529e+08 2.99418e+08 1 0
022 2 1 3.06686e+08 3.06943e+08 3.07964e+08 3.1331e+08 0 1
023 2 1 3.21284e+08 3.21549e+08 3.2257e+08 3.23777e+08 0 1
024 2 1 3.29602e+08 3.29862e+08 3.30882e+08 3.32416e+08 0 1
025 1 0 3.35286e+08 3.35542e+08 3.36562e+08 3.63407e+08 0 1
026 2 1 3.68129e+08 3.68383e+08 3.69403e+08 3.7132e+08 0 1
027 2 1 3.77412e+08 3.77672e+08 3.78692e+08 4.0846e+08 0 1
028 2 1 4.12939e+08 4.13192e+08 4.14212e+08 4.39487e+08 0 1
029 1 0 4.44018e+08 4.44273e+08 4.45294e+08 4.54378e+08 0 1
030 1 0 4.5782e+08 4.58085e+08 4.59106e+08 4.73935e+08 0 1
031 2 1 4.76898e+08 4.77152e+08 4.78172e+08 4.83565e+08 0 1
032 2 1 4.90884e+08 4.91141e+08 4.92162e+08 4.94256e+08 0 1
033 1 1 4.96765e+08 4.97034e+08 4.98054e+08 4.9961e+08 0 0
034 1 1 5.10029e+08 5.10283e+08 5.11303e+08 5.11517e+08 1 0
035 1 1 5.18854e+08 5.19106e+08 5.20126e+08 5.22303e+08 1 0
036 1 1 5.31194e+08 5.31457e+08 5.32478e+08 5.33845e+08 1 0
037 2 1 5.41427e+08 5.41674e+08 5.42694e+08 5.44913e+08 0 1
038 1 0 5.4767e+08 5.47935e+08 5.48955e+08 5.59214e+08 0 1
039 1 0 5.63138e+08 5.63395e+08 5.64415e+08 5.64816e+08 0 1
040 1 1 5.69331e+08 5.69592e+08 5.70612e+08 5.71012e+08 0 0
041 1 1 5.81547e+08 5.81806e+08 5.82826e+08 5.83248e+08 1 0
042 1 1 5.90464e+08 5.90717e+08 5.91737e+08 5.9177e+08 1 0
043 1 1 6.02236e+08 6.02492e+08 6.03513e+08 6.04786e+08 1 0
044 2 0 6.15497e+08 6.15751e+08 6.16771e+08 6.17362e+08 0 0
045 2 1 6.26259e+08 6.26517e+08 6.27538e+08 6.27552e+08 0 1
046 1 0 6.34163e+08 6.34409e+08 6.35429e+08 6.45839e+08 0 1
047 2 1 6.58346e+08 6.58612e+08 6.59632e+08 6.64377e+08 0 1
048 2 1 6.67931e+08 6.68181e+08 6.69201e+08 6.72883e+08 0 1
049 2 0 6.77037e+08 6.77294e+08 6.78314e+08 6.80402e+08 0 0
050 2 1 6.91257e+08 6.91513e+08 6.92534e+08 6.92731e+08 1 1
051 2 0 6.98755e+08 6.99012e+08 7.00032e+08 7.00063e+08 0 0
052 2 1 7.07244e+08 7.07507e+08 7.08528e+08 7.08544e+08 1 1
053 2 0 7.20309e+08 7.20557e+08 7.21577e+08 7.21585e+08 0 0
054 2 1 7.30521e+08 7.30775e+08 7.31795e+08 7.31937e+08 1 1
055 2 1 7.36939e+08 7.37197e+08 7.38217e+08 7.38267e+08 0 1
056 2 1 7.4526e+08 7.45522e+08 7.46543e+08 7.47952e+08 0 1
057 1 1 7.5535e+08 7.55613e+08 7.56633e+08 7.57305e+08 0 0
058 1 1 7.6486e+08 7.65114e+08 7.66135e+08 7.66432e+08 1 0
059 1 1 7.75154e+08 7.75411e+08 7.76431e+08 7.79208e+08 1 0
060 1 1 7.98984e+08 7.99236e+08 8.00256e+08 8.00285e+08 1 0
061 1 1 8.13791e+08 8.14047e+08 8.15067e+08 8.16046e+08 0 0
062 1 1 8.267e+08 8.26955e+08 8.27975e+08 8.29542e+08 0 0
063 1 1 8.36694e+08 8.36943e+08 8.37963e+08 8.38437e+08 0 0
064 2 1 8.48658e+08 8.48911e+08 8.49932e+08 8.51469e+08 0 1
065 1 1 8.58434e+08 8.58694e+08 8.59714e+08 8.60045e+08 0 0
066 1 0 8.67431e+08 8.67695e+08 8.68715e+08 8.68761e+08 1 1
067 1 0 8.79128e+08 8.79393e+08 8.80413e+08 8.81061e+08 0 1
068 2 1 8.88765e+08 8.89024e+08 8.90044e+08 8.90095e+08 0 1
069 1 0 8.99266e+08 8.99518e+08 9.00538e+08 9.00661e+08 0 1
070 1 1 9.04451e+08 9.04717e+08 9.05737e+08 9.05786e+08 0 0
071 1 1 9.13437e+08 9.13697e+08 9.14717e+08 9.14806e+08 1 0
072 1 0 9.25265e+08 9.25517e+08 9.26537e+08 9.26669e+08 1 1
073 1 0 9.37952e+08 9.3821e+08 9.39231e+08 9.39281e+08 0 1
074 2 1 9.42904e+08 9.43162e+08 9.44183e+08 9.44446e+08 0 1
075 1 1 9.48282e+08 9.48544e+08 9.49564e+08 9.50838e+08 0 0
076 1 0 9.58187e+08 9.5845e+08 9.5947e+08 9.60194e+08 1 1
077 2 0 9.67509e+08 9.67773e+08 9.68794e+08 9.68805e+08 0 0
078 2 0 9.78008e+08 9.78261e+08 9.79281e+08 9.79319e+08 1 0
079 2 1 9.89718e+08 9.89982e+08 9.91002e+08 1.00035e+09 1 1
080 1 1 1.00311e+09 1.00338e+09 1.0044e+09 1.00503e+09 0 0
081 1 1 1.01926e+09 1.01953e+09 1.02055e+09 1.02119e+09 1 0
082 1 1 1.03022e+09 1.03047e+09 1.03149e+09 1.0322e+09 1 0
083 1 1 1.04288e+09 1.04315e+09 1.04417e+09 1.04434e+09 1 0
084 1 1 1.0563e+09 1.05656e+09 1.05758e+09 1.06133e+09 0 0
085 1 1 1.07029e+09 1.07054e+09 1.07156e+09 1.07241e+09 0 0
086 1 1 1.09288e+09 1.09314e+09 1.09416e+09 1.09417e+09 0 0
087 2 0 1.10655e+09 1.1068e+09 1.10782e+09 1.10784e+09 0 0
088 1 0 1.12166e+09 1.12192e+09 1.12294e+09 1.12306e+09 0 1
089 2 1 1.13116e+09 1.13142e+09 1.13244e+09 1.14508e+09 0 1
090 2 1 1.15037e+09 1.15062e+09 1.15164e+09 1.15174e+09 0 1
091 2 1 1.15942e+09 1.15968e+09 1.1607e+09 1.16792e+09 0 1
092 1 1 1.17197e+09 1.17223e+09 1.17325e+09 1.17624e+09 0 0
093 1 1 1.1847e+09 1.18497e+09 1.18599e+09 1.18602e+09 1 0
094 1 1 1.20081e+09 1.20107e+09 1.20209e+09 1.20563e+09 1 0
095 1 0 1.21852e+09 1.21877e+09 1.21979e+09 1.223e+09 1 1
096 1 1 1.22727e+09 1.22754e+09 1.22856e+09 1.23008e+09 0 0
097 1 1 1.23732e+09 1.2376e+09 1.23862e+09 1.23949e+09 1 0
098 1 1 1.24687e+09 1.24713e+09 1.24815e+09 1.24953e+09 1 0
099 1 0 1.26433e+09 1.26459e+09 1.26561e+09 1.26829e+09 1 1
100 2 1 1.27274e+09 1.27299e+09 1.27401e+09 1.2752e+09 0 1
101 1 1 1.28574e+09 1.28601e+09 1.28703e+09 1.28713e+09 0 0
102 1 1 1.29832e+09 1.29857e+09 1.29959e+09 1.2998e+09 1 0
103 1 1 1.30941e+09 1.30967e+09 1.3107e+09 1.31244e+09 1 0
104 1 1 1.3206e+09 1.32086e+09 1.32188e+09 1.32484e+09 1 0
105 2 1 1.33208e+09 1.33233e+09 1.33335e+09 1.33437e+09 0 1
106 1 1 1.34432e+09 1.34458e+09 1.3456e+09 1.34604e+09 0 0
107 1 1 1.35324e+09 1.35351e+09 1.35453e+09 1.35463e+09 1 0
108 1 1 1.36576e+09 1.36602e+09 1.36704e+09 1.36709e+09 1 0
109 1 0 1.37442e+09 1.37468e+09 1.3757e+09 1.38252e+09 1 1
110 2 0 1.39546e+09 1.39572e+09 1.39674e+09 1.39675e+09 0 0
111 2 1 1.41117e+09 1.41142e+09 1.41244e+09 1.41253e+09 1 1
112 1 0 1.42074e+09 1.42101e+09 1.42203e+09 1.42206e+09 0 1
113 1 1 1.4277e+09 1.42796e+09 1.42898e+09 1.43139e+09 0 0
114 1 1 1.4386e+09 1.43886e+09 1.43988e+09 1.43995e+09 1 0
115 1 1 1.44946e+09 1.44973e+09 1.45075e+09 1.45078e+09 1 0
116 1 1 1.46065e+09 1.4609e+09 1.46192e+09 1.4634e+09 1 0
117 1 1 1.47358e+09 1.47383e+09 1.47485e+09 1.475e+09 0 0
118 1 0 1.4863e+09 1.48656e+09 1.48758e+09 1.48764e+09 0 1
119 1 1 1.50317e+09 1.50343e+09 1.50445e+09 1.50448e+09 0 0
120 1 1 1.51487e+09 1.51512e+09 1.51614e+09 1.52142e+09 1 0
121 1 1 1.53111e+09 1.53137e+09 1.53239e+09 1.53539e+09 1 0
122 1 1 1.54864e+09 1.5489e+09 1.54992e+09 1.55046e+09 1 0
123 2 1 1.55765e+09 1.5579e+09 1.55892e+09 1.55906e+09 0 1
124 1 0 1.56311e+09 1.56335e+09 1.56437e+09 1.56447e+09 0 1
125 2 1 1.57869e+09 1.57895e+09 1.57997e+09 1.58005e+09 0 1
126 2 1 1.58675e+09 1.58701e+09 1.58803e+09 1.58885e+09 0 1
127 2 0 1.59242e+09 1.59268e+09 1.5937e+09 1.59371e+09 0 0
128 2 1 1.60138e+09 1.60163e+09 1.60265e+09 1.60266e+09 1 1
129 1 0 1.60715e+09 1.60741e+09 1.60843e+09 1.60848e+09 0 1
130 1 1 1.61629e+09 1.61655e+09 1.61757e+09 1.61762e+09 0 0
131 1 0 1.6251e+09 1.62535e+09 1.62637e+09 1.62653e+09 1 1
132 2 1 1.62937e+09 1.62963e+09 1.63065e+09 1.63124e+09 0 1
133 2 1 1.63412e+09 1.63439e+09 1.63541e+09 1.63574e+09 0 1
134 2 1 1.64019e+09 1.64045e+09 1.64147e+09 1.64274e+09 0 1
135 1 0 1.64793e+09 1.64819e+09 1.64921e+09 1.64932e+09 0 1
136 2 1 1.65755e+09 1.65781e+09 1.65883e+09 1.65883e+09 0 1
137 2 1 1.66317e+09 1.66342e+09 1.66444e+09 1.66452e+09 0 1
138 2 1 1.67932e+09 1.67958e+09 1.6806e+09 1.68063e+09 0 1
139 1 0 1.68528e+09 1.68555e+09 1.68657e+09 1.68683e+09 0 1
140 2 0 1.69007e+09 1.69033e+09 1.69136e+09 1.69144e+09 0 0
141 2 1 1.70043e+09 1.70069e+09 1.70171e+09 1.70301e+09 1 1
142 1 0 1.70751e+09 1.70777e+09 1.70879e+09 1.70882e+09 0 1
143 2 1 1.7171e+09 1.71737e+09 1.71839e+09 1.71841e+09 0 1
144 1 1 1.73627e+09 1.73653e+09 1.73755e+09 1.73765e+09 0 0
145 1 1 1.75012e+09 1.75038e+09 1.7514e+09 1.75155e+09 1 0
146 1 1 1.76471e+09 1.76497e+09 1.76599e+09 1.76784e+09 1 0
147 1 1 1.77685e+09 1.77711e+09 1.77813e+09 1.77977e+09 1 0
148 1 0 1.7888e+09 1.78906e+09 1.79008e+09 1.79054e+09 0 1
149 2 1 1.80527e+09 1.80552e+09 1.80654e+09 1.80986e+09 0 1
150 1 0 1.82174e+09 1.82202e+09 1.82304e+09 1.82305e+09 0 1
151 2 1 1.82609e+09 1.82635e+09 1.82737e+09 1.82739e+09 0 1
152 1 1 1.84406e+09 1.8443e+09 1.84532e+09 1.84543e+09 0 0
153 1 1 1.8539e+09 1.85417e+09 1.85519e+09 1.8552e+09 1 0
154 1 0 1.87326e+09 1.87352e+09 1.87454e+09 1.8746e+09 1 1
155 1 1 1.88383e+09 1.88409e+09 1.88511e+09 1.88514e+09 0 0
156 1 1 1.89603e+09 1.89629e+09 1.89731e+09 1.89742e+09 1 0
157 1 1 1.90739e+09 1.90766e+09 1.90868e+09 1.90872e+09 1 0
158 1 1 1.92088e+09 1.92113e+09 1.92215e+09 1.92244e+09 1 0
159 1 1 1.93147e+09 1.93173e+09 1.93275e+09 1.93276e+09 0 0
160 2 1 1.94189e+09 1.94214e+09 1.94316e+09 1.94648e+09 0 1
161 1 0 1.96181e+09 1.96206e+09 1.96308e+09 1.96314e+09 0 1
162 1 1 1.97065e+09 1.97091e+09 1.97193e+09 1.97194e+09 0 0
163 1 0 1.97928e+09 1.97954e+09 1.98056e+09 1.9806e+09 1 1
164 2 1 1.9873e+09 1.98755e+09 1.98857e+09 1.98859e+09 0 1
165 2 1 1.99844e+09 1.99869e+09 1.99971e+09 2.00045e+09 0 1
166 2 1 2.01211e+09 2.01236e+09 2.01338e+09 2.01339e+09 0 1
167 1 1 2.02891e+09 2.02916e+09 2.03018e+09 2.03031e+09 0 0
168 1 0 2.03828e+09 2.03854e+09 2.03956e+09 2.03975e+09 1 1
169 1 1 2.04909e+09 2.04935e+09 2.05037e+09 2.05049e+09 0 0
170 1 0 2.05789e+09 2.05814e+09 2.05916e+09 2.05949e+09 1 1
171 1 1 2.07167e+09 2.07192e+09 2.07294e+09 2.07295e+09 0 0
172 1 1 2.08606e+09 2.08631e+09 2.08733e+09 2.08744e+09 1 0
173 1 0 2.09593e+09 2.09617e+09 2.0972e+09 2.09723e+09 1 1
174 1 0 2.10615e+09 2.10641e+09 2.10743e+09 2.10849e+09 0 1
175 1 0 2.11155e+09 2.1118e+09 2.11282e+09 2.11297e+09 0 1
176 1 1 2.11948e+09 2.11974e+09 2.12076e+09 2.12099e+09 0 0
177 1 0 2.12872e+09 2.12898e+09 2.13e+09 2.13003e+09 1 1
178 2 1 2.1327e+09 2.13296e+09 2.13398e+09 2.1341e+09 0 1
179 1 1 2.14406e+09 2.14432e+09 2.14534e+09 2.14536e+09 0 0
180 1 1 2.15323e+09 2.15349e+09 2.15451e+09 2.15499e+09 1 0
181 1 0 2.16398e+09 2.16423e+09 2.16525e+09 2.16533e+09 1 1
182 2 1 2.16959e+09 2.16985e+09 2.17087e+09 2.17091e+09 0 1
183 2 0 2.17385e+09 2.17411e+09 2.17513e+09 2.17517e+09 0 0
184 2 1 2.18411e+09 2.18436e+09 2.18538e+09 2.18539e+09 1 1
185 2 1 2.19939e+09 2.19965e+09 2.20067e+09 2.20073e+09 0 1
186 2 1 2.21597e+09 2.21622e+09 2.21724e+09 2.21727e+09 0 1
187 2 0 2.25803e+09 2.25829e+09 2.25931e+09 2.25937e+09 0 0
188 2 1 2.26868e+09 2.26894e+09 2.26996e+09 2.27045e+09 1 1
189 2 0 2.27687e+09 2.27713e+09 2.27815e+09 2.27817e+09 0 0
190 2 1 2.29713e+09 2.29739e+09 2.29841e+09 2.29842e+09 1 1
191 2 1 2.30515e+09 2.30541e+09 2.30643e+09 2.30644e+09 0 1
192 2 1 2.31794e+09 2.3182e+09 2.31922e+09 2.31932e+09 0 1
193 2 1 2.33502e+09 2.33528e+09 2.3363e+09 2.33786e+09 0 1
194 2 1 2.35592e+09 2.35618e+09 2.3572e+09 2.35723e+09 0 1
195 2 1 2.36195e+09 2.36221e+09 2.36323e+09 2.36325e+09 0 1
196 1 0 2.367e+09 2.36725e+09 2.36827e+09 2.36832e+09 0 1
197 2 0 2.38885e+09 2.38911e+09 2.39013e+09 2.39014e+09 0 0
198 2 1 2.39901e+09 2.39926e+09 2.40028e+09 2.4004e+09 1 1
199 1 0 2.40786e+09 2.40812e+09 2.40914e+09 2.4092e+09 0 1
200 2 1 2.42499e+09 2.42524e+09 2.42626e+09 2.42633e+09 0 1
201 1 1 2.43413e+09 2.43439e+09 2.43541e+09 2.43542e+09 0 0
202 1 1 2.45569e+09 2.45595e+09 2.45697e+09 2.45698e+09 1 0
203 1 1 2.47282e+09 2.47307e+09 2.47409e+09 2.4741e+09 1 0
204 1 1 2.48762e+09 2.48788e+09 2.4889e+09 2.48898e+09 1 0
205 1 0 2.50465e+09 2.50491e+09 2.50593e+09 2.50621e+09 0 1
206 2 0 2.51485e+09 2.51512e+09 2.51614e+09 2.51617e+09 0 0
207 2 1 2.52666e+09 2.52691e+09 2.52793e+09 2.52805e+09 1 1
208 1 0 2.53158e+09 2.53183e+09 2.53285e+09 2.53291e+09 0 1
209 1 1 2.53698e+09 2.53724e+09 2.53826e+09 2.53828e+09 0 0
210 1 1 2.54624e+09 2.54649e+09 2.54751e+09 2.54763e+09 1 0
211 1 1 2.55935e+09 2.55961e+09 2.56063e+09 2.56174e+09 1 0
212 1 1 2.56885e+09 2.56911e+09 2.57013e+09 2.57143e+09 1 0
213 1 1 2.57988e+09 2.58014e+09 2.58116e+09 2.58123e+09 0 0
214 2 1 2.58972e+09 2.58998e+09 2.591e+09 2.59102e+09 0 1
215 2 1 2.5944e+09 2.59465e+09 2.59567e+09 2.59569e+09 0 1
216 2 0 2.59914e+09 2.5994e+09 2.60042e+09 2.6005e+09 0 0
217 2 1 2.61056e+09 2.61081e+09 2.61183e+09 2.61264e+09 1 1
218 1 0 2.61673e+09 2.61699e+09 2.61801e+09 2.61802e+09 0 1
219 2 0 2.62228e+09 2.62254e+09 2.62356e+09 2.62357e+09 0 0
220 2 1 2.63556e+09 2.63581e+09 2.63683e+09 2.63717e+09 1 1
221 1 1 2.64177e+09 2.64203e+09 2.64305e+09 2.64418e+09 0 0
222 1 1 2.65157e+09 2.65182e+09 2.65284e+09 2.65523e+09 1 0
223 1 0 2.67391e+09 2.67417e+09 2.67519e+09 2.67599e+09 1 1
224 1 1 2.68123e+09 2.6815e+09 2.68252e+09 2.68261e+09 0 0
225 1 1 2.70325e+09 2.70351e+09 2.70453e+09 2.70464e+09 1 0
226 1 0 2.71772e+09 2.71798e+09 2.719e+09 2.71919e+09 1 1
227 1 1 2.73712e+09 2.73738e+09 2.7384e+09 2.7386e+09 0 0
228 1 0 2.74597e+09 2.74623e+09 2.74725e+09 2.74728e+09 1 1
229 1 0 2.75692e+09 2.75717e+09 2.75819e+09 2.75843e+09 0 1
230 1 1 2.76509e+09 2.76535e+09 2.76637e+09 2.76787e+09 0 0
231 1 1 2.78057e+09 2.78083e+09 2.78185e+09 2.78443e+09 1 0
232 1 0 2.79289e+09 2.79315e+09 2.79417e+09 2.7942e+09 1 1
233 2 1 2.79804e+09 2.79831e+09 2.79933e+09 2.79939e+09 0 1
234 1 1 2.80768e+09 2.80795e+09 2.80897e+09 2.81099e+09 0 0
235 1 0 2.81829e+09 2.81854e+09 2.81956e+09 2.81966e+09 1 1
236 2 1 2.82519e+09 2.82545e+09 2.82647e+09 2.82683e+09 0 1
237 2 0 2.83478e+09 2.83502e+09 2.83605e+09 2.83608e+09 0 0
238 2 1 2.8494e+09 2.84966e+09 2.85068e+09 2.85079e+09 1 1
239 1 1 2.8621e+09 2.86235e+09 2.86337e+09 2.86339e+09 0 0
240 1 0 2.87793e+09 2.8782e+09 2.87922e+09 2.87937e+09 1 1
241 1 1 2.89042e+09 2.89068e+09 2.8917e+09 2.89172e+09 0 0
242 1 0 2.90294e+09 2.9032e+09 2.90422e+09 2.90424e+09 1 1
243 2 1 2.9337e+09 2.93396e+09 2.93498e+09 2.93503e+09 0 1
244 2 1 2.94176e+09 2.94203e+09 2.94305e+09 2.9442e+09 0 1
245 1 0 2.95638e+09 2.95663e+09 2.95765e+09 2.95785e+09 0 1
246 1 0 2.96039e+09 2.96065e+09 2.96167e+09 2.96275e+09 0 1
247 2 0 2.97001e+09 2.97026e+09 2.97128e+09 2.97137e+09 0 0
248 2 0 2.98211e+09 2.98236e+09 2.98338e+09 2.98344e+09 1 0
249 2 0 2.99377e+09 2.99401e+09 2.99503e+09 2.99511e+09 1 0
250 2 1 3.00248e+09 3.00274e+09 3.00376e+09 3.00379e+09 1 1
251 1 0 3.00739e+09 3.00766e+09 3.00868e+09 3.00878e+09 0 1
252 2 0 3.01762e+09 3.01787e+09 3.01889e+09 3.019e+09 0 0
253 2 1 3.02674e+09 3.02699e+09 3.02801e+09 3.03009e+09 1 1
254 1 0 3.04417e+09 3.04443e+09 3.04546e+09 3.04547e+09 0 1
255 2 1 3.0505e+09 3.05076e+09 3.05178e+09 3.05181e+09 0 1
256 1 0 3.07087e+09 3.07113e+09 3.07215e+09 3.07219e+09 0 1
257 1 0 3.08688e+09 3.08714e+09 3.08816e+09 3.08817e+09 0 1
258 2 0 3.09246e+09 3.09272e+09 3.09374e+09 3.09393e+09 0 0
259 2 1 3.101e+09 3.10125e+09 3.10227e+09 3.10284e+09 1 1
260 2 0 3.11113e+09 3.11139e+09 3.11241e+09 3.11269e+09 0 0
261 2 1 3.12269e+09 3.12294e+09 3.12396e+09 3.12409e+09 1 1
262 2 0 3.13522e+09 3.13549e+09 3.13651e+09 3.13655e+09 0 0
263 2 0 3.1436e+09 3.14387e+09 3.14489e+09 3.1449e+09 1 0
264 2 0 3.15212e+09 3.15237e+09 3.15339e+09 3.15342e+09 1 0
265 2 1 3.16933e+09 3.1696e+09 3.17062e+09 3.17066e+09 1 1
266 1 0 3.17388e+09 3.17414e+09 3.17516e+09 3.17522e+09 0 1
267 1 0 3.18068e+09 3.18094e+09 3.18196e+09 3.18198e+09 0 1
268 1 0 3.18546e+09 3.18571e+09 3.18673e+09 3.18674e+09 0 1
269 1 0 3.19018e+09 3.19044e+09 3.19146e+09 3.19151e+09 0 1
270 1 0 3.19594e+09 3.19619e+09 3.19721e+09 3.19722e+09 0 1
271 1 0 3.21067e+09 3.21093e+09 3.21195e+09 3.2121e+09 0 1
272 2 1 3.2193e+09 3.21955e+09 3.22058e+09 3.22059e+09 0 1
273 1 1 3.22744e+09 3.2277e+09 3.22872e+09 3.2289e+09 0 0
274 1 0 3.24815e+09 3.24841e+09 3.24943e+09 3.24945e+09 1 1
275 1 1 3.25297e+09 3.25323e+09 3.25425e+09 3.25476e+09 0 0
276 1 0 3.26365e+09 3.26392e+09 3.26494e+09 3.26508e+09 1 1
277 2 1 3.27064e+09 3.2709e+09 3.27192e+09 3.27346e+09 0 1
278 2 1 3.28153e+09 3.28178e+09 3.2828e+09 3.28287e+09 0 1
279 1 1 3.28617e+09 3.28643e+09 3.28745e+09 3.28772e+09 0 0
280 1 1 3.2987e+09 3.29896e+09 3.29998e+09 3.30005e+09 1 0
281 1 1 3.31293e+09 3.31319e+09 3.31421e+09 3.31422e+09 1 0
282 1 1 3.33201e+09 3.33227e+09 3.33329e+09 3.33332e+09 1 0
283 2 0 3.34568e+09 3.34593e+09 3.34695e+09 3.34723e+09 0 0
284 1 1 3.37139e+09 3.37164e+09 3.37266e+09 3.37283e+09 0 0
285 2 1 3.38214e+09 3.38241e+09 3.38343e+09 3.3835e+09 0 1
286 1 1 3.39769e+09 3.39795e+09 3.39897e+09 3.39925e+09 0 0
287 1 1 3.41108e+09 3.41133e+09 3.41235e+09 3.41236e+09 1 0
288 1 1 3.42055e+09 3.42081e+09 3.42183e+09 3.42434e+09 1 0
289 1 1 3.433e+09 3.43326e+09 3.43428e+09 3.43463e+09 1 0
290 2 1 3.44315e+09 3.44341e+09 3.44443e+09 3.44582e+09 0 1
291 2 1 3.45452e+09 3.45478e+09 3.4558e+09 3.45617e+09 0 1
292 1 1 3.46065e+09 3.46091e+09 3.46193e+09 3.46226e+09 0 0
293 1 0 3.47329e+09 3.47354e+09 3.47456e+09 3.47457e+09 1 1
294 2 0 3.48454e+09 3.4848e+09 3.48582e+09 3.48582e+09 0 0
295 2 0 3.50055e+09 3.50081e+09 3.50183e+09 3.50185e+09 1 0
296 2 1 3.51521e+09 3.51546e+09 3.51648e+09 3.5175e+09 1 1
297 1 1 3.5244e+09 3.52467e+09 3.52569e+09 3.5257e+09 0 0
298 1 0 3.5342e+09 3.53447e+09 3.53549e+09 3.53549e+09 1 1
299 1 1 3.54934e+09 3.5496e+09 3.55062e+09 3.55063e+09 0 0
300 1 0 3.56045e+09 3.56071e+09 3.56173e+09 3.56415e+09 1 1
301 2 1 3.57138e+09 3.57163e+09 3.57265e+09 3.57266e+09 0 1
302 1 1 3.58112e+09 3.58138e+09 3.5824e+09 3.58241e+09 0 0
303 1 1 3.59027e+09 3.59053e+09 3.59155e+09 3.59425e+09 1 0
304 1 1 3.60572e+09 3.60598e+09 3.607e+09 3.60702e+09 1 0
305 1 0 3.61525e+09 3.61552e+09 3.61654e+09 3.61655e+09 1 1
306 1 1 3.6227e+09 3.62297e+09 3.62399e+09 3.62406e+09 0 0
307 1 1 3.63228e+09 3.63253e+09 3.63355e+09 3.63356e+09 1 0
308 1 1 3.64806e+09 3.64831e+09 3.64933e+09 3.65073e+09 1 0
309 1 1 3.66097e+09 3.66122e+09 3.66224e+09 3.66262e+09 1 0
310 2 1 3.67228e+09 3.67255e+09 3.67357e+09 3.67365e+09 0 1
311 2 0 3.68491e+09 3.68517e+09 3.68619e+09 3.68624e+09 0 0
312 2 1 3.69536e+09 3.69562e+09 3.69664e+09 3.69936e+09 1 1
313 2 1 3.70973e+09 3.70999e+09 3.71101e+09 3.71273e+09 0 1
314 2 1 3.72276e+09 3.72302e+09 3.72404e+09 3.72555e+09 0 1
315 1 0 3.73619e+09 3.73645e+09 3.73747e+09 3.73756e+09 0 1
316 2 1 3.74394e+09 3.74421e+09 3.74523e+09 3.7473e+09 0 1
317 2 0 3.75565e+09 3.7559e+09 3.75692e+09 3.75731e+09 0 0
318 2 1 3.76649e+09 3.76675e+09 3.76777e+09 3.76976e+09 1 1
319 2 1 3.77281e+09 3.77307e+09 3.77409e+09 3.77414e+09 0 1
320 1 0 3.78478e+09 3.78504e+09 3.78606e+09 3.78607e+09 0 1
321 1 0 3.80589e+09 3.80615e+09 3.80717e+09 3.80718e+09 0 1
322 1 1 3.81082e+09 3.81109e+09 3.81211e+09 3.81248e+09 0 0
323 1 1 3.82147e+09 3.82174e+09 3.82276e+09 3.82445e+09 1 0
324 1 1 3.83158e+09 3.83184e+09 3.83286e+09 3.83364e+09 1 0
325 1 1 3.85591e+09 3.85616e+09 3.85718e+09 3.85776e+09 1 0
326 2 0 3.87124e+09 3.8715e+09 3.87252e+09 3.87255e+09 0 0
327 1 0 3.8857e+09 3.88596e+09 3.88698e+09 3.88699e+09 0 1
328 2 0 3.90431e+09 3.90457e+09 3.90559e+09 3.90605e+09 0 0
329 2 1 3.91311e+09 3.91338e+09 3.9144e+09 3.91637e+09 1 1
330 1 0 3.92028e+09 3.92054e+09 3.92156e+09 3.92157e+09 0 1
331 2 1 3.9255e+09 3.92576e+09 3.92678e+09 3.92711e+09 0 1
332 1 1 3.93045e+09 3.93069e+09 3.93171e+09 3.93213e+09 0 0
333 1 1 3.93954e+09 3.9398e+09 3.94082e+09 3.94107e+09 1 0
334 1 1 3.95212e+09 3.95238e+09 3.9534e+09 3.9535e+09 1 0
335 1 0 3.96089e+09 3.96115e+09 3.96217e+09 3.96231e+09 1 1
336 2 0 3.96504e+09 3.96529e+09 3.96631e+09 3.96632e+09 0 0
337 2 1 3.97362e+09 3.97388e+09 3.9749e+09 3.97499e+09 1 1
338 1 0 3.98073e+09 3.98099e+09 3.98202e+09 3.98217e+09 0 1
339 2 0 3.9851e+09 3.98535e+09 3.98637e+09 3.98637e+09 0 0
340 2 0 3.99515e+09 3.9954e+09 3.99642e+09 3.99644e+09 1 0
341 2 0 4.00508e+09 4.00534e+09 4.00636e+09 4.00642e+09 1 0
342 2 1 4.01368e+09 4.01394e+09 4.01496e+09 4.01568e+09 1 1
343 1 1 4.02005e+09 4.02031e+09 4.02133e+09 4.02139e+09 0 0
344 1 1 4.03237e+09 4.03264e+09 4.03366e+09 4.03377e+09 1 0
345 1 1 4.04092e+09 4.04118e+09 4.0422e+09 4.04283e+09 1 0
346 1 1 4.05038e+09 4.05064e+09 4.05166e+09 4.05217e+09 1 0
347 2 1 4.05926e+09 4.05951e+09 4.06053e+09 4.06246e+09 0 1
348 2 1 4.08147e+09 4.08174e+09 4.08276e+09 4.08522e+09 0 1
349 2 1 4.09689e+09 4.09714e+09 4.09816e+09 4.10038e+09 0 1
350 1 1 4.10921e+09 4.10946e+09 4.11048e+09 4.11049e+09 0 0
351 1 0 4.11825e+09 4.11851e+09 4.11953e+09 4.11954e+09 1 1
352 1 0 4.12317e+09 4.12343e+09 4.12445e+09 4.12448e+09 0 1
353 1 1 4.1338e+09 4.13406e+09 4.13508e+09 4.13512e+09 0 0
354 1 0 4.14269e+09 4.14296e+09 4.14398e+09 4.144e+09 1 1
355 2 0 4.14722e+09 4.14748e+09 4.1485e+09 4.14859e+09 0 0
356 2 1 4.16245e+09 4.16271e+09 4.16373e+09 4.16439e+09 1 1
357 2 0 4.16973e+09 4.17e+09 4.17102e+09 4.17109e+09 0 0
358 2 1 4.17986e+09 4.18012e+09 4.18114e+09 4.18214e+09 1 1
359 2 0 4.18535e+09 4.18561e+09 4.18663e+09 4.1877e+09 0 0
360 2 0 4.19485e+09 4.19512e+09 4.19614e+09 4.19702e+09 1 0
361 2 1 4.20411e+09 4.20436e+09 4.20538e+09 4.20721e+09 1 1
362 1 1 4.20985e+09 4.21012e+09 4.21114e+09 4.21145e+09 0 0
363 1 1 4.21957e+09 4.21982e+09 4.22084e+09 4.22086e+09 1 0
364 1 1 4.2326e+09 4.23285e+09 4.23387e+09 4.23391e+09 1 0
365 1 0 4.24348e+09 4.24374e+09 4.24476e+09 4.24477e+09 1 1
366 2 1 4.24885e+09 4.24912e+09 4.25014e+09 4.25046e+09 0 1
367 1 1 4.26226e+09 4.26253e+09 4.26355e+09 4.2636e+09 0 0
368 1 1 4.27277e+09 4.27303e+09 4.27405e+09 4.27739e+09 1 0
369 1 1 4.2926e+09 4.29285e+09 4.29387e+09 4.29393e+09 1 0
370 1 0 1.68919e+07 1.71399e+07 1.81602e+07 2.34328e+07 1 1
371 1 1 3.35186e+07 3.37664e+07 3.47867e+07 3.53764e+07 0 0
372 1 1 4.28831e+07 4.3142e+07 4.41623e+07 4.54203e+07 1 0
373 1 0 5.49345e+07 5.5197e+07 5.62173e+07 5.90556e+07 1 1
374 2 1 6.27518e+07 6.30183e+07 6.40386e+07 6.43234e+07 0 1
375 1 1 7.03273e+07 7.05944e+07 7.16147e+07 7.37924e+07 0 0
376 1 1 8.36362e+07 8.38917e+07 8.4912e+07 8.79771e+07 1 0
377 1 1 9.71448e+07 9.74054e+07 9.84256e+07 9.92643e+07 1 0
378 1 1 1.06736e+08 1.06996e+08 1.08016e+08 1.12106e+08 1 0
379 2 1 1.21732e+08 1.21986e+08 1.23006e+08 1.23796e+08 0 1
380 2 1 1.33449e+08 1.33708e+08 1.34728e+08 1.35729e+08 0 1
381 1 1 1.4239e+08 1.42647e+08 1.43668e+08 1.43756e+08 0 0
382 1 0 1.52831e+08 1.53085e+08 1.54105e+08 1.54512e+08 1 1
383 1 0 1.62703e+08 1.62951e+08 1.63971e+08 1.64027e+08 0 1
384 2 0 1.67805e+08 1.68066e+08 1.69087e+08 1.69129e+08 0 0
385 2 0 1.79618e+08 1.79872e+08 1.80892e+08 1.80916e+08 1 0
386 2 1 1.92097e+08 1.92359e+08 1.93379e+08 1.95838e+08 1 1
387 1 0 2.0929e+08 2.09552e+08 2.10573e+08 2.14119e+08 0 1
388 2 0 2.16852e+08 2.17115e+08 2.18136e+08 2.18159e+08 0 0
389 2 1 2.2704e+08 2.27286e+08 2.28306e+08 2.28553e+08 1 1
390 2 1 2.40805e+08 2.41057e+08 2.42077e+08 2.42167e+08 0 1
391 2 1 2.48813e+08 2.49059e+08 2.50079e+08 2.50089e+08 0 1
392 1 1 2.54231e+08 2.54492e+08 2.55513e+08 2.55782e+08 0 0
393 1 1 2.6383e+08 2.64085e+08 2.65106e+08 2.66341e+08 1 0
394 1 1 2.80874e+08 2.81128e+08 2.82148e+08 2.83271e+08 1 0
395 1 1 2.9442e+08 2.94677e+08 2.95698e+08 2.95854e+08 1 0
396 1 1 3.03384e+08 3.03641e+08 3.04661e+08 3.05429e+08 0 0
397 1 0 3.16327e+08 3.16586e+08 3.17606e+08 3.17625e+08 0 1
398 2 0 3.28863e+08 3.2913e+08 3.3015e+08 3.31108e+08 0 0
399 2 1 3.40385e+08 3.40647e+08 3.41667e+08 3.41802e+08 1 1
400 2 1 3.45126e+08 3.45387e+08 3.46408e+08 3.48122e+08 0 1
401 1 1 3.52105e+08 3.52368e+08 3.53388e+08 3.53423e+08 0 0
402 1 0 3.60892e+08 3.61144e+08 3.62164e+08 3.62175e+08 1 1
403 1 0 3.68876e+08 3.69129e+08 3.70149e+08 3.70199e+08 0 1
404 2 0 3.74905e+08 3.75169e+08 3.76189e+08 3.76215e+08 0 0
405 2 1 3.84507e+08 3.84764e+08 3.85784e+08 3.86705e+08 1 1
406 1 1 3.91248e+08 3.91504e+08 3.92524e+08 3.92582e+08 0 0
407 1 0 4.00603e+08 4.00857e+08 4.01877e+08 4.01994e+08 1 1
408 1 1 4.12964e+08 4.13226e+08 4.14246e+08 4.14362e+08 0 0
409 1 1 4.26274e+08 4.26527e+08 4.27547e+08 4.28149e+08 1 0
410 1 0 4.37816e+08 4.3808e+08 4.391e+08 4.39177e+08 1 1
411 2 1 4.51171e+08 4.51424e+08 4.52444e+08 4.55991e+08 0 1
412 2 1 4.59672e+08 4.59936e+08 4.60956e+08 4.63256e+08 0 1
413 2 1 4.67053e+08 4.67322e+08 4.68342e+08 4.687e+08 0 1
414 1 1 4.71544e+08 4.71806e+08 4.72826e+08 4.72871e+08 0 0
415 1 1 4.80144e+08 4.80392e+08 4.81412e+08 4.82456e+08 1 0
416 1 1 4.99893e+08 5.0015e+08 5.01171e+08 5.07243e+08 1 0
417 1 1 5.14513e+08 5.1477e+08 5.1579e+08 5.18716e+08 1 0
418 2 1 5.27723e+08 5.27985e+08 5.29005e+08 5.29836e+08 0 1
419 2 1 5.34813e+08 5.35059e+08 5.36079e+08 5.36084e+08 0 1
420 2 0 5.39175e+08 5.39434e+08 5.40454e+08 5.41292e+08 0 0
421 2 1 5.49911e+08 5.50171e+08 5.51191e+08 5.52849e+08 1 1
422 2 1 5.55838e+08 5.56086e+08 5.57106e+08 5.60926e+08 0 1
423 2 1 5.68945e+08 5.69199e+08 5.7022e+08 5.7347e+08 0 1
424 2 0 5.80844e+08 5.81104e+08 5.82125e+08 5.82173e+08 0 0
425 2 1 5.89626e+08 5.89886e+08 5.90906e+08 5.91587e+08 1 1
426 1 0 5.94218e+08 5.9447e+08 5.9549e+08 5.98377e+08 0 1
427 1 1 6.02254e+08 6.02504e+08 6.03524e+08 6.07272e+08 0 0
428 1 1 6.14807e+08 6.15061e+08 6.16081e+08 6.18716e+08 1 0
429 1 1 6.27419e+08 6.2767e+08 6.2869e+08 6.2997e+08 1 0
430 1 1 6.37017e+08 6.37276e+08 6.38296e+08 6.39999e+08 1 0
431 2 1 6.48422e+08 6.48684e+08 6.49704e+08 6.71894e+08 0 1
432 1 1 6.83701e+08 6.83963e+08 6.84983e+08 6.89217e+08 0 0
433 1 1 6.97549e+08 6.97806e+08 6.98826e+08 6.99846e+08 1 0
434 1 0 7.16303e+08 7.16567e+08 7.17587e+08 7.30964e+08 1 1
435 1 1 7.35824e+08 7.36098e+08 7.37119e+08 7.37636e+08 0 0
436 1 1 7.53672e+08 7.53927e+08 7.54948e+08 7.6198e+08 1 0
437 1 1 7.69912e+08 7.70168e+08 7.71188e+08 7.81808e+08 1 0
438 1 0 7.95627e+08 7.95883e+08 7.96903e+08 7.96999e+08 1 1
439 1 1 8.09784e+08 8.10031e+08 8.11051e+08 8.12095e+08 0 0
440 1 1 8.19147e+08 8.19401e+08 8.20421e+08 8.23369e+08 1 0
441 1 1 8.33951e+08 8.34208e+08 8.35229e+08 8.38422e+08 1 0
442 1 1 8.46606e+08 8.46859e+08 8.47879e+08 8.48331e+08 1 0
443 1 0 8.56479e+08 8.56725e+08 8.57745e+08 8.58383e+08 0 1
444 2 1 8.65266e+08 8.65519e+08 8.66539e+08 8.66556e+08 0 1
445 1 1 8.71306e+08 8.71566e+08 8.72586e+08 8.7265e+08 0 0
446 1 1 8.79993e+08 8.80249e+08 8.81269e+08 8.81912e+08 1 0
447 1 1 8.89964e+08 8.90226e+08 8.91246e+08 8.94275e+08 1 0
448 1 1 9.0372e+08 9.03968e+08 9.04988e+08 9.06344e+08 1 0
449 1 1 9.21555e+08 9.21817e+08 9.22837e+08 9.22866e+08 0 0
450 2 1 9.32196e+08 9.32454e+08 9.33474e+08 9.33596e+08 0 1
451 1 1 9.36924e+08 9.37179e+08 9.38199e+08 9.38263e+08 0 0
452 1 1 9.46883e+08 9.47138e+08 9.48158e+08 9.48274e+08 1 0
453 1 0 9.56207e+08 9.56462e+08 9.57483e+08 9.58695e+08 1 1
454 1 0 9.61347e+08 9.61601e+08 9.62622e+08 9.77024e+08 0 1
455 1 1 9.84463e+08 9.84724e+08 9.85744e+08 9.93004e+08 0 0
456 1 1 1.00134e+09 1.00161e+09 1.00263e+09 1.00396e+09 1 0
457 1 1 1.01756e+09 1.01781e+09 1.01883e+09 1.02213e+09 1 0
458 1 1 1.03051e+09 1.03076e+09 1.03178e+09 1.03957e+09 1 0
459 1 1 1.05193e+09 1.05218e+09 1.0532e+09 1.05522e+09 0 0
460 1 0 1.06307e+09 1.06334e+09 1.06436e+09 1.06879e+09 0 1
461 2 1 1.07262e+09 1.07287e+09 1.07389e+09 1.07527e+09 0 1
462 1 0 1.07965e+09 1.07992e+09 1.08094e+09 1.08116e+09 0 1
463 2 1 1.08643e+09 1.08669e+09 1.08771e+09 1.08855e+09 0 1
464 2 1 1.10063e+09 1.10089e+09 1.10191e+09 1.1031e+09 0 1
465 2 1 1.10809e+09 1.10835e+09 1.10937e+09 1.11183e+09 0 1
466 2 1 1.11753e+09 1.11778e+09 1.1188e+09 1.11929e+09 0 1
467 2 1 1.12337e+09 1.12363e+09 1.12465e+09 1.12493e+09 0 1
468 1 1 1.12903e+09 1.12928e+09 1.1303e+09 1.13085e+09 0 0
469 1 1 1.13831e+09 1.13857e+09 1.13959e+09 1.14053e+09 1 0
470 1 1 1.14769e+09 1.14794e+09 1.14896e+09 1.14897e+09 1 0
471 1 1 1.1569e+09 1.15716e+09 1.15818e+09 1.15873e+09 1 0
472 2 1 1.16585e+09 1.16611e+09 1.16713e+09 1.16954e+09 0 1
473 1 1 1.17241e+09 1.17266e+09 1.17368e+09 1.17447e+09 0 0
474 1 1 1.1865e+09 1.18677e+09 1.18779e+09 1.18989e+09 1 0
475 1 1 1.20442e+09 1.20467e+09 1.20569e+09 1.21295e+09 1 0
476 1 0 1.22476e+09 1.22501e+09 1.22603e+09 1.2275e+09 1 1
477 1 1 1.23218e+09 1.23243e+09 1.23345e+09 1.23416e+09 0 0
478 1 1 1.24279e+09 1.24304e+09 1.24406e+09 1.24568e+09 1 0
479 1 0 1.25408e+09 1.25434e+09 1.25536e+09 1.26219e+09 1 1
480 2 0 1.26642e+09 1.26668e+09 1.2677e+09 1.26796e+09 0 0
481 2 1 1.27524e+09 1.2755e+09 1.27652e+09 1.27673e+09 1 1
482 1 1 1.28255e+09 1.28281e+09 1.28383e+09 1.28734e+09 0 0
483 1 1 1.29779e+09 1.29805e+09 1.29907e+09 1.29924e+09 1 0
484 1 1 1.30898e+09 1.30924e+09 1.31026e+09 1.31366e+09 1 0
485 1 1 1.32094e+09 1.32121e+09 1.32223e+09 1.32464e+09 1 0
486 1 1 1.33191e+09 1.33216e+09 1.33318e+09 1.35081e+09 0 0
487 2 1 1.3596e+09 1.35986e+09 1.36088e+09 1.36514e+09 0 1
488 1 1 1.37196e+09 1.37222e+09 1.37324e+09 1.37416e+09 0 0
489 1 1 1.3815e+09 1.38177e+09 1.38279e+09 1.39032e+09 1 0
490 1 1 1.39772e+09 1.39797e+09 1.39899e+09 1.39902e+09 1 0
491 1 1 1.40644e+09 1.40671e+09 1.40773e+09 1.41215e+09 1 0
492 1 1 1.41933e+09 1.41958e+09 1.4206e+09 1.42085e+09 0 0
493 2 1 1.42817e+09 1.42842e+09 1.42944e+09 1.43244e+09 0 1
494 1 1 1.43509e+09 1.43535e+09 1.43637e+09 1.44402e+09 0 0
495 1 1 1.45236e+09 1.45261e+09 1.45363e+09 1.4634e+09 1 0
496 1 0 1.4708e+09 1.47105e+09 1.47207e+09 1.47417e+09 1 1
497 2 1 1.47825e+09 1.47851e+09 1.47953e+09 1.48482e+09 0 1
498 2 1 1.49583e+09 1.49609e+09 1.49711e+09 1.49974e+09 0 1
499 2 1 1.5049e+09 1.50516e+09 1.50618e+09 1.51162e+09 0 1
500 2 0 1.5162e+09 1.51646e+09 1.51748e+09 1.51756e+09 0 0
501 2 1 1.52504e+09 1.52531e+09 1.52633e+09 1.52716e+09 1 1
502 1 1 1.5298e+09 1.53006e+09 1.53108e+09 1.53356e+09 0 0
503 1 0 1.54099e+09 1.54125e+09 1.54227e+09 1.54268e+09 1 1
504 2 1 1.5454e+09 1.54567e+09 1.54669e+09 1.5483e+09 0 1
505 1 1 1.55106e+09 1.55132e+09 1.55235e+09 1.56018e+09 0 0
506 1 1 1.56822e+09 1.56848e+09 1.5695e+09 1.57022e+09 1 0
507 1 1 1.57776e+09 1.57801e+09 1.57903e+09 1.58225e+09 1 0
508 1 1 1.58934e+09 1.5896e+09 1.59062e+09 1.59064e+09 1 0
509 1 1 1.59894e+09 1.59919e+09 1.60021e+09 1.60493e+09 0 0
510 2 1 1.61316e+09 1.61341e+09 1.61443e+09 1.61725e+09 0 1
511 2 1 1.62039e+09 1.62064e+09 1.62166e+09 1.62418e+09 0 1
512 1 1 1.6282e+09 1.62847e+09 1.62949e+09 1.6295e+09 0 0
513 1 1 1.63666e+09 1.63691e+09 1.63793e+09 1.63969e+09 1 0
514 1 0 1.64709e+09 1.64735e+09 1.64837e+09 1.64846e+09 1 1
515 1 1 1.65318e+09 1.65343e+09 1.65445e+09 1.65968e+09 0 0
516 1 1 1.66804e+09 1.6683e+09 1.66932e+09 1.68932e+09 1 0
517 1 1 1.69677e+09 1.69702e+09 1.69804e+09 1.71062e+09 1 0
518 1 1 1.71768e+09 1.71794e+09 1.71896e+09 1.72798e+09 1 0
519 1 1 1.73906e+09 1.73932e+09 1.74034e+09 1.74158e+09 0 0
520 2 0 1.75392e+09 1.75419e+09 1.75521e+09 1.76244e+09 0 0
521 1 1 1.77102e+09 1.77129e+09 1.77231e+09 1.77356e+09 0 0
522 1 1 1.78069e+09 1.78094e+09 1.78196e+09 1.7841e+09 0 0
523 2 1 1.79354e+09 1.79379e+09 1.79481e+09 1.79664e+09 0 1
524 1 0 1.80062e+09 1.80089e+09 1.80191e+09 1.80221e+09 0 1
525 1 1 1.80854e+09 1.80879e+09 1.80981e+09 1.81345e+09 0 0
526 1 1 1.82109e+09 1.82134e+09 1.82236e+09 1.82443e+09 1 0
527 1 1 1.83189e+09 1.83214e+09 1.83316e+09 1.83537e+09 1 0
528 1 1 1.8429e+09 1.84317e+09 1.84419e+09 1.84511e+09 1 0
529 2 1 1.85356e+09 1.85382e+09 1.85484e+09 1.85533e+09 0 1
530 2 1 1.86002e+09 1.86027e+09 1.86129e+09 1.88365e+09 0 1
531 1 0 1.88628e+09 1.88654e+09 1.88756e+09 1.91378e+09 0 1
532 1 1 1.92395e+09 1.92422e+09 1.92524e+09 1.92564e+09 0 0
533 1 1 1.93364e+09 1.93389e+09 1.93491e+09 1.93532e+09 1 0
534 1 0 1.94369e+09 1.94395e+09 1.94497e+09 1.94535e+09 1 1
535 1 0 1.94958e+09 1.94983e+09 1.95085e+09 1.95565e+09 0 1
536 1 1 1.95909e+09 1.95935e+09 1.96037e+09 1.96202e+09 0 0
537 1 1 1.9748e+09 1.97506e+09 1.97608e+09 1.9768e+09 1 0
538 1 1 1.98863e+09 1.98888e+09 1.9899e+09 1.99078e+09 1 0
539 1 1 1.99866e+09 1.99892e+09 1.99994e+09 2.00184e+09 1 0
540 1 1 2.01568e+09 2.01594e+09 2.01696e+09 2.01796e+09 0 0
541 1 1 2.03102e+09 2.03128e+09 2.0323e+09 2.03295e+09 0 0
542 1 1 2.04228e+09 2.04254e+09 2.04356e+09 2.04362e+09 0 0
543 1 0 2.05108e+09 2.05133e+09 2.05235e+09 2.05246e+09 0 1
544 2 0 2.05745e+09 2.05771e+09 2.05873e+09 2.05987e+09 0 0
545 2 1 2.06791e+09 2.06816e+09 2.06918e+09 2.081e+09 1 1
546 2 1 2.08444e+09 2.0847e+09 2.08573e+09 2.08912e+09 0 1
547 1 1 2.0917e+09 2.09195e+09 2.09297e+09 2.09561e+09 0 0
548 1 0 2.10418e+09 2.10443e+09 2.10546e+09 2.10561e+09 1 1
549 2 1 2.10833e+09 2.10859e+09 2.10961e+09 2.1254e+09 0 1
550 1 1 2.12834e+09 2.1286e+09 2.12962e+09 2.1375e+09 0 0
551 1 1 2.15042e+09 2.15067e+09 2.15169e+09 2.1528e+09 1 0
552 1 1 2.16094e+09 2.16118e+09 2.1622e+09 2.1683e+09 1 0
553 1 1 2.17755e+09 2.17781e+09 2.17884e+09 2.18074e+09 1 0
554 1 1 2.1899e+09 2.19015e+09 2.19117e+09 2.19222e+09 0 0
555 2 1 2.19973e+09 2.19998e+09 2.201e+09 2.20452e+09 0 1
556 1 1 2.21051e+09 2.21078e+09 2.2118e+09 2.21413e+09 0 0
557 1 1 2.2224e+09 2.22266e+09 2.22368e+09 2.22382e+09 1 0
558 1 1 2.23087e+09 2.23113e+09 2.23215e+09 2.23362e+09 1 0
559 1 1 2.24285e+09 2.2431e+09 2.24412e+09 2.24773e+09 1 0
560 1 1 2.26007e+09 2.26033e+09 2.26135e+09 2.26149e+09 0 0
561 2 1 2.26909e+09 2.26934e+09 2.27036e+09 2.27181e+09 0 1
562 2 1 2.27568e+09 2.27594e+09 2.27696e+09 2.2782e+09 0 1
563 1 0 2.28096e+09 2.28122e+09 2.28224e+09 2.28444e+09 0 1
564 1 0 2.29627e+09 2.29653e+09 2.29755e+09 2.30263e+09 0 1
565 2 0 2.30646e+09 2.30671e+09 2.30773e+09 2.31548e+09 0 0
566 2 1 2.32274e+09 2.32301e+09 2.32403e+09 2.33603e+09 1 1
567 2 1 2.34282e+09 2.34309e+09 2.34411e+09 2.34838e+09 0 1
568 2 1 2.35482e+09 2.35509e+09 2.35611e+09 2.36218e+09 0 1
569 1 1 2.36516e+09 2.36542e+09 2.36644e+09 2.36759e+09 0 0
570 1 1 2.37483e+09 2.37508e+09 2.3761e+09 2.38264e+09 1 0
571 1 1 2.38999e+09 2.39025e+09 2.39127e+09 2.3998e+09 1 0
572 1 1 2.40685e+09 2.40711e+09 2.40813e+09 2.41274e+09 1 0
573 2 1 2.42125e+09 2.42151e+09 2.42253e+09 2.42958e+09 0 1
574 1 1 2.45215e+09 2.4524e+09 2.45342e+09 2.45484e+09 0 0
575 1 0 2.46191e+09 2.46216e+09 2.46318e+09 2.49116e+09 1 1
576 1 1 2.49856e+09 2.49881e+09 2.49983e+09 2.49984e+09 0 0
577 1 1 2.50692e+09 2.50718e+09 2.5082e+09 2.5083e+09 1 0
578 1 1 2.52026e+09 2.52052e+09 2.52154e+09 2.52862e+09 1 0
579 1 0 2.53659e+09 2.53683e+09 2.53785e+09 2.56616e+09 1 1
580 2 1 2.56896e+09 2.56921e+09 2.57023e+09 2.57342e+09 0 1
581 1 0 2.576e+09 2.57626e+09 2.57728e+09 2.57744e+09 0 1
582 1 1 2.58282e+09 2.58308e+09 2.5841e+09 2.58584e+09 0 0
583 1 1 2.59401e+09 2.59427e+09 2.59529e+09 2.59731e+09 1 0
584 1 1 2.60443e+09 2.6047e+09 2.60572e+09 2.60607e+09 1 0
585 1 0 2.61314e+09 2.6134e+09 2.61442e+09 3.00972e+09 1 1
