trial trialType response stillTime stimOnset stimOffset respTime correctionTrial correct
001 2 1 6.76251e+06 7.06291e+06 8.08319e+06 5.45763e+08 0
001 002 1 0 6.01612e+08 6.01875e+08 6.02895e+08 6.02904e+08 0
001 003 1 1 6.09339e+08 6.09612e+08 6.10632e+08 6.15706e+08 0
000 004 1 1 6.25039e+08 6.25299e+08 6.2632e+08 6.28716e+08 1
000 005 1 1 6.49773e+08 6.50028e+08 6.51049e+08 6.5106e+08 1
000 006 1 0 6.60459e+08 6.6071e+08 6.6173e+08 6.61743e+08 1
001 007 2 1 6.69626e+08 6.69887e+08 6.70907e+08 6.70933e+08 0
001 008 1 1 6.86406e+08 6.86664e+08 6.87684e+08 6.88834e+08 0
000 009 1 0 7.19242e+08 7.19498e+08 7.20518e+08 7.20854e+08 1
001 010 1 1 7.2655e+08 7.26813e+08 7.27833e+08 7.27841e+08 0
000 011 1 0 7.37817e+08 7.38069e+08 7.39089e+08 7.39133e+08 1
001 012 1 0 7.46478e+08 7.4673e+08 7.47751e+08 7.47758e+08 0
001 013 1 1 7.70205e+08 7.70476e+08 7.71496e+08 7.71532e+08 0
000 014 1 1 7.80484e+08 7.80743e+08 7.81763e+08 7.82528e+08 1
000 015 1 1 7.94745e+08 7.95008e+08 7.96029e+08 7.96389e+08 1
000 016 1 0 8.0832e+08 8.08584e+08 8.09604e+08 8.09618e+08 1
001 017 1 1 8.24403e+08 8.24664e+08 8.25685e+08 8.27381e+08 0
000 018 1 1 8.41985e+08 8.42241e+08 8.43261e+08 8.44125e+08 1
000 019 1 1 8.51506e+08 8.51759e+08 8.52779e+08 8.52781e+08 1
000 020 1 1 8.65295e+08 8.65549e+08 8.66569e+08 8.80111e+08 1
000 021 2 0 8.87505e+08 8.87769e+08 8.88789e+08 8.88882e+08 0
000 022 2 1 8.96151e+08 8.96399e+08 8.9742e+08 8.97802e+08 0
001 023 2 1 9.1013e+08 9.10385e+08 9.11405e+08 9.12376e+08 0
001 024 1 1 9.35271e+08 9.35531e+08 9.36552e+08 9.49555e+08 0
000 025 1 1 9.57491e+08 9.57746e+08 9.58766e+08 9.59117e+08 1
000 026 1 1 9.67718e+08 9.67971e+08 9.68991e+08 9.69631e+08 1
000 027 1 1 9.82742e+08 9.82996e+08 9.84016e+08 9.98668e+08 1
000 028 2 1 1.00605e+09 1.0063e+09 1.00732e+09 1.00733e+09 0
001 029 1 1 1.01449e+09 1.01474e+09 1.01576e+09 1.0234e+09 0
000 030 1 0 1.0329e+09 1.03315e+09 1.03417e+09 1.04005e+09 1
001 031 1 1 1.04755e+09 1.04781e+09 1.04883e+09 1.05492e+09 0
000 032 1 1 1.07156e+09 1.07182e+09 1.07284e+09 1.07711e+09 1
000 033 1 1 1.08416e+09 1.08442e+09 1.08544e+09 1.09191e+09 1
000 034 1 1 1.10266e+09 1.10292e+09 1.10394e+09 1.1118e+09 1
000 035 1 1 1.12012e+09 1.12038e+09 1.1214e+09 1.12845e+09 0
000 036 1 1 1.13569e+09 1.13594e+09 1.13696e+09 1.14599e+09 0
000 037 2 0 1.15357e+09 1.15382e+09 1.15484e+09 1.15488e+09 0
000 038 2 1 1.16212e+09 1.16238e+09 1.1634e+09 1.16353e+09 0
001 039 2 1 1.1735e+09 1.17377e+09 1.17479e+09 1.17479e+09 0
001 040 2 0 1.18341e+09 1.18366e+09 1.18468e+09 1.18472e+09 0
000 041 2 1 1.19397e+09 1.19424e+09 1.19526e+09 1.19973e+09 1
001 042 2 1 1.21098e+09 1.21123e+09 1.21225e+09 1.22257e+09 0
001 043 1 1 1.22657e+09 1.22682e+09 1.22784e+09 1.22786e+09 0
000 044 1 1 1.23871e+09 1.23895e+09 1.23997e+09 1.24176e+09 1
000 045 1 1 1.25136e+09 1.25163e+09 1.25265e+09 1.25619e+09 1
000 046 1 1 1.26526e+09 1.26551e+09 1.26653e+09 1.26675e+09 1
000 047 2 1 1.2759e+09 1.27616e+09 1.27718e+09 1.28515e+09 0
001 048 2 1 1.2892e+09 1.28946e+09 1.29048e+09 1.29354e+09 0
001 049 2 0 1.29752e+09 1.29779e+09 1.29881e+09 1.29886e+09 0
000 050 2 0 1.30626e+09 1.30652e+09 1.30754e+09 1.3076e+09 1
000 051 2 1 1.31463e+09 1.31489e+09 1.31591e+09 1.31725e+09 1
001 052 2 1 1.32376e+09 1.32401e+09 1.32503e+09 1.32657e+09 0
001 053 2 1 1.33002e+09 1.33028e+09 1.3313e+09 1.3339e+09 0
001 054 1 0 1.34375e+09 1.344e+09 1.34502e+09 1.34503e+09 0
001 055 2 1 1.34952e+09 1.34977e+09 1.35079e+09 1.3535e+09 0
001 056 2 0 1.36591e+09 1.36616e+09 1.36718e+09 1.36743e+09 0
000 057 2 1 1.37652e+09 1.37678e+09 1.3778e+09 1.38759e+09 1
001 058 1 1 1.39039e+09 1.39064e+09 1.39166e+09 1.39485e+09 0
000 059 1 0 1.40192e+09 1.40217e+09 1.40319e+09 1.40323e+09 1
001 060 1 1 1.41846e+09 1.41871e+09 1.41973e+09 1.41976e+09 0
000 061 1 1 1.42898e+09 1.42923e+09 1.43025e+09 1.43027e+09 1
000 062 1 1 1.43877e+09 1.43903e+09 1.44005e+09 1.44282e+09 1
000 063 1 1 1.45653e+09 1.45678e+09 1.4578e+09 1.45865e+09 1
000 064 1 1 1.46576e+09 1.46602e+09 1.46704e+09 1.46741e+09 0
000 065 1 1 1.47574e+09 1.47598e+09 1.477e+09 1.48801e+09 0
000 066 2 1 1.49547e+09 1.49572e+09 1.49674e+09 1.49729e+09 0
001 067 1 1 1.51452e+09 1.51478e+09 1.5158e+09 1.52062e+09 0
000 068 1 0 1.53525e+09 1.53552e+09 1.53654e+09 1.53657e+09 1
001 069 2 1 1.54674e+09 1.54701e+09 1.54803e+09 1.54834e+09 0
001 070 1 1 1.56139e+09 1.56164e+09 1.56266e+09 1.56298e+09 0
000 071 1 1 1.57113e+09 1.57139e+09 1.57241e+09 1.5726e+09 1
000 072 1 1 1.58065e+09 1.58091e+09 1.58193e+09 1.58388e+09 1
000 073 1 1 1.60206e+09 1.60232e+09 1.60334e+09 1.61747e+09 1
000 074 2 1 1.62459e+09 1.62484e+09 1.62586e+09 1.6293e+09 0
001 075 2 1 1.63505e+09 1.63531e+09 1.63633e+09 1.63633e+09 0
001 076 1 1 1.64564e+09 1.64589e+09 1.64691e+09 1.64921e+09 0
000 077 1 1 1.65962e+09 1.65987e+09 1.66089e+09 1.66332e+09 1
000 078 1 1 1.67038e+09 1.67065e+09 1.67167e+09 1.67598e+09 1
000 079 1 1 1.69586e+09 1.69612e+09 1.69714e+09 1.69715e+09 1
000 080 1 1 1.70556e+09 1.70581e+09 1.70683e+09 1.70715e+09 0
000 081 1 1 1.71434e+09 1.71461e+09 1.71563e+09 1.71682e+09 0
000 082 1 0 1.72719e+09 1.72745e+09 1.72847e+09 1.72849e+09 0
001 083 2 1 1.73508e+09 1.73534e+09 1.73636e+09 1.73842e+09 0
001 084 2 1 1.75109e+09 1.75134e+09 1.75236e+09 1.75236e+09 0
001 085 1 1 1.75881e+09 1.75906e+09 1.76008e+09 1.76184e+09 0
000 086 1 1 1.76957e+09 1.76983e+09 1.77085e+09 1.77319e+09 1
000 087 1 1 1.78574e+09 1.78599e+09 1.78701e+09 1.78937e+09 1
000 088 1 1 1.79681e+09 1.79706e+09 1.79808e+09 1.8026e+09 1
000 089 2 1 1.81014e+09 1.8104e+09 1.81142e+09 1.8118e+09 0
001 090 1 1 1.81562e+09 1.81587e+09 1.81689e+09 1.8169e+09 0
000 091 1 1 1.82465e+09 1.8249e+09 1.82593e+09 1.82928e+09 1
000 092 1 1 1.83644e+09 1.8367e+09 1.83772e+09 1.8459e+09 1
000 093 1 0 1.85317e+09 1.85342e+09 1.85444e+09 1.85552e+09 1
001 094 1 1 1.86016e+09 1.86042e+09 1.86144e+09 1.86154e+09 0
000 095 1 1 1.86882e+09 1.86908e+09 1.8701e+09 1.87172e+09 1
000 096 1 1 1.87883e+09 1.87908e+09 1.8801e+09 1.90531e+09 1
000 097 1 1 1.91527e+09 1.91553e+09 1.91655e+09 1.92088e+09 1
000 098 1 1 1.92832e+09 1.92857e+09 1.92959e+09 1.9352e+09 0
000 099 1 1 1.94274e+09 1.94299e+09 1.94401e+09 1.94485e+09 0
000 100 1 0 1.95209e+09 1.95235e+09 1.95337e+09 1.95345e+09 0
001 101 2 0 1.95866e+09 1.95891e+09 1.95993e+09 1.95995e+09 0
000 102 2 1 1.96738e+09 1.96764e+09 1.96866e+09 1.96868e+09 1
001 103 1 1 1.98159e+09 1.98186e+09 1.98288e+09 1.98338e+09 0
000 104 1 1 1.99075e+09 1.991e+09 1.99202e+09 1.99319e+09 1
000 105 1 1 2.00037e+09 2.00063e+09 2.00165e+09 2.00166e+09 1
000 106 1 1 2.01099e+09 2.01123e+09 2.01225e+09 2.01302e+09 1
000 107 2 1 2.0203e+09 2.02057e+09 2.02159e+09 2.02287e+09 0
001 108 2 1 2.03162e+09 2.03187e+09 2.03289e+09 2.03289e+09 0
001 109 1 0 2.03802e+09 2.03828e+09 2.0393e+09 2.03931e+09 0
001 110 1 1 2.0437e+09 2.04396e+09 2.04498e+09 2.04568e+09 0
000 111 1 1 2.05298e+09 2.05323e+09 2.05425e+09 2.05438e+09 1
000 112 1 1 2.06868e+09 2.06894e+09 2.06996e+09 2.07292e+09 1
000 113 1 1 2.08018e+09 2.08044e+09 2.08146e+09 2.08277e+09 1
000 114 2 1 2.09003e+09 2.09028e+09 2.0913e+09 2.09557e+09 0
001 115 1 1 2.09964e+09 2.09989e+09 2.10091e+09 2.10105e+09 0
000 116 1 1 2.11707e+09 2.11733e+09 2.11835e+09 2.11884e+09 1
000 117 1 1 2.12697e+09 2.12722e+09 2.12824e+09 2.13073e+09 1
000 118 1 1 2.15265e+09 2.1529e+09 2.15392e+09 2.15571e+09 1
000 119 1 1 2.16416e+09 2.16442e+09 2.16544e+09 2.16955e+09 0
000 120 1 0 2.17748e+09 2.17772e+09 2.17874e+09 2.17879e+09 0
001 121 2 1 2.1823e+09 2.18256e+09 2.18358e+09 2.18599e+09 0
001 122 2 1 2.19136e+09 2.19161e+09 2.19263e+09 2.19486e+09 0
001 123 2 1 2.19972e+09 2.19997e+09 2.20099e+09 2.20153e+09 0
001 124 2 0 2.20906e+09 2.20931e+09 2.21033e+09 2.21034e+09 0
000 125 2 1 2.21997e+09 2.22021e+09 2.22124e+09 2.23257e+09 1
001 126 2 1 2.2415e+09 2.24176e+09 2.24278e+09 2.24682e+09 0
001 127 2 1 2.25287e+09 2.25314e+09 2.25416e+09 2.26479e+09 0
001 128 2 1 2.26985e+09 2.27012e+09 2.27114e+09 2.27487e+09 0
001 129 1 1 2.27832e+09 2.27858e+09 2.2796e+09 2.27974e+09 0
000 130 1 1 2.28724e+09 2.28749e+09 2.28851e+09 2.29119e+09 1
000 131 1 0 2.29867e+09 2.29892e+09 2.29994e+09 2.31113e+09 1
001 132 2 1 2.32294e+09 2.32321e+09 2.32423e+09 2.32423e+09 0
001 133 1 1 2.32926e+09 2.32951e+09 2.33053e+09 2.33173e+09 0
000 134 1 1 2.34334e+09 2.34359e+09 2.34461e+09 2.34526e+09 1
000 135 1 1 2.35256e+09 2.35281e+09 2.35384e+09 2.35471e+09 1
000 136 1 1 2.36538e+09 2.36565e+09 2.36667e+09 2.36671e+09 1
000 137 2 1 2.37532e+09 2.37557e+09 2.37659e+09 2.38224e+09 0
001 138 1 0 2.38494e+09 2.3852e+09 2.38623e+09 2.38642e+09 0
001 139 1 1 2.39439e+09 2.39465e+09 2.39567e+09 2.39569e+09 0
000 140 1 1 2.4148e+09 2.41505e+09 2.41607e+09 2.41741e+09 1
000 141 1 0 2.42475e+09 2.425e+09 2.42602e+09 2.42641e+09 1
001 142 2 1 2.43155e+09 2.4318e+09 2.43282e+09 2.43549e+09 0
001 143 2 1 2.43884e+09 2.4391e+09 2.44012e+09 2.44137e+09 0
001 144 1 1 2.44762e+09 2.44788e+09 2.4489e+09 2.44897e+09 0
000 145 1 1 2.45897e+09 2.45922e+09 2.46024e+09 2.46465e+09 1
000 146 1 1 2.47566e+09 2.47592e+09 2.47694e+09 2.47845e+09 1
000 147 1 1 2.48866e+09 2.48893e+09 2.48995e+09 2.49167e+09 1
000 148 1 0 2.50025e+09 2.5005e+09 2.50152e+09 2.50973e+09 0
001 149 1 1 2.51441e+09 2.51466e+09 2.51568e+09 2.51656e+09 0
000 150 1 1 2.52454e+09 2.5248e+09 2.52582e+09 2.5259e+09 1
000 151 1 1 2.5334e+09 2.53365e+09 2.53467e+09 2.5363e+09 1
000 152 1 1 2.54576e+09 2.54601e+09 2.54703e+09 2.54993e+09 1
000 153 1 1 2.55954e+09 2.5598e+09 2.56082e+09 2.56633e+09 0
000 154 2 1 2.57498e+09 2.57523e+09 2.57625e+09 2.57632e+09 0
001 155 2 0 2.58088e+09 2.58114e+09 2.58216e+09 2.58219e+09 0
000 156 2 0 2.58945e+09 2.5897e+09 2.59072e+09 2.59269e+09 1
000 157 2 1 2.60001e+09 2.60026e+09 2.60128e+09 2.60214e+09 1
001 158 2 1 2.60647e+09 2.60673e+09 2.60775e+09 2.60787e+09 0
001 159 2 1 2.61108e+09 2.61134e+09 2.61236e+09 2.61255e+09 0
001 160 1 1 2.61532e+09 2.61558e+09 2.6166e+09 2.61673e+09 0
000 161 1 1 2.62696e+09 2.62721e+09 2.62823e+09 2.62938e+09 1
000 162 1 1 2.63641e+09 2.63666e+09 2.63768e+09 2.63773e+09 1
000 163 1 1 2.64651e+09 2.64678e+09 2.6478e+09 2.64785e+09 1
000 164 1 1 2.65645e+09 2.65672e+09 2.65774e+09 2.65866e+09 0
000 165 2 0 2.66601e+09 2.66626e+09 2.66728e+09 2.66749e+09 0
000 166 1 1 2.67493e+09 2.67518e+09 2.67621e+09 2.67666e+09 0
000 167 2 1 2.68538e+09 2.68564e+09 2.68666e+09 2.68882e+09 0
001 168 2 1 2.69255e+09 2.69281e+09 2.69383e+09 2.6942e+09 0
001 169 2 0 2.69968e+09 2.69994e+09 2.70096e+09 2.70902e+09 0
000 170 2 1 2.71652e+09 2.71678e+09 2.7178e+09 2.72407e+09 1
001 171 1 1 2.72907e+09 2.72934e+09 2.73036e+09 2.73643e+09 0
000 172 1 0 2.74418e+09 2.74443e+09 2.74545e+09 2.74848e+09 1
001 173 1 1 2.75973e+09 2.75998e+09 2.761e+09 2.76202e+09 0
000 174 1 1 2.77104e+09 2.77131e+09 2.77233e+09 2.77614e+09 1
000 175 1 0 2.78438e+09 2.78465e+09 2.78567e+09 2.78742e+09 1
001 176 2 1 2.7903e+09 2.79056e+09 2.79158e+09 2.79195e+09 0
001 177 2 1 2.79775e+09 2.79801e+09 2.79903e+09 2.79906e+09 0
001 178 1 0 2.80892e+09 2.80917e+09 2.81019e+09 2.8106e+09 0
001 179 2 0 2.81492e+09 2.81517e+09 2.81619e+09 2.8162e+09 0
000 180 2 1 2.82421e+09 2.82446e+09 2.82548e+09 2.82549e+09 1
001 181 1 0 2.84493e+09 2.84518e+09 2.8462e+09 2.84742e+09 0
001 182 1 1 2.85052e+09 2.85078e+09 2.8518e+09 2.85262e+09 0
000 183 1 1 2.86099e+09 2.86125e+09 2.86227e+09 2.86484e+09 1
000 184 1 1 2.87191e+09 2.87217e+09 2.87319e+09 2.87625e+09 1
000 185 1 1 2.88429e+09 2.88454e+09 2.88557e+09 2.88558e+09 1
000 186 1 1 2.89697e+09 2.89722e+09 2.89824e+09 2.8989e+09 0
000 187 2 0 2.90765e+09 2.9079e+09 2.90892e+09 2.9108e+09 0
000 188 2 1 2.91871e+09 2.91897e+09 2.91999e+09 2.92199e+09 0
001 189 2 1 2.92604e+09 2.92629e+09 2.92731e+09 2.92997e+09 0
001 190 1 0 2.93358e+09 2.93385e+09 2.93487e+09 2.93507e+09 0
001 191 2 0 2.94184e+09 2.94209e+09 2.94311e+09 2.94313e+09 0
000 192 2 0 2.95064e+09 2.95089e+09 2.95191e+09 2.952e+09 1
000 193 2 1 2.95995e+09 2.9602e+09 2.96122e+09 2.96673e+09 1
001 194 1 0 2.97704e+09 2.9773e+09 2.97832e+09 2.97838e+09 0
001 195 1 1 2.98327e+09 2.98353e+09 2.98455e+09 2.98456e+09 0
000 196 1 1 2.99162e+09 2.99187e+09 2.9929e+09 2.99514e+09 1
000 197 1 1 3.00691e+09 3.00717e+09 3.00819e+09 3.0087e+09 1
000 198 1 0 3.02092e+09 3.02118e+09 3.0222e+09 3.0264e+09 1
001 199 1 1 3.0321e+09 3.03236e+09 3.03338e+09 3.03355e+09 0
000 200 1 0 3.04074e+09 3.04099e+09 3.04201e+09 3.04238e+09 1
001 201 1 1 3.0479e+09 3.04815e+09 3.04917e+09 3.04983e+09 0
000 202 1 1 3.05716e+09 3.05741e+09 3.05843e+09 3.05946e+09 1
000 203 1 1 3.06724e+09 3.06749e+09 3.06851e+09 3.07031e+09 1
000 204 1 1 3.07774e+09 3.078e+09 3.07902e+09 3.07911e+09 1
000 205 1 1 3.0877e+09 3.08797e+09 3.08899e+09 3.0909e+09 0
000 206 2 0 3.09831e+09 3.09857e+09 3.09959e+09 3.10088e+09 0
000 207 2 1 3.10987e+09 3.11012e+09 3.11114e+09 3.1165e+09 0
001 208 2 1 3.12659e+09 3.12684e+09 3.12786e+09 3.12788e+09 0
001 209 1 1 3.13061e+09 3.13087e+09 3.13189e+09 3.13244e+09 0
000 210 1 1 3.14382e+09 3.14407e+09 3.14509e+09 3.14657e+09 1
000 211 1 1 3.15366e+09 3.1539e+09 3.15492e+09 3.15764e+09 1
000 212 1 0 3.166e+09 3.16625e+09 3.16727e+09 3.16793e+09 1
001 213 2 1 3.17255e+09 3.1728e+09 3.17382e+09 3.17398e+09 0
001 214 1 1 3.17816e+09 3.17841e+09 3.17943e+09 3.18062e+09 0
000 215 1 1 3.18889e+09 3.18916e+09 3.19018e+09 3.19221e+09 1
000 216 1 1 3.20029e+09 3.20056e+09 3.20158e+09 3.20161e+09 1
000 217 1 1 3.2096e+09 3.20985e+09 3.21087e+09 3.21235e+09 1
000 218 2 1 3.21982e+09 3.22006e+09 3.22108e+09 3.22141e+09 0
001 219 2 0 3.23039e+09 3.23065e+09 3.23167e+09 3.23169e+09 0
000 220 2 1 3.24139e+09 3.24164e+09 3.24266e+09 3.24301e+09 1
001 221 2 1 3.25223e+09 3.25249e+09 3.25351e+09 3.25373e+09 0
001 222 2 1 3.26464e+09 3.26489e+09 3.26591e+09 3.26655e+09 0
001 223 1 1 3.27558e+09 3.27583e+09 3.27685e+09 3.28088e+09 0
000 224 1 1 3.29096e+09 3.29121e+09 3.29223e+09 3.29229e+09 1
000 225 1 0 3.29959e+09 3.29984e+09 3.30086e+09 3.30089e+09 1
001 226 1 1 3.30871e+09 3.30896e+09 3.30998e+09 3.31459e+09 0
000 227 1 1 3.32352e+09 3.32378e+09 3.3248e+09 3.32621e+09 1
000 228 1 1 3.33495e+09 3.3352e+09 3.33622e+09 3.33779e+09 1
000 229 1 0 3.34488e+09 3.34513e+09 3.34615e+09 3.34618e+09 1
001 230 1 0 3.35227e+09 3.35252e+09 3.35355e+09 3.35357e+09 0
001 231 1 0 3.36382e+09 3.36407e+09 3.36509e+09 3.3668e+09 0
001 232 2 0 3.37062e+09 3.37089e+09 3.37191e+09 3.37205e+09 0
000 233 2 1 3.38025e+09 3.3805e+09 3.38152e+09 3.38262e+09 1
001 234 2 1 3.3973e+09 3.39756e+09 3.39858e+09 3.3992e+09 0
001 235 1 1 3.40199e+09 3.40224e+09 3.40326e+09 3.40365e+09 0
000 236 1 1 3.41302e+09 3.41327e+09 3.4143e+09 3.41667e+09 1
000 237 1 0 3.43082e+09 3.43109e+09 3.43211e+09 3.43242e+09 1
001 238 2 1 3.43591e+09 3.43616e+09 3.43718e+09 3.43721e+09 0
001 239 2 1 3.43996e+09 3.44021e+09 3.44123e+09 3.4423e+09 0
001 240 1 1 3.45123e+09 3.45148e+09 3.4525e+09 3.45383e+09 0
000 241 1 1 3.46215e+09 3.46241e+09 3.46343e+09 3.46409e+09 1
000 242 1 1 3.47487e+09 3.47513e+09 3.47615e+09 3.47752e+09 1
000 243 1 1 3.48491e+09 3.48516e+09 3.48618e+09 3.49202e+09 1
000 244 1 1 3.50374e+09 3.50399e+09 3.50501e+09 3.51035e+09 0
000 245 2 1 3.52168e+09 3.52193e+09 3.52295e+09 3.53813e+09 0
001 246 1 0 3.54075e+09 3.54101e+09 3.54203e+09 3.54212e+09 0
001 247 2 1 3.54487e+09 3.54513e+09 3.54615e+09 3.5506e+09 0
001 248 2 1 3.55812e+09 3.55837e+09 3.55939e+09 3.56148e+09 0
001 249 1 0 3.58075e+09 3.581e+09 3.58202e+09 3.58309e+09 0
001 250 1 1 3.59311e+09 3.59337e+09 3.59439e+09 3.59502e+09 0
000 251 1 1 3.60241e+09 3.60267e+09 3.60369e+09 3.6042e+09 1
000 252 1 0 3.61137e+09 3.61162e+09 3.61264e+09 3.61296e+09 1
001 253 1 0 3.61763e+09 3.61789e+09 3.61891e+09 3.61892e+09 0
001 254 1 1 3.62606e+09 3.62631e+09 3.62733e+09 3.62737e+09 0
000 255 1 0 3.63704e+09 3.63729e+09 3.63831e+09 3.63838e+09 1
001 256 1 0 3.64123e+09 3.64148e+09 3.6425e+09 3.64269e+09 0
001 257 2 1 3.64548e+09 3.64573e+09 3.64675e+09 3.64877e+09 0
001 258 1 0 3.65233e+09 3.65258e+09 3.6536e+09 3.65362e+09 0
001 259 2 1 3.66236e+09 3.66261e+09 3.66363e+09 3.66679e+09 0
001 260 1 1 3.67379e+09 3.67405e+09 3.67508e+09 3.67515e+09 0
000 261 1 1 3.68509e+09 3.68533e+09 3.68635e+09 3.689e+09 1
000 262 1 1 3.69883e+09 3.69908e+09 3.7001e+09 3.70071e+09 1
000 263 1 0 3.70868e+09 3.70893e+09 3.70995e+09 3.71013e+09 1
001 264 2 1 3.72564e+09 3.72589e+09 3.72691e+09 3.72722e+09 0
001 265 2 1 3.73129e+09 3.73154e+09 3.73256e+09 3.73694e+09 0
001 266 2 1 3.74443e+09 3.74468e+09 3.7457e+09 3.74584e+09 0
001 267 2 1 3.75346e+09 3.75372e+09 3.75474e+09 3.75545e+09 0
001 268 1 0 3.75982e+09 3.76008e+09 3.7611e+09 3.76112e+09 0
001 269 2 1 3.76455e+09 3.7648e+09 3.76582e+09 3.76585e+09 0
001 270 1 1 3.77204e+09 3.77229e+09 3.77331e+09 3.77389e+09 0
000 271 1 1 3.78236e+09 3.78261e+09 3.78363e+09 3.78371e+09 1
000 272 1 1 3.79669e+09 3.79695e+09 3.79797e+09 3.79934e+09 1
000 273 1 1 3.81496e+09 3.81521e+09 3.81623e+09 3.81685e+09 1
000 274 2 1 3.828e+09 3.82825e+09 3.82927e+09 3.82981e+09 0
001 275 1 1 3.83594e+09 3.83619e+09 3.83721e+09 3.83816e+09 0
000 276 1 1 3.84986e+09 3.85012e+09 3.85114e+09 3.85358e+09 1
000 277 1 1 3.86688e+09 3.86715e+09 3.86817e+09 3.87345e+09 1
000 278 1 1 3.88239e+09 3.88264e+09 3.88366e+09 3.88824e+09 1
000 279 1 1 3.89629e+09 3.89654e+09 3.89756e+09 3.90013e+09 0
000 280 1 1 3.90774e+09 3.908e+09 3.90902e+09 3.91165e+09 0
000 281 1 1 3.91922e+09 3.91947e+09 3.92049e+09 3.92513e+09 0
000 282 1 1 3.93263e+09 3.93289e+09 3.93391e+09 3.93413e+09 0
000 283 1 1 3.94214e+09 3.9424e+09 3.94343e+09 3.95149e+09 0
000 284 2 1 3.95968e+09 3.95993e+09 3.96095e+09 3.96104e+09 0
001 285 1 1 3.971e+09 3.97126e+09 3.97228e+09 3.97312e+09 0
000 286 1 1 3.98508e+09 3.98534e+09 3.98636e+09 3.98676e+09 1
000 287 1 1 3.9972e+09 3.99746e+09 3.99848e+09 3.99852e+09 1
000 288 1 1 4.00563e+09 4.00589e+09 4.00691e+09 4.00757e+09 1
000 289 2 1 4.01933e+09 4.01958e+09 4.0206e+09 4.02121e+09 0
001 290 1 1 4.03249e+09 4.03274e+09 4.03376e+09 4.03435e+09 0
000 291 1 1 4.04328e+09 4.04354e+09 4.04456e+09 4.04556e+09 1
000 292 1 1 4.05303e+09 4.05329e+09 4.05431e+09 4.05436e+09 1
000 293 1 1 4.0631e+09 4.06334e+09 4.06436e+09 4.06567e+09 1
000 294 1 1 4.07554e+09 4.07579e+09 4.07681e+09 4.07938e+09 0
000 295 1 1 4.08948e+09 4.08974e+09 4.09076e+09 4.09101e+09 0
000 296 1 1 4.09826e+09 4.09852e+09 4.09954e+09 4.10208e+09 0
000 297 1 1 4.10948e+09 4.10974e+09 4.11076e+09 4.11127e+09 0
000 298 2 1 4.1187e+09 4.11894e+09 4.11996e+09 4.12199e+09 0
001 299 2 1 4.1449e+09 4.14516e+09 4.14618e+09 4.14619e+09 0
001 300 2 1 4.16537e+09 4.16564e+09 4.16666e+09 4.16791e+09 0
001 301 2 1 4.1768e+09 4.17705e+09 4.17807e+09 4.18676e+09 0
001 302 2 0 4.18951e+09 4.18977e+09 4.19079e+09 4.19087e+09 0
000 303 2 0 4.19885e+09 4.1991e+09 4.20012e+09 4.2013e+09 1
000 304 2 1 4.20943e+09 4.20969e+09 4.21071e+09 4.21088e+09 1
001 305 2 0 4.21669e+09 4.21694e+09 4.21796e+09 4.218e+09 0
000 306 2 1 4.22695e+09 4.2272e+09 4.22822e+09 4.22971e+09 1
001 307 1 1 4.2326e+09 4.23285e+09 4.23387e+09 4.23402e+09 0
000 308 1 1 4.24251e+09 4.24276e+09 4.24379e+09 4.24707e+09 1
000 309 1 1 4.25553e+09 4.25578e+09 4.2568e+09 4.25681e+09 1
000 310 1 1 4.26746e+09 4.26772e+09 4.26874e+09 4.26888e+09 1
000 311 2 1 4.27696e+09 4.27722e+09 4.27824e+09 4.29287e+09 0
001 312 1 1 1.96097e+06 2.21797e+06 3.23825e+06 4.19881e+06 0
000 313 1 1 1.23751e+07 1.26227e+07 1.36429e+07 1.43619e+07 1
000 314 1 1 2.85706e+07 2.88178e+07 2.98381e+07 3.1181e+07 1
000 315 1 1 3.83806e+07 3.86366e+07 3.96569e+07 4.09737e+07 1
000 316 2 0 4.83267e+07 4.85728e+07 4.9593e+07 4.96229e+07 0
000 317 2 1 5.82257e+07 5.84717e+07 5.9492e+07 5.95049e+07 0
001 318 2 1 6.48172e+07 6.50781e+07 6.60983e+07 6.64859e+07 0
001 319 2 1 6.94098e+07 6.96655e+07 7.06857e+07 7.11755e+07 0
001 320 2 1 7.62122e+07 7.64634e+07 7.74837e+07 7.78245e+07 0
001 321 2 1 8.96819e+07 8.99369e+07 9.09571e+07 9.36994e+07 0
001 322 2 1 1.01135e+08 1.01392e+08 1.02413e+08 1.02426e+08 0
001 323 1 1 1.05823e+08 1.06073e+08 1.07093e+08 1.07105e+08 0
000 324 1 0 1.14225e+08 1.14487e+08 1.15507e+08 1.17936e+08 1
001 325 1 0 1.24541e+08 1.24792e+08 1.25812e+08 1.25833e+08 0
001 326 1 0 1.32802e+08 1.33052e+08 1.34072e+08 1.3433e+08 0
001 327 1 0 1.46782e+08 1.47037e+08 1.48057e+08 1.5589e+08 0
001 328 1 1 1.60046e+08 1.60292e+08 1.61312e+08 1.61445e+08 0
000 329 1 0 1.68505e+08 1.68764e+08 1.69784e+08 1.70001e+08 1
001 330 1 1 1.73771e+08 1.74033e+08 1.75053e+08 1.79742e+08 0
000 331 1 1 1.86878e+08 1.87135e+08 1.88155e+08 1.92029e+08 1
000 332 1 1 1.99669e+08 1.99929e+08 2.0095e+08 2.0295e+08 1
000 333 1 1 2.10781e+08 2.1103e+08 2.12051e+08 2.16867e+08 1
000 334 1 1 2.24264e+08 2.24523e+08 2.25543e+08 2.2768e+08 0
000 335 2 0 2.38236e+08 2.38488e+08 2.39509e+08 2.40952e+08 0
000 336 2 1 2.50938e+08 2.51198e+08 2.52218e+08 2.54238e+08 0
001 337 2 1 2.58128e+08 2.58382e+08 2.59402e+08 2.60091e+08 0
001 338 2 1 2.69061e+08 2.69319e+08 2.70339e+08 2.7267e+08 0
001 339 2 0 2.8544e+08 2.85691e+08 2.86711e+08 2.87094e+08 0
000 340 2 1 2.95517e+08 2.95768e+08 2.96788e+08 3.03135e+08 1
001 341 1 0 3.11033e+08 3.11284e+08 3.12304e+08 3.12363e+08 0
001 342 2 1 3.16243e+08 3.16488e+08 3.17508e+08 3.17534e+08 0
001 343 2 1 3.32704e+08 3.32956e+08 3.33976e+08 3.3612e+08 0
001 344 1 0 3.4287e+08 3.43132e+08 3.44152e+08 3.44256e+08 0
001 345 1 1 3.49934e+08 3.50191e+08 3.51211e+08 3.5135e+08 0
000 346 1 0 3.58615e+08 3.58874e+08 3.59894e+08 3.62958e+08 1
001 347 1 1 3.67845e+08 3.68092e+08 3.69113e+08 3.69125e+08 0
000 348 1 1 3.7915e+08 3.79402e+08 3.80423e+08 3.82033e+08 1
000 349 1 1 3.91269e+08 3.91518e+08 3.92538e+08 3.93033e+08 1
000 350 1 1 4.01566e+08 4.01828e+08 4.02848e+08 4.03235e+08 1
000 351 1 0 4.11549e+08 4.11802e+08 4.12823e+08 4.12924e+08 0
001 352 2 1 4.21054e+08 4.21303e+08 4.22323e+08 4.22637e+08 0
001 353 1 1 4.29092e+08 4.2935e+08 4.30371e+08 4.31689e+08 0
000 354 1 1 4.43283e+08 4.43545e+08 4.44565e+08 4.446e+08 1
000 355 1 1 4.51982e+08 4.52244e+08 4.53265e+08 4.53301e+08 1
000 356 1 0 4.69038e+08 4.693e+08 4.70321e+08 4.78042e+08 1
001 357 2 1 4.80926e+08 4.8118e+08 4.822e+08 4.82285e+08 0
001 358 1 0 4.86978e+08 4.87221e+08 4.88242e+08 4.88398e+08 0
001 359 1 0 4.97405e+08 4.97661e+08 4.98681e+08 4.98694e+08 0
001 360 1 1 5.02923e+08 5.03176e+08 5.04197e+08 5.07133e+08 0
000 361 1 1 5.16223e+08 5.16472e+08 5.17492e+08 5.19046e+08 1
000 362 1 0 5.26667e+08 5.26921e+08 5.27942e+08 5.27952e+08 1
001 363 2 1 5.32207e+08 5.32464e+08 5.33484e+08 5.34225e+08 0
001 364 2 1 5.3706e+08 5.37311e+08 5.38331e+08 5.38539e+08 0
001 365 2 1 5.47584e+08 5.47838e+08 5.48858e+08 5.50451e+08 0
001 366 2 1 5.56873e+08 5.57127e+08 5.58147e+08 5.59702e+08 0
001 367 2 1 5.63457e+08 5.63719e+08 5.64739e+08 5.65922e+08 0
001 368 2 1 5.69545e+08 5.69804e+08 5.70825e+08 5.70835e+08 0
001 369 2 0 5.80268e+08 5.80521e+08 5.81542e+08 5.81979e+08 0
000 370 2 1 5.91427e+08 5.91686e+08 5.92706e+08 5.92914e+08 1
001 371 2 1 5.99186e+08 5.99448e+08 6.00469e+08 6.01284e+08 0
001 372 1 1 6.09331e+08 6.09579e+08 6.10599e+08 6.23626e+08 0
000 373 1 0 6.45997e+08 6.46254e+08 6.47274e+08 6.49051e+08 1
001 374 1 1 6.61315e+08 6.61561e+08 6.62581e+08 6.66886e+08 0
000 375 1 1 6.74607e+08 6.74864e+08 6.75885e+08 6.78887e+08 1
000 376 1 1 6.86375e+08 6.86634e+08 6.87654e+08 6.91232e+08 1
000 377 1 1 6.98662e+08 6.98917e+08 6.99938e+08 7.00136e+08 1
000 378 2 0 7.09682e+08 7.09935e+08 7.10956e+08 7.10968e+08 0
000 379 2 0 7.19883e+08 7.20138e+08 7.21159e+08 7.39744e+08 0
000 380 1 1 7.51723e+08 7.51968e+08 7.52989e+08 7.56281e+08 0
000 381 2 1 7.63924e+08 7.64169e+08 7.65189e+08 7.68576e+08 0
001 382 1 1 7.76949e+08 7.77209e+08 7.78229e+08 7.78271e+08 0
000 383 1 1 7.89797e+08 7.90044e+08 7.91064e+08 7.91169e+08 1
000 384 1 1 8.12774e+08 8.13025e+08 8.14046e+08 8.1458e+08 1
000 385 1 0 8.29416e+08 8.29664e+08 8.30684e+08 8.30711e+08 1
001 386 2 1 8.3808e+08 8.38334e+08 8.39355e+08 8.40348e+08 0
001 387 1 1 8.44293e+08 8.44546e+08 8.45566e+08 8.47419e+08 0
000 388 1 1 8.61262e+08 8.6151e+08 8.6253e+08 8.64443e+08 1
000 389 1 0 8.71968e+08 8.72235e+08 8.73255e+08 8.74324e+08 1
001 390 2 1 8.85185e+08 8.85443e+08 8.86463e+08 8.87291e+08 0
001 391 1 1 8.91508e+08 8.91754e+08 8.92775e+08 8.93576e+08 0
000 392 1 1 9.00871e+08 9.01124e+08 9.02144e+08 9.03164e+08 1
000 393 1 1 9.11313e+08 9.11573e+08 9.12594e+08 9.13675e+08 1
000 394 1 0 9.221e+08 9.22346e+08 9.23366e+08 9.28259e+08 1
001 395 2 0 9.33027e+08 9.3329e+08 9.3431e+08 9.34566e+08 0
000 396 2 1 9.46481e+08 9.4673e+08 9.4775e+08 9.47775e+08 1
001 397 2 1 9.50712e+08 9.50962e+08 9.51982e+08 9.53668e+08 0
001 398 2 1 9.57484e+08 9.5774e+08 9.58761e+08 9.59145e+08 0
001 399 1 1 9.62292e+08 9.62541e+08 9.63562e+08 9.66658e+08 0
000 400 1 1 9.73777e+08 9.74023e+08 9.75044e+08 9.77439e+08 1
000 401 1 0 9.84515e+08 9.84775e+08 9.85795e+08 9.85818e+08 1
001 402 2 0 9.88813e+08 9.89069e+08 9.9009e+08 9.9129e+08 0
000 403 2 1 9.98794e+08 9.99039e+08 1.00006e+09 1.00408e+09 1
001 404 1 1 1.01011e+09 1.01036e+09 1.01138e+09 1.0116e+09 0
000 405 1 0 1.01944e+09 1.01969e+09 1.02071e+09 1.02075e+09 1
001 406 1 1 1.02428e+09 1.02453e+09 1.02555e+09 1.03051e+09 0
000 407 1 0 1.03802e+09 1.03827e+09 1.03929e+09 1.0393e+09 1
001 408 2 1 1.05043e+09 1.05068e+09 1.0517e+09 1.052e+09 0
001 409 2 0 1.05456e+09 1.0548e+09 1.05583e+09 1.05606e+09 0
000 410 2 1 1.06399e+09 1.06425e+09 1.06527e+09 1.0656e+09 1
001 411 2 0 1.06856e+09 1.0688e+09 1.06982e+09 1.07078e+09 0
000 412 2 0 1.07869e+09 1.07895e+09 1.07997e+09 1.08088e+09 1
000 413 2 0 1.09832e+09 1.09857e+09 1.09959e+09 1.10461e+09 1
000 414 2 0 1.11216e+09 1.11243e+09 1.11345e+09 1.11797e+09 1
000 415 1 0 1.12529e+09 1.12555e+09 1.12657e+09 1.12804e+09 0
001 416 2 1 1.13193e+09 1.13218e+09 1.1332e+09 1.13378e+09 0
001 417 2 1 1.14313e+09 1.14338e+09 1.1444e+09 1.14531e+09 0
001 418 2 0 1.14973e+09 1.14999e+09 1.15101e+09 1.15103e+09 0
000 419 2 1 1.15834e+09 1.15859e+09 1.15961e+09 1.1603e+09 1
001 420 2 1 1.16371e+09 1.16396e+09 1.16498e+09 1.16591e+09 0
001 421 1 1 1.17142e+09 1.17168e+09 1.1727e+09 1.1728e+09 0
000 422 1 0 1.18435e+09 1.1846e+09 1.18562e+09 1.18574e+09 1
001 423 1 0 1.19019e+09 1.19045e+09 1.19147e+09 1.19151e+09 0
001 424 1 1 1.20033e+09 1.20057e+09 1.20159e+09 1.20327e+09 0
000 425 1 1 1.21445e+09 1.2147e+09 1.21572e+09 1.2244e+09 1
000 426 1 1 1.23654e+09 1.23678e+09 1.2378e+09 1.23783e+09 1
000 427 1 1 1.24512e+09 1.24538e+09 1.2464e+09 1.24723e+09 1
000 428 2 0 1.25708e+09 1.25734e+09 1.25836e+09 1.25963e+09 0
000 429 2 1 1.27488e+09 1.27513e+09 1.27615e+09 1.27713e+09 0
001 430 1 1 1.2806e+09 1.28085e+09 1.28187e+09 1.2832e+09 0
000 431 1 1 1.29031e+09 1.29058e+09 1.2916e+09 1.29165e+09 1
000 432 1 1 1.30371e+09 1.30397e+09 1.30499e+09 1.305e+09 1
000 433 1 1 1.31225e+09 1.31251e+09 1.31353e+09 1.31458e+09 1
000 434 2 1 1.32398e+09 1.32424e+09 1.32526e+09 1.32915e+09 0
001 435 2 0 1.33209e+09 1.33234e+09 1.33336e+09 1.33397e+09 0
000 436 2 0 1.34204e+09 1.34229e+09 1.34331e+09 1.34348e+09 1
000 437 2 1 1.35633e+09 1.35659e+09 1.35761e+09 1.35808e+09 1
001 438 1 1 1.36163e+09 1.36189e+09 1.36291e+09 1.36515e+09 0
000 439 1 0 1.37271e+09 1.37296e+09 1.37398e+09 1.37417e+09 1
001 440 2 0 1.37857e+09 1.37882e+09 1.37984e+09 1.38662e+09 0
000 441 2 0 1.39505e+09 1.3953e+09 1.39632e+09 1.39679e+09 1
000 442 2 1 1.40524e+09 1.40551e+09 1.40653e+09 1.40752e+09 1
001 443 2 1 1.41133e+09 1.41158e+09 1.4126e+09 1.41411e+09 0
001 444 2 1 1.42532e+09 1.42557e+09 1.42659e+09 1.42696e+09 0
001 445 1 1 1.4295e+09 1.42976e+09 1.43078e+09 1.43083e+09 0
000 446 1 0 1.43884e+09 1.4391e+09 1.44012e+09 1.4402e+09 1
001 447 1 1 1.44863e+09 1.44888e+09 1.4499e+09 1.45053e+09 0
000 448 1 0 1.45974e+09 1.46e+09 1.46102e+09 1.46116e+09 1
001 449 1 0 1.46697e+09 1.46723e+09 1.46825e+09 1.46864e+09 0
001 450 2 1 1.4721e+09 1.47235e+09 1.47337e+09 1.47338e+09 0
001 451 1 0 1.48657e+09 1.48683e+09 1.48785e+09 1.48825e+09 0
001 452 1 0 1.49435e+09 1.4946e+09 1.49562e+09 1.49615e+09 0
001 453 1 1 1.50256e+09 1.50281e+09 1.50383e+09 1.50617e+09 0
000 454 1 1 1.51862e+09 1.51888e+09 1.5199e+09 1.52206e+09 1
000 455 1 1 1.52934e+09 1.52959e+09 1.53061e+09 1.53478e+09 1
000 456 1 1 1.54189e+09 1.54215e+09 1.54318e+09 1.54337e+09 1
000 457 1 1 1.55154e+09 1.55179e+09 1.55281e+09 1.55285e+09 0
000 458 1 1 1.56019e+09 1.56045e+09 1.56147e+09 1.56481e+09 0
000 459 2 0 1.57526e+09 1.57552e+09 1.57654e+09 1.57769e+09 0
000 460 1 0 1.58663e+09 1.58689e+09 1.58791e+09 1.58805e+09 0
001 461 1 0 1.59428e+09 1.59453e+09 1.59555e+09 1.59767e+09 0
001 462 1 1 1.60128e+09 1.60153e+09 1.60255e+09 1.60332e+09 0
000 463 1 1 1.61177e+09 1.61204e+09 1.61306e+09 1.61311e+09 1
000 464 1 1 1.62484e+09 1.62509e+09 1.62611e+09 1.62732e+09 1
000 465 1 1 1.63465e+09 1.6349e+09 1.63592e+09 1.63649e+09 1
000 466 1 1 1.64481e+09 1.64507e+09 1.64609e+09 1.64659e+09 0
000 467 2 1 1.65823e+09 1.65849e+09 1.65951e+09 1.66171e+09 0
001 468 2 1 1.66959e+09 1.66984e+09 1.67086e+09 1.6721e+09 0
001 469 2 0 1.68097e+09 1.68122e+09 1.68224e+09 1.68819e+09 0
000 470 2 0 1.69716e+09 1.69741e+09 1.69843e+09 1.70131e+09 1
000 471 2 1 1.70923e+09 1.70948e+09 1.7105e+09 1.71139e+09 1
001 472 1 1 1.71394e+09 1.7142e+09 1.71522e+09 1.71791e+09 0
000 473 1 0 1.72799e+09 1.72825e+09 1.72927e+09 1.73128e+09 1
001 474 2 1 1.73509e+09 1.73534e+09 1.73636e+09 1.73648e+09 0
001 475 1 1 1.74545e+09 1.7457e+09 1.74672e+09 1.74925e+09 0
000 476 1 0 1.75676e+09 1.757e+09 1.75802e+09 1.75818e+09 1
001 477 2 1 1.76578e+09 1.76604e+09 1.76706e+09 1.76852e+09 0
001 478 1 1 1.77839e+09 1.77865e+09 1.77967e+09 1.78032e+09 0
000 479 1 1 1.78907e+09 1.78932e+09 1.79034e+09 1.79042e+09 1
000 480 1 0 1.80165e+09 1.80192e+09 1.80294e+09 1.80302e+09 1
001 481 1 1 1.806e+09 1.80626e+09 1.80728e+09 1.80926e+09 0
000 482 1 0 1.82777e+09 1.82803e+09 1.82905e+09 1.83042e+09 1
001 483 2 0 1.83426e+09 1.83452e+09 1.83554e+09 1.83609e+09 0
000 484 2 1 1.85264e+09 1.85288e+09 1.85391e+09 1.85451e+09 1
001 485 1 0 1.86286e+09 1.86311e+09 1.86413e+09 1.86426e+09 0
001 486 1 0 1.86813e+09 1.86838e+09 1.8694e+09 1.86941e+09 0
001 487 1 0 1.87222e+09 1.87247e+09 1.87349e+09 1.87352e+09 0
001 488 2 0 1.87798e+09 1.87824e+09 1.87926e+09 1.88031e+09 0
000 489 2 0 1.89058e+09 1.89084e+09 1.89186e+09 1.89187e+09 1
000 490 2 1 1.90207e+09 1.90232e+09 1.90334e+09 1.9051e+09 1
001 491 2 1 1.90803e+09 1.9083e+09 1.90932e+09 1.918e+09 0
001 492 2 1 1.92063e+09 1.92088e+09 1.9219e+09 1.92445e+09 0
001 493 2 1 1.93155e+09 1.93181e+09 1.93284e+09 1.93893e+09 0
001 494 1 1 1.94159e+09 1.94186e+09 1.94288e+09 1.94375e+09 0
000 495 1 1 1.95253e+09 1.9528e+09 1.95382e+09 1.95384e+09 1
000 496 1 0 1.96131e+09 1.96156e+09 1.96258e+09 1.96497e+09 1
001 497 1 1 1.9685e+09 1.96875e+09 1.96977e+09 1.96981e+09 0
000 498 1 1 1.97728e+09 1.97753e+09 1.97855e+09 1.97916e+09 1
000 499 1 1 1.98658e+09 1.98683e+09 1.98786e+09 1.98859e+09 1
000 500 1 1 1.99678e+09 1.99703e+09 1.99805e+09 1.99919e+09 1
000 501 2 1 2.00659e+09 2.00685e+09 2.00787e+09 2.00982e+09 0
001 502 1 1 2.01321e+09 2.01347e+09 2.01449e+09 2.01554e+09 0
000 503 1 1 2.02606e+09 2.02631e+09 2.02733e+09 2.02872e+09 1
000 504 1 0 2.03701e+09 2.03727e+09 2.03829e+09 2.0383e+09 1
001 505 2 1 2.0432e+09 2.04345e+09 2.04447e+09 2.04716e+09 0
001 506 2 0 2.05844e+09 2.05871e+09 2.05973e+09 2.06632e+09 0
000 507 2 0 2.0741e+09 2.07437e+09 2.07539e+09 2.07633e+09 1
000 508 2 0 2.08358e+09 2.08383e+09 2.08485e+09 2.08932e+09 1
000 509 2 1 2.09648e+09 2.09673e+09 2.09775e+09 2.09805e+09 1
001 510 2 0 2.10135e+09 2.10161e+09 2.10263e+09 2.10335e+09 0
000 511 2 1 2.11054e+09 2.11079e+09 2.11181e+09 2.12104e+09 1
001 512 1 1 2.1284e+09 2.12865e+09 2.12967e+09 2.13124e+09 0
000 513 1 0 2.1384e+09 2.13865e+09 2.13967e+09 2.14537e+09 1
001 514 1 1 2.15699e+09 2.15725e+09 2.15827e+09 2.16038e+09 0
000 515 1 1 2.16762e+09 2.16788e+09 2.1689e+09 2.17091e+09 1
000 516 1 1 2.18031e+09 2.18056e+09 2.18159e+09 2.18304e+09 1
000 517 1 0 2.19081e+09 2.19107e+09 2.19209e+09 2.20036e+09 1
001 518 1 0 2.20352e+09 2.20378e+09 2.2048e+09 2.20579e+09 0
001 519 1 1 2.20859e+09 2.20884e+09 2.20986e+09 2.20999e+09 0
000 520 1 1 2.21881e+09 2.21906e+09 2.22008e+09 2.2234e+09 1
000 521 1 1 2.23073e+09 2.23098e+09 2.232e+09 2.23515e+09 1
000 522 1 0 2.24451e+09 2.24477e+09 2.24579e+09 2.24622e+09 1
001 523 1 1 2.25673e+09 2.257e+09 2.25802e+09 2.25875e+09 0
000 524 1 0 2.26579e+09 2.26605e+09 2.26707e+09 2.26713e+09 1
001 525 2 0 2.2699e+09 2.27015e+09 2.27117e+09 2.27251e+09 0
000 526 2 0 2.28253e+09 2.28279e+09 2.28381e+09 2.2843e+09 1
000 527 2 1 2.29572e+09 2.29597e+09 2.29699e+09 2.29725e+09 1
001 528 1 0 2.30626e+09 2.30651e+09 2.30753e+09 2.3079e+09 0
001 529 2 1 2.3112e+09 2.31145e+09 2.31247e+09 2.31294e+09 0
001 530 2 1 2.32959e+09 2.32984e+09 2.33086e+09 2.33109e+09 0
001 531 1 1 2.3343e+09 2.33455e+09 2.33557e+09 2.33561e+09 0
000 532 1 0 2.3469e+09 2.34716e+09 2.34818e+09 2.34819e+09 1
001 533 1 1 2.35528e+09 2.35554e+09 2.35656e+09 2.3647e+09 0
000 534 1 0 2.37219e+09 2.37245e+09 2.37347e+09 2.37723e+09 1
001 535 1 1 2.38258e+09 2.38284e+09 2.38386e+09 2.38471e+09 0
000 536 1 1 2.39176e+09 2.39202e+09 2.39304e+09 2.39373e+09 1
000 537 1 1 2.40617e+09 2.40644e+09 2.40746e+09 2.41652e+09 1
000 538 1 0 2.4298e+09 2.43004e+09 2.43106e+09 2.43361e+09 1
001 539 2 1 2.43936e+09 2.4396e+09 2.44063e+09 2.47771e+09 0
001 540 1 1 2.48073e+09 2.48099e+09 2.48201e+09 2.4828e+09 0
000 541 1 1 2.49495e+09 2.49521e+09 2.49623e+09 2.4973e+09 1
000 542 1 1 2.50681e+09 2.50705e+09 2.50807e+09 2.51634e+09 1
000 543 1 1 2.5321e+09 2.53235e+09 2.53337e+09 2.53441e+09 1
000 544 1 0 2.55535e+09 2.55561e+09 2.55663e+09 2.57208e+09 0
001 545 1 1 2.57673e+09 2.57699e+09 2.57801e+09 2.58191e+09 0
000 546 1 1 2.58989e+09 2.59013e+09 2.59115e+09 2.59459e+09 1
000 547 1 0 2.60166e+09 2.60192e+09 2.60294e+09 2.60343e+09 1
001 548 2 1 2.6071e+09 2.60735e+09 2.60837e+09 2.6085e+09 0
001 549 1 1 2.61245e+09 2.61271e+09 2.61373e+09 2.61499e+09 0
000 550 1 0 2.63043e+09 2.63069e+09 2.63171e+09 3.01007e+09 1
001 