trial trialType response stillTime stimOnset stimOffset respTime correctionTrial correct
001 1 1 3.30344e+06 3.58688e+06 4.60644e+06 4.88322e+06 0 0
002 1 1 2.14948e+07 2.17534e+07 2.27729e+07 2.31707e+07 1 0
003 1 0 3.02899e+07 3.0542e+07 3.15615e+07 3.17255e+07 1 1
004 2 1 9.41056e+07 9.43563e+07 9.53759e+07 9.53962e+07 0 1
005 2 1 9.9071e+07 9.9324e+07 1.00344e+08 1.02758e+08 0 1
006 1 0 1.05579e+08 1.05846e+08 1.06866e+08 1.09311e+08 0 1
007 1 0 1.11895e+08 1.12163e+08 1.13182e+08 1.13427e+08 0 1
008 2 1 1.16659e+08 1.16915e+08 1.17934e+08 1.1961e+08 0 1
009 1 1 1.22569e+08 1.22819e+08 1.23839e+08 1.2521e+08 0 0
010 1 1 1.34134e+08 1.34385e+08 1.35404e+08 1.37648e+08 1 0
011 1 1 1.62642e+08 1.62893e+08 1.63912e+08 1.63959e+08 1 0
012 1 1 1.79979e+08 1.80235e+08 1.81255e+08 1.81487e+08 1 0
013 1 1 1.92882e+08 1.93132e+08 1.94152e+08 1.94345e+08 0 0
014 2 0 2.06503e+08 2.06752e+08 2.07771e+08 2.07824e+08 0 0
015 1 1 2.16109e+08 2.16358e+08 2.17378e+08 2.21245e+08 0 0
016 1 1 2.33599e+08 2.33858e+08 2.34878e+08 2.35075e+08 0 0
017 2 1 2.42506e+08 2.4276e+08 2.4378e+08 2.43822e+08 0 1
018 2 1 2.49715e+08 2.49966e+08 2.50986e+08 2.51025e+08 0 1
019 1 1 2.66369e+08 2.66622e+08 2.67642e+08 2.68616e+08 0 0
020 1 1 2.77365e+08 2.77616e+08 2.78635e+08 2.86334e+08 1 0
021 1 1 2.99568e+08 2.99834e+08 3.00853e+08 3.01048e+08 1 0
022 1 0 3.10046e+08 3.10304e+08 3.11323e+08 3.11503e+08 1 1
023 1 1 3.28256e+08 3.28515e+08 3.29535e+08 3.2993e+08 0 0
024 1 0 3.3712e+08 3.3738e+08 3.384e+08 3.38436e+08 1 1
025 2 0 3.41035e+08 3.41296e+08 3.42316e+08 3.4961e+08 0 0
026 2 0 3.57292e+08 3.57551e+08 3.58571e+08 3.58665e+08 1 0
027 2 0 3.66979e+08 3.67238e+08 3.68258e+08 3.68268e+08 1 0
028 2 0 3.76308e+08 3.76562e+08 3.77582e+08 3.80678e+08 1 0
029 2 0 3.89119e+08 3.89373e+08 3.90393e+08 3.90542e+08 0 0
030 1 0 4.01961e+08 4.02227e+08 4.03247e+08 4.0326e+08 0 1
031 1 1 4.05896e+08 4.06148e+08 4.07168e+08 4.18146e+08 0 0
032 1 1 4.34584e+08 4.3484e+08 4.35859e+08 4.3654e+08 1 0
033 1 1 4.4359e+08 4.43855e+08 4.44875e+08 4.45192e+08 1 0
034 1 1 4.55242e+08 4.55502e+08 4.56522e+08 4.56593e+08 1 0
035 1 0 4.66525e+08 4.66778e+08 4.67798e+08 4.68336e+08 0 1
036 1 0 5.04299e+08 5.04562e+08 5.05581e+08 5.05644e+08 0 1
037 2 1 5.08599e+08 5.0885e+08 5.09869e+08 5.22061e+08 0 1
038 1 0 5.24686e+08 5.24942e+08 5.25962e+08 5.3006e+08 0 1
039 1 1 5.32715e+08 5.32965e+08 5.33985e+08 5.3996e+08 0 0
040 1 0 5.49807e+08 5.50068e+08 5.51088e+08 5.51119e+08 1 1
041 2 1 5.54086e+08 5.54335e+08 5.55355e+08 5.63961e+08 0 1
042 2 1 5.66614e+08 5.66866e+08 5.67886e+08 5.76465e+08 0 1
043 2 0 5.79454e+08 5.79713e+08 5.80732e+08 5.90605e+08 0 0
044 2 1 5.97977e+08 5.9824e+08 5.9926e+08 5.99336e+08 1 1
045 2 1 6.0313e+08 6.03383e+08 6.04403e+08 6.0445e+08 0 1
046 2 1 6.07198e+08 6.07458e+08 6.08478e+08 6.15493e+08 0 1
047 1 1 6.183e+08 6.18558e+08 6.19578e+08 6.27411e+08 0 0
048 1 0 6.34528e+08 6.34787e+08 6.35807e+08 6.35834e+08 1 1
049 1 1 6.39126e+08 6.39382e+08 6.40402e+08 6.47805e+08 0 0
050 1 0 6.56067e+08 6.56331e+08 6.57351e+08 6.57647e+08 1 1
051 2 0 6.60252e+08 6.60516e+08 6.61535e+08 6.61557e+08 0 0
052 2 1 6.70021e+08 6.70288e+08 6.71307e+08 6.71409e+08 1 1
053 1 0 6.87063e+08 6.87323e+08 6.88343e+08 6.88474e+08 0 1
054 2 1 7.08722e+08 7.08975e+08 7.09995e+08 7.11219e+08 0 1
055 1 1 7.13958e+08 7.14222e+08 7.15242e+08 7.17357e+08 0 0
056 1 0 7.26224e+08 7.26484e+08 7.27503e+08 7.27916e+08 1 1
057 2 0 7.31739e+08 7.31995e+08 7.33015e+08 7.33033e+08 0 0
058 2 0 7.50727e+08 7.50988e+08 7.52007e+08 7.52044e+08 1 0
059 2 1 7.63103e+08 7.63365e+08 7.64385e+08 7.64399e+08 1 1
060 2 1 7.67305e+08 7.67561e+08 7.6858e+08 7.78287e+08 0 1
061 2 1 7.80984e+08 7.81235e+08 7.82255e+08 7.83575e+08 0 1
062 1 1 7.86345e+08 7.86605e+08 7.87625e+08 7.90433e+08 0 0
063 1 1 7.99484e+08 7.99747e+08 8.00767e+08 8.0104e+08 1 0
064 1 0 8.09754e+08 8.09997e+08 8.11016e+08 8.11096e+08 1 1
065 2 1 8.13877e+08 8.14139e+08 8.15158e+08 8.19994e+08 0 1
066 1 1 8.22826e+08 8.23076e+08 8.24096e+08 8.25773e+08 0 0
067 1 1 8.41563e+08 8.41816e+08 8.42836e+08 8.43285e+08 1 0
068 1 0 8.53645e+08 8.5389e+08 8.5491e+08 8.54997e+08 1 1
069 1 0 8.65779e+08 8.66041e+08 8.6706e+08 8.67117e+08 0 1
070 2 1 8.70019e+08 8.70284e+08 8.71304e+08 8.7143e+08 0 1
071 1 0 8.75784e+08 8.76036e+08 8.77056e+08 8.81886e+08 0 1
072 2 0 8.84953e+08 8.85212e+08 8.86231e+08 8.86299e+08 0 0
073 2 0 8.96236e+08 8.96486e+08 8.97506e+08 8.97529e+08 1 0
074 2 0 9.0687e+08 9.07126e+08 9.08145e+08 9.08575e+08 1 0
075 2 0 9.16322e+08 9.16588e+08 9.17608e+08 9.17778e+08 1 0
076 1 0 9.25838e+08 9.26084e+08 9.27103e+08 9.27246e+08 0 1
077 1 1 9.29781e+08 9.30038e+08 9.31058e+08 9.33808e+08 0 0
078 1 0 9.4181e+08 9.42053e+08 9.43072e+08 9.47009e+08 1 1
079 1 1 9.50027e+08 9.50272e+08 9.51291e+08 9.53548e+08 0 0
080 1 0 9.60775e+08 9.6103e+08 9.6205e+08 9.63631e+08 1 1
081 1 1 9.66315e+08 9.66574e+08 9.67593e+08 9.71747e+08 0 0
082 1 1 9.81367e+08 9.81626e+08 9.82646e+08 9.82772e+08 1 0
083 1 1 9.8994e+08 9.90205e+08 9.91224e+08 9.9138e+08 1 0
084 1 0 1.00347e+09 1.00372e+09 1.00473e+09 1.00477e+09 1 1
085 1 1 1.00849e+09 1.00874e+09 1.00976e+09 1.01025e+09 0 0
086 1 1 1.02884e+09 1.0291e+09 1.03012e+09 1.03014e+09 1 0
087 1 0 1.0392e+09 1.03944e+09 1.04046e+09 1.04071e+09 1 1
088 1 1 1.0436e+09 1.04385e+09 1.04487e+09 1.04513e+09 0 0
089 1 1 1.05262e+09 1.05288e+09 1.0539e+09 1.05391e+09 1 0
090 1 1 1.07989e+09 1.08015e+09 1.08117e+09 1.08487e+09 1 0
091 1 1 1.09526e+09 1.09553e+09 1.09655e+09 1.09657e+09 1 0
092 1 0 1.10377e+09 1.10402e+09 1.10504e+09 1.10555e+09 0 1
093 1 1 1.10804e+09 1.10829e+09 1.10931e+09 1.10953e+09 0 0
094 1 0 1.11726e+09 1.11752e+09 1.11854e+09 1.12188e+09 1 1
095 2 0 1.13112e+09 1.13138e+09 1.1324e+09 1.13265e+09 0 0
096 2 1 1.14065e+09 1.14091e+09 1.14193e+09 1.14255e+09 1 1
097 1 1 1.14526e+09 1.14551e+09 1.14653e+09 1.15238e+09 0 0
098 1 0 1.15974e+09 1.16e+09 1.16102e+09 1.16159e+09 1 1
099 2 1 1.16452e+09 1.16477e+09 1.16579e+09 1.17116e+09 0 1
100 1 0 1.17379e+09 1.17404e+09 1.17506e+09 1.17873e+09 0 1
101 2 1 1.18121e+09 1.18146e+09 1.18248e+09 1.19595e+09 0 1
102 1 1 1.19882e+09 1.19908e+09 1.2001e+09 1.20224e+09 0 0
103 1 0 1.21187e+09 1.21213e+09 1.21315e+09 1.21316e+09 1 1
104 2 1 1.21598e+09 1.21624e+09 1.21726e+09 1.22303e+09 0 1
105 2 1 1.22566e+09 1.22591e+09 1.22693e+09 1.2302e+09 0 1
106 1 0 1.23306e+09 1.23332e+09 1.23434e+09 1.2427e+09 0 1
107 2 1 1.24538e+09 1.24563e+09 1.24665e+09 1.2504e+09 0 1
108 2 1 1.25328e+09 1.25354e+09 1.25456e+09 1.25603e+09 0 1
109 1 1 1.25881e+09 1.25907e+09 1.26009e+09 1.26136e+09 0 0
110 1 0 1.27193e+09 1.2722e+09 1.27321e+09 1.27446e+09 1 1
111 1 1 1.27707e+09 1.27732e+09 1.27834e+09 1.28141e+09 0 0
112 1 1 1.2898e+09 1.29006e+09 1.29108e+09 1.2914e+09 1 0
113 1 0 1.29867e+09 1.29892e+09 1.29994e+09 1.30008e+09 1 1
114 2 0 1.30412e+09 1.30437e+09 1.30539e+09 1.30615e+09 0 0
115 2 0 1.31494e+09 1.3152e+09 1.31622e+09 1.31647e+09 1 0
116 2 0 1.32381e+09 1.32406e+09 1.32507e+09 1.326e+09 1 0
117 2 0 1.33413e+09 1.33439e+09 1.33541e+09 1.3358e+09 1 0
118 2 1 1.34423e+09 1.34449e+09 1.34551e+09 1.34562e+09 0 1
119 2 1 1.34857e+09 1.34882e+09 1.34984e+09 1.35619e+09 0 1
120 2 1 1.3591e+09 1.35935e+09 1.36037e+09 1.36041e+09 0 1
121 2 1 1.36316e+09 1.36342e+09 1.36443e+09 1.36591e+09 0 1
122 2 1 1.36845e+09 1.36871e+09 1.36973e+09 1.37053e+09 0 1
123 2 0 1.37744e+09 1.3777e+09 1.37872e+09 1.38419e+09 0 0
124 2 1 1.39123e+09 1.3915e+09 1.39252e+09 1.39283e+09 1 1
125 2 1 1.39571e+09 1.39598e+09 1.397e+09 1.39718e+09 0 1
126 1 1 1.40014e+09 1.4004e+09 1.40142e+09 1.40204e+09 0 0
127 1 1 1.41274e+09 1.41299e+09 1.41401e+09 1.41415e+09 1 0
128 1 0 1.42145e+09 1.4217e+09 1.42272e+09 1.42292e+09 1 1
129 2 0 1.42543e+09 1.42568e+09 1.4267e+09 1.42676e+09 0 0
130 2 1 1.43426e+09 1.43452e+09 1.43554e+09 1.43555e+09 1 1
131 1 1 1.43848e+09 1.43874e+09 1.43976e+09 1.44034e+09 0 0
132 1 1 1.44947e+09 1.44973e+09 1.45075e+09 1.45118e+09 1 0
133 1 0 1.45899e+09 1.45924e+09 1.46026e+09 1.46034e+09 1 1
134 2 1 1.4698e+09 1.47006e+09 1.47108e+09 1.47111e+09 0 1
135 1 1 1.47389e+09 1.47414e+09 1.47516e+09 1.47578e+09 0 0
136 1 0 1.48452e+09 1.48477e+09 1.48579e+09 1.48597e+09 1 1
137 2 0 1.48866e+09 1.48891e+09 1.48993e+09 1.49712e+09 0 0
138 2 0 1.50437e+09 1.50462e+09 1.50564e+09 1.50566e+09 1 0
139 2 0 1.51594e+09 1.51619e+09 1.51721e+09 1.51736e+09 1 0
140 2 0 1.52481e+09 1.52506e+09 1.52608e+09 1.5261e+09 1 0
141 2 1 1.53432e+09 1.53458e+09 1.5356e+09 1.53588e+09 0 1
142 1 0 1.53871e+09 1.53897e+09 1.53999e+09 1.54001e+09 0 1
143 1 0 1.54275e+09 1.54302e+09 1.54404e+09 1.54409e+09 0 1
144 1 0 1.54663e+09 1.54687e+09 1.54789e+09 1.54802e+09 0 1
145 2 0 1.5554e+09 1.55565e+09 1.55667e+09 1.5606e+09 0 0
146 2 0 1.56792e+09 1.56818e+09 1.5692e+09 1.56921e+09 1 0
147 2 1 1.57656e+09 1.57682e+09 1.57784e+09 1.57877e+09 1 1
148 1 0 1.58144e+09 1.5817e+09 1.58271e+09 1.58359e+09 0 1
149 2 1 1.59776e+09 1.59802e+09 1.59903e+09 1.59905e+09 0 1
150 2 0 1.60922e+09 1.60948e+09 1.6105e+09 1.63394e+09 0 0
151 2 0 1.64153e+09 1.6418e+09 1.64282e+09 1.64283e+09 1 0
152 2 0 1.6517e+09 1.65195e+09 1.65297e+09 1.65299e+09 1 0
153 2 0 1.6619e+09 1.66215e+09 1.66317e+09 1.66319e+09 1 0
154 2 0 1.67131e+09 1.67157e+09 1.67259e+09 1.67919e+09 0 0
155 1 0 1.68674e+09 1.687e+09 1.68801e+09 1.68807e+09 0 1
156 2 0 1.69322e+09 1.69347e+09 1.69449e+09 1.69453e+09 0 0
157 2 1 1.70184e+09 1.70211e+09 1.70313e+09 1.70322e+09 1 1
158 1 0 1.70598e+09 1.70624e+09 1.70726e+09 1.70733e+09 0 1
159 1 0 1.71867e+09 1.71893e+09 1.71995e+09 1.71999e+09 0 1
160 1 1 1.72262e+09 1.72287e+09 1.72389e+09 1.72431e+09 0 0
161 1 0 1.73147e+09 1.73174e+09 1.73276e+09 1.73372e+09 1 1
162 2 0 1.73727e+09 1.73753e+09 1.73855e+09 1.75049e+09 0 0
163 2 1 1.75784e+09 1.7581e+09 1.75912e+09 1.76304e+09 1 1
164 1 1 1.76671e+09 1.76697e+09 1.76799e+09 1.76814e+09 0 0
165 1 1 1.77573e+09 1.77598e+09 1.777e+09 1.77704e+09 1 0
166 1 1 1.78418e+09 1.78443e+09 1.78545e+09 1.78564e+09 1 0
167 1 0 1.79519e+09 1.79544e+09 1.79646e+09 1.7966e+09 1 1
168 2 0 1.81242e+09 1.81267e+09 1.81369e+09 1.8138e+09 0 0
169 2 1 1.8228e+09 1.82305e+09 1.82407e+09 1.82411e+09 1 1
170 1 1 1.82664e+09 1.82689e+09 1.82791e+09 1.82808e+09 0 0
171 1 0 1.83915e+09 1.8394e+09 1.84042e+09 1.84124e+09 1 1
172 2 1 1.84988e+09 1.85014e+09 1.85116e+09 1.85169e+09 0 1
173 2 1 1.85455e+09 1.85481e+09 1.85583e+09 1.86026e+09 0 1
174 1 1 1.86302e+09 1.86328e+09 1.8643e+09 1.87495e+09 0 0
175 1 1 1.88232e+09 1.88257e+09 1.88359e+09 1.88369e+09 1 0
176 1 1 1.89331e+09 1.89357e+09 1.89459e+09 1.89481e+09 1 0
177 1 0 1.903e+09 1.90325e+09 1.90427e+09 1.90428e+09 1 1
178 2 0 1.9176e+09 1.91786e+09 1.91888e+09 1.91988e+09 0 0
179 2 1 1.92753e+09 1.92779e+09 1.92881e+09 1.9289e+09 1 1
180 2 1 1.93605e+09 1.93631e+09 1.93733e+09 1.93743e+09 0 1
181 2 1 1.94365e+09 1.9439e+09 1.94492e+09 1.94518e+09 0 1
182 2 0 1.94788e+09 1.94814e+09 1.94916e+09 1.95026e+09 0 0
183 2 0 1.95757e+09 1.95783e+09 1.95885e+09 1.95941e+09 1 0
184 2 1 1.96648e+09 1.96674e+09 1.96776e+09 1.9678e+09 1 1
185 2 1 1.97053e+09 1.97078e+09 1.9718e+09 1.9758e+09 0 1
186 2 1 1.97868e+09 1.97893e+09 1.97995e+09 1.98059e+09 0 1
187 1 1 1.98359e+09 1.98385e+09 1.98487e+09 1.98928e+09 0 0
188 1 0 1.99798e+09 1.99823e+09 1.99925e+09 1.99961e+09 1 1
189 2 1 2.00269e+09 2.00296e+09 2.00398e+09 2.00497e+09 0 1
190 2 1 2.0079e+09 2.00815e+09 2.00917e+09 2.01187e+09 0 1
191 2 1 2.01451e+09 2.01478e+09 2.0158e+09 2.0238e+09 0 1
192 1 1 2.02676e+09 2.02702e+09 2.02804e+09 2.03316e+09 0 0
193 1 0 2.04043e+09 2.04069e+09 2.04171e+09 2.04637e+09 1 1
194 2 1 2.06514e+09 2.06539e+09 2.06641e+09 2.06666e+09 0 1
195 1 1 2.06928e+09 2.06953e+09 2.07055e+09 2.07065e+09 0 0
196 1 0 2.07865e+09 2.0789e+09 2.07992e+09 2.08003e+09 1 1
197 1 1 2.08257e+09 2.08283e+09 2.08385e+09 2.08397e+09 0 0
198 1 1 2.0929e+09 2.09316e+09 2.09418e+09 2.09429e+09 1 0
199 1 0 2.1054e+09 2.10566e+09 2.10668e+09 2.1082e+09 1 1
200 2 1 2.11085e+09 2.11111e+09 2.11213e+09 2.11218e+09 0 1
201 2 0 2.11495e+09 2.11521e+09 2.11623e+09 2.12088e+09 0 0
202 2 0 2.12902e+09 2.12927e+09 2.13029e+09 2.13063e+09 1 0
203 2 1 2.13802e+09 2.13827e+09 2.13929e+09 2.13985e+09 1 1
204 1 0 2.14275e+09 2.14301e+09 2.14403e+09 2.14461e+09 0 1
205 1 1 2.14731e+09 2.14756e+09 2.14858e+09 2.14863e+09 0 0
206 1 0 2.15961e+09 2.15987e+09 2.16089e+09 2.16178e+09 1 1
207 1 1 2.16477e+09 2.16504e+09 2.16606e+09 2.16657e+09 0 0
208 1 0 2.17364e+09 2.1739e+09 2.17492e+09 2.17674e+09 1 1
209 1 0 2.18021e+09 2.18046e+09 2.18148e+09 2.18444e+09 0 1
210 1 1 2.19044e+09 2.19069e+09 2.19171e+09 2.2033e+09 0 0
211 1 1 2.21038e+09 2.21064e+09 2.21166e+09 2.21198e+09 1 0
212 1 0 2.21907e+09 2.21932e+09 2.22034e+09 2.2232e+09 1 1
213 2 1 2.22604e+09 2.22629e+09 2.22731e+09 2.22744e+09 0 1
214 2 1 2.23014e+09 2.2304e+09 2.23142e+09 2.23278e+09 0 1
215 1 1 2.23543e+09 2.2357e+09 2.23672e+09 2.24268e+09 0 0
216 1 0 2.2509e+09 2.25115e+09 2.25217e+09 2.25795e+09 1 1
217 1 1 2.26282e+09 2.26308e+09 2.2641e+09 2.27179e+09 0 0
218 1 0 2.2792e+09 2.27946e+09 2.28048e+09 2.28062e+09 1 1
219 2 1 2.28517e+09 2.28543e+09 2.28645e+09 2.29352e+09 0 1
220 2 0 2.29615e+09 2.2964e+09 2.29742e+09 2.30613e+09 0 0
221 2 1 2.3135e+09 2.31375e+09 2.31477e+09 2.31502e+09 1 1
222 1 1 2.31789e+09 2.31815e+09 2.31917e+09 2.32687e+09 0 0
223 1 0 2.3344e+09 2.33466e+09 2.33568e+09 2.33569e+09 1 1
224 1 1 2.33847e+09 2.33873e+09 2.33975e+09 2.34003e+09 0 0
225 1 1 2.35119e+09 2.35145e+09 2.35247e+09 2.35386e+09 1 0
226 1 1 2.3617e+09 2.36195e+09 2.36297e+09 2.36298e+09 1 0
227 1 1 2.37118e+09 2.37144e+09 2.37246e+09 2.37515e+09 1 0
228 1 1 2.38295e+09 2.38321e+09 2.38423e+09 2.38424e+09 0 0
229 2 1 2.39159e+09 2.39185e+09 2.39287e+09 2.39299e+09 0 1
230 1 1 2.40058e+09 2.40083e+09 2.40185e+09 2.40187e+09 0 0
231 1 1 2.40937e+09 2.40963e+09 2.41065e+09 2.41085e+09 1 0
232 1 1 2.41932e+09 2.41958e+09 2.4206e+09 2.42062e+09 1 0
233 1 1 2.42776e+09 2.42801e+09 2.42903e+09 2.42904e+09 1 0
234 2 1 2.44161e+09 2.44186e+09 2.44288e+09 2.44292e+09 0 1
235 2 0 2.44624e+09 2.44649e+09 2.44751e+09 2.44758e+09 0 0
236 2 0 2.45627e+09 2.45652e+09 2.45754e+09 2.45806e+09 1 0
237 2 1 2.46574e+09 2.46599e+09 2.46701e+09 2.46719e+09 1 1
238 2 1 2.46971e+09 2.46997e+09 2.47099e+09 2.47105e+09 0 1
239 1 1 2.47373e+09 2.47399e+09 2.47501e+09 2.47521e+09 0 0
240 1 1 2.48673e+09 2.48699e+09 2.48801e+09 2.48811e+09 1 0
241 1 1 2.4973e+09 2.49755e+09 2.49857e+09 2.51618e+09 1 0
242 1 1 2.52496e+09 2.52522e+09 2.52624e+09 2.52635e+09 1 0
243 2 1 2.53743e+09 2.53768e+09 2.5387e+09 2.53889e+09 0 1
244 1 0 2.5414e+09 2.54165e+09 2.54267e+09 2.5448e+09 0 1
245 1 1 2.54777e+09 2.54803e+09 2.54905e+09 2.55121e+09 0 0
246 1 0 2.55824e+09 2.55849e+09 2.55951e+09 2.55952e+09 1 1
247 2 1 2.56221e+09 2.56246e+09 2.56348e+09 2.5636e+09 0 1
248 2 1 2.56621e+09 2.56646e+09 2.56748e+09 2.5718e+09 0 1
249 2 0 2.57455e+09 2.5748e+09 2.57582e+09 2.57708e+09 0 0
250 2 1 2.58444e+09 2.58471e+09 2.58573e+09 2.59252e+09 1 1
251 2 0 2.59538e+09 2.59564e+09 2.59666e+09 2.59668e+09 0 0
252 2 0 2.60515e+09 2.60541e+09 2.60643e+09 2.60644e+09 1 0
253 2 1 2.61474e+09 2.61499e+09 2.61601e+09 2.63091e+09 1 1
254 1 0 2.63392e+09 2.63418e+09 2.63519e+09 2.64218e+09 0 1
255 1 1 2.64484e+09 2.6451e+09 2.64612e+09 2.64639e+09 0 0
256 1 0 2.65377e+09 2.65402e+09 2.65504e+09 2.65608e+09 1 1
257 2 1 2.65879e+09 2.65904e+09 2.66006e+09 2.6606e+09 0 1
258 2 1 2.66334e+09 2.6636e+09 2.66462e+09 2.67283e+09 0 1
259 2 1 2.67537e+09 2.67564e+09 2.67666e+09 2.67681e+09 0 1
260 1 1 2.67933e+09 2.67959e+09 2.68061e+09 2.68199e+09 0 0
261 1 1 2.69056e+09 2.69082e+09 2.69184e+09 2.70684e+09 1 0
262 1 1 2.71855e+09 2.7188e+09 2.71981e+09 2.71989e+09 1 0
263 1 1 2.72713e+09 2.72737e+09 2.72839e+09 2.7284e+09 1 0
264 1 0 2.73785e+09 2.73811e+09 2.73913e+09 2.73914e+09 0 1
265 1 1 2.74366e+09 2.74392e+09 2.74494e+09 2.74498e+09 0 0
266 1 0 2.75223e+09 2.75248e+09 2.7535e+09 2.75351e+09 1 1
267 2 0 2.75671e+09 2.75696e+09 2.75798e+09 2.75809e+09 0 0
268 2 1 2.76817e+09 2.76843e+09 2.76945e+09 2.76947e+09 1 1
269 1 1 2.77222e+09 2.77248e+09 2.7735e+09 2.77372e+09 0 0
270 1 0 2.78081e+09 2.78107e+09 2.78209e+09 2.79065e+09 1 1
271 1 1 2.79346e+09 2.79371e+09 2.79473e+09 2.80905e+09 0 0
272 1 1 2.81652e+09 2.81677e+09 2.81779e+09 2.81812e+09 1 0
273 1 1 2.827e+09 2.82726e+09 2.82828e+09 2.82832e+09 1 0
274 1 0 2.83644e+09 2.83669e+09 2.83771e+09 2.83781e+09 1 1
275 1 0 2.84214e+09 2.8424e+09 2.84342e+09 2.84344e+09 0 1
276 2 0 2.84778e+09 2.84803e+09 2.84905e+09 2.84907e+09 0 0
277 2 1 2.85775e+09 2.858e+09 2.85902e+09 2.85911e+09 1 1
278 1 1 2.86324e+09 2.86351e+09 2.86453e+09 2.8646e+09 0 0
279 1 1 2.87168e+09 2.87193e+09 2.87295e+09 2.87454e+09 1 0
280 1 1 2.88412e+09 2.88439e+09 2.88541e+09 2.8855e+09 1 0
281 1 0 2.893e+09 2.89326e+09 2.89428e+09 2.90209e+09 1 1
282 2 1 2.90517e+09 2.90542e+09 2.90644e+09 2.92012e+09 0 1
283 1 1 2.92269e+09 2.92295e+09 2.92397e+09 2.92809e+09 0 0
284 1 1 2.93542e+09 2.93568e+09 2.9367e+09 2.93673e+09 1 0
285 1 0 2.94479e+09 2.94506e+09 2.94608e+09 2.94615e+09 1 1
286 1 0 2.95056e+09 2.95081e+09 2.95183e+09 2.95213e+09 0 1
287 1 1 2.95917e+09 2.95942e+09 2.96044e+09 2.96612e+09 0 0
288 1 0 2.97456e+09 2.97481e+09 2.97583e+09 2.98191e+09 1 1
289 1 0 2.9848e+09 2.98505e+09 2.98607e+09 2.98958e+09 0 1
290 1 0 2.9923e+09 2.99255e+09 2.99357e+09 2.99724e+09 0 1
291 1 1 2.99996e+09 3.0002e+09 3.00122e+09 3.00256e+09 0 0
292 1 1 3.01022e+09 3.01047e+09 3.01149e+09 3.01251e+09 1 0
293 1 1 3.02115e+09 3.0214e+09 3.02242e+09 3.02403e+09 1 0
294 1 0 3.03156e+09 3.03181e+09 3.03283e+09 3.03289e+09 1 1
295 1 0 3.03913e+09 3.03939e+09 3.04041e+09 3.04274e+09 0 1
296 2 0 3.04537e+09 3.04563e+09 3.04665e+09 3.04667e+09 0 0
297 2 1 3.05619e+09 3.05646e+09 3.05748e+09 3.07078e+09 1 1
298 2 0 3.07361e+09 3.07386e+09 3.07488e+09 3.07533e+09 0 0
299 2 1 3.08428e+09 3.08454e+09 3.08556e+09 3.08559e+09 1 1
300 1 0 3.08867e+09 3.08894e+09 3.08996e+09 3.09503e+09 0 1
301 2 0 3.09851e+09 3.09876e+09 3.09978e+09 3.09982e+09 0 0
302 2 0 3.10877e+09 3.10903e+09 3.11005e+09 3.11009e+09 1 0
303 2 0 3.11726e+09 3.1175e+09 3.11852e+09 3.1186e+09 1 0
304 2 0 3.13174e+09 3.132e+09 3.13302e+09 3.13304e+09 1 0
305 2 1 3.14053e+09 3.14079e+09 3.14181e+09 3.14188e+09 0 1
306 1 1 3.14636e+09 3.14661e+09 3.14763e+09 3.14765e+09 0 0
307 1 1 3.15505e+09 3.15532e+09 3.15634e+09 3.15656e+09 1 0
308 1 1 3.16419e+09 3.16444e+09 3.16546e+09 3.16568e+09 1 0
309 1 0 3.17273e+09 3.17299e+09 3.17401e+09 3.18266e+09 1 1
310 1 1 3.18899e+09 3.18926e+09 3.19028e+09 3.19069e+09 0 0
311 1 0 3.19806e+09 3.19832e+09 3.19934e+09 3.19945e+09 1 1
312 1 0 3.2021e+09 3.20236e+09 3.20338e+09 3.20358e+09 0 1
313 2 0 3.20616e+09 3.20641e+09 3.20743e+09 3.21106e+09 0 0
314 2 1 3.21818e+09 3.21842e+09 3.21944e+09 3.21949e+09 1 1
315 1 1 3.22292e+09 3.22319e+09 3.22421e+09 3.23682e+09 0 0
316 1 0 3.24412e+09 3.24437e+09 3.24539e+09 3.27236e+09 1 1
317 1 1 3.27621e+09 3.27646e+09 3.27748e+09 3.28556e+09 0 0
318 1 0 3.2928e+09 3.29307e+09 3.29409e+09 3.29411e+09 1 1
319 2 1 3.29952e+09 3.29978e+09 3.3008e+09 3.31033e+09 0 1
320 1 1 3.31319e+09 3.31344e+09 3.31446e+09 3.3163e+09 0 0
321 1 1 3.32586e+09 3.32611e+09 3.32713e+09 3.3369e+09 1 0
322 1 1 3.34544e+09 3.34569e+09 3.34671e+09 3.35157e+09 1 0
323 1 0 3.36093e+09 3.36118e+09 3.3622e+09 3.37549e+09 1 1
324 2 1 3.37812e+09 3.37838e+09 3.3794e+09 3.37969e+09 0 1
325 2 1 3.38242e+09 3.38267e+09 3.38369e+09 3.38383e+09 0 1
326 2 1 3.38662e+09 3.38688e+09 3.3879e+09 3.39292e+09 0 1
327 1 1 3.39557e+09 3.39581e+09 3.39683e+09 3.39699e+09 0 0
328 1 1 3.40421e+09 3.40447e+09 3.40549e+09 3.40564e+09 1 0
329 1 1 3.41271e+09 3.41297e+09 3.41399e+09 3.4391e+09 1 0
330 1 0 3.44726e+09 3.44752e+09 3.44854e+09 3.46078e+09 1 1
331 1 0 3.4634e+09 3.46365e+09 3.46467e+09 3.46484e+09 0 1
332 2 1 3.4699e+09 3.47015e+09 3.47117e+09 3.47136e+09 0 1
333 1 1 3.47424e+09 3.4745e+09 3.47552e+09 3.48556e+09 0 0
334 1 0 3.49289e+09 3.49315e+09 3.49417e+09 3.51609e+09 1 1
335 1 1 3.51897e+09 3.51923e+09 3.52025e+09 3.53089e+09 0 0
336 1 0 3.54488e+09 3.54513e+09 3.54615e+09 3.55236e+09 1 1
337 1 0 3.55514e+09 3.5554e+09 3.55642e+09 3.55645e+09 0 1
338 2 1 3.56156e+09 3.56182e+09 3.56284e+09 3.5671e+09 0 1
339 1 1 3.57005e+09 3.5703e+09 3.57132e+09 3.5778e+09 0 0
340 1 1 3.58528e+09 3.58554e+09 3.58656e+09 3.59869e+09 1 0
341 1 0 3.60649e+09 3.60674e+09 3.60776e+09 3.60779e+09 1 1
342 2 0 3.61055e+09 3.61081e+09 3.61183e+09 3.61213e+09 0 0
343 2 0 3.61965e+09 3.61991e+09 3.62093e+09 3.62099e+09 1 0
344 2 1 3.62946e+09 3.62972e+09 3.63074e+09 3.63075e+09 1 1
345 2 0 3.63338e+09 3.63364e+09 3.63465e+09 3.63478e+09 0 0
346 2 0 3.64206e+09 3.64233e+09 3.64335e+09 3.64361e+09 1 0
347 2 0 3.65065e+09 3.65091e+09 3.65193e+09 3.65708e+09 1 0
348 2 0 3.66453e+09 3.66478e+09 3.6658e+09 3.66587e+09 1 0
349 2 1 3.673e+09 3.67325e+09 3.67427e+09 3.67431e+09 0 1
350 2 1 3.6772e+09 3.67745e+09 3.67847e+09 3.67854e+09 0 1
351 2 1 3.68118e+09 3.68143e+09 3.68245e+09 3.68266e+09 0 1
352 1 1 3.68616e+09 3.68642e+09 3.68744e+09 3.69452e+09 0 0
353 1 1 3.70165e+09 3.70191e+09 3.70293e+09 3.70355e+09 1 0
354 1 0 3.71095e+09 3.7112e+09 3.71222e+09 3.71224e+09 1 1
355 2 1 3.71511e+09 3.71536e+09 3.71638e+09 3.71644e+09 0 1
356 1 1 3.7194e+09 3.71966e+09 3.72068e+09 3.72082e+09 0 0
357 1 1 3.72844e+09 3.72868e+09 3.7297e+09 3.72985e+09 1 0
358 1 0 3.73697e+09 3.73722e+09 3.73824e+09 3.7383e+09 1 1
359 2 0 3.74105e+09 3.74132e+09 3.74234e+09 3.74236e+09 0 0
360 2 1 3.7494e+09 3.74965e+09 3.75067e+09 3.75073e+09 1 1
361 2 1 3.75334e+09 3.7536e+09 3.75461e+09 3.75464e+09 0 1
362 2 1 3.75727e+09 3.75753e+09 3.75855e+09 3.77133e+09 0 1
363 2 1 3.77427e+09 3.77453e+09 3.77555e+09 3.78147e+09 0 1
364 1 1 3.78458e+09 3.78483e+09 3.78585e+09 3.78634e+09 0 0
365 1 0 3.79412e+09 3.79437e+09 3.79539e+09 3.80582e+09 1 1
366 2 1 3.80881e+09 3.80906e+09 3.81008e+09 3.81011e+09 0 1
367 2 1 3.81288e+09 3.81313e+09 3.81415e+09 3.81422e+09 0 1
368 2 0 3.82004e+09 3.8203e+09 3.82132e+09 3.82176e+09 0 0
369 2 1 3.82919e+09 3.82946e+09 3.83047e+09 3.84906e+09 1 1
370 1 1 3.85188e+09 3.85213e+09 3.85315e+09 3.85334e+09 0 0
371 1 0 3.86317e+09 3.86342e+09 3.86444e+09 3.86979e+09 1 1
372 2 1 3.87363e+09 3.87389e+09 3.87491e+09 3.87526e+09 0 1
373 1 0 3.87804e+09 3.87828e+09 3.8793e+09 3.87938e+09 0 1
374 2 1 3.88425e+09 3.88451e+09 3.88553e+09 3.89711e+09 0 1
375 2 1 3.9031e+09 3.90336e+09 3.90438e+09 3.91367e+09 0 1
376 1 1 3.91692e+09 3.91718e+09 3.9182e+09 3.92642e+09 0 0
377 1 0 3.93942e+09 3.93968e+09 3.9407e+09 3.94169e+09 1 1
378 1 1 3.94704e+09 3.94729e+09 3.94831e+09 3.95984e+09 0 0
379 1 1 3.96719e+09 3.96744e+09 3.96846e+09 3.98447e+09 1 0
380 1 0 3.99164e+09 3.9919e+09 3.99292e+09 4.02506e+09 1 1
381 2 1 4.02806e+09 4.02831e+09 4.02933e+09 4.03434e+09 0 1
382 1 1 4.03706e+09 4.03733e+09 4.03835e+09 4.04262e+09 0 0
383 1 1 4.05006e+09 4.0503e+09 4.05132e+09 4.05235e+09 1 0
384 1 1 4.06313e+09 4.06338e+09 4.0644e+09 4.07952e+09 1 0
385 1 0 4.08699e+09 4.08726e+09 4.08828e+09 4.10329e+09 1 1
386 2 1 4.10857e+09 4.10882e+09 4.10984e+09 4.1099e+09 0 1
387 2 1 4.11291e+09 4.11316e+09 4.11418e+09 4.11433e+09 0 1
388 2 0 4.11705e+09 4.11731e+09 4.11833e+09 4.16357e+09 0 0
389 2 1 4.17099e+09 4.17124e+09 4.17226e+09 4.17227e+09 1 1
390 2 1 4.17482e+09 4.17507e+09 4.17609e+09 4.17611e+09 0 1
391 2 0 4.17868e+09 4.17893e+09 4.17995e+09 4.24077e+09 0 0
392 2 0 4.24852e+09 4.24877e+09 4.24979e+09 4.25033e+09 1 0
393 2 0 4.25971e+09 4.25996e+09 4.26098e+09 4.261e+09 1 0
394 2 0 4.26821e+09 4.26846e+09 4.26948e+09 4.2695e+09 1 0
395 1 0 4.27703e+09 4.27728e+09 4.2783e+09 3.2529e+07 0 1
396 1 0 3.80099e+07 3.82546e+07 3.92742e+07 7.96824e+07 0 1
397 1 0 8.24955e+07 8.275e+07 8.37696e+07 1.20889e+08 0 1
398 1 0 1.23814e+08 1.24065e+08 1.25085e+08 1.47219e+08 0 1
399 2 1 1.50239e+08 1.50486e+08 1.51506e+08 1.51567e+08 0 1
400 2 1 1.54174e+08 1.5443e+08 1.55449e+08 1.55471e+08 0 1
401 1 1 1.5805e+08 1.58309e+08 1.59328e+08 1.89876e+08 0 0
402 1 1 1.96946e+08 1.97194e+08 1.98213e+08 2.02633e+08 1 0
403 1 1 2.09927e+08 2.10177e+08 2.11196e+08 2.25424e+08 1 0
404 1 1 2.36422e+08 2.36678e+08 2.37697e+08 2.38845e+08 1 0
405 2 1 2.4626e+08 2.46508e+08 2.47528e+08 2.47758e+08 0 1
406 2 0 2.50663e+08 2.50918e+08 2.51938e+08 2.85703e+08 0 0
407 2 0 2.93228e+08 2.93483e+08 2.94503e+08 3.55116e+08 1 0
