trial trialType response stillTime stimOnset stimOffset respTime correctionTrial correct
001 5 1 4.92042e+07 4.95042e+07 5.05238e+07 5.05406e+07 0 1
002 5 1 6.94549e+07 6.97299e+07 7.07494e+07 7.08366e+07 0 1
003 1 0 9.08933e+07 9.11764e+07 9.2196e+07 9.22859e+07 0 1
004 5 0 9.49893e+07 9.52478e+07 9.62673e+07 9.79781e+07 0 0
005 5 1 1.09735e+08 1.09999e+08 1.11018e+08 1.11045e+08 1 1
006 1 0 1.13854e+08 1.14109e+08 1.15129e+08 1.15705e+08 0 1
007 1 0 1.21556e+08 1.2182e+08 1.22839e+08 1.27691e+08 0 1
008 3 1 1.30595e+08 1.30854e+08 1.31873e+08 1.37402e+08 0 99
009 1 0 1.46064e+08 1.46314e+08 1.47333e+08 1.5348e+08 0 1
010 1 0 1.56443e+08 1.56705e+08 1.57725e+08 1.63155e+08 0 1
011 1 1 1.65841e+08 1.661e+08 1.6712e+08 1.70631e+08 0 0
012 1 0 1.94382e+08 1.94637e+08 1.95657e+08 1.9643e+08 1 1
013 2 0 1.9903e+08 1.99296e+08 2.00316e+08 2.00478e+08 0 99
014 5 0 2.11113e+08 2.11373e+08 2.12393e+08 2.13178e+08 0 0
015 5 1 2.25646e+08 2.25897e+08 2.26917e+08 2.26932e+08 1 1
016 5 1 2.29705e+08 2.29955e+08 2.30975e+08 2.31017e+08 0 1
017 5 1 2.33888e+08 2.34139e+08 2.35159e+08 2.37193e+08 0 1
018 5 1 2.3984e+08 2.40096e+08 2.41116e+08 2.4113e+08 0 1
019 1 0 2.43977e+08 2.44236e+08 2.45255e+08 2.45272e+08 0 1
020 1 0 2.61595e+08 2.61854e+08 2.62873e+08 2.6289e+08 0 1
021 2 0 2.65651e+08 2.65902e+08 2.66921e+08 2.67717e+08 0 99
022 5 1 2.70311e+08 2.70566e+08 2.71586e+08 2.71718e+08 0 1
023 2 0 2.74689e+08 2.74948e+08 2.75968e+08 2.76244e+08 0 99
024 1 0 2.83622e+08 2.83888e+08 2.84908e+08 2.84916e+08 0 1
025 1 0 2.87773e+08 2.88019e+08 2.89039e+08 2.89267e+08 0 1
026 5 1 2.92148e+08 2.92404e+08 2.93424e+08 2.93498e+08 0 1
027 5 1 2.96144e+08 2.96414e+08 2.97434e+08 2.98024e+08 0 1
028 5 1 3.00889e+08 3.0115e+08 3.02169e+08 3.02194e+08 0 1
029 3 1 3.04763e+08 3.0501e+08 3.0603e+08 3.06305e+08 0 99
030 2 0 3.1449e+08 3.1475e+08 3.15769e+08 3.15843e+08 0 99
031 5 1 3.20225e+08 3.2049e+08 3.21509e+08 3.21742e+08 0 1
032 1 1 3.24424e+08 3.24682e+08 3.25701e+08 3.32166e+08 0 0
033 1 0 3.39543e+08 3.39802e+08 3.40822e+08 3.40908e+08 1 1
034 3 0 3.44218e+08 3.44474e+08 3.45493e+08 3.45879e+08 0 99
035 1 0 3.49786e+08 3.50038e+08 3.51057e+08 3.51272e+08 0 1
036 5 1 3.5529e+08 3.55547e+08 3.56567e+08 3.56591e+08 0 1
037 1 0 3.59422e+08 3.59679e+08 3.60699e+08 3.60836e+08 0 1
038 5 1 3.6392e+08 3.64172e+08 3.65192e+08 3.65254e+08 0 1
039 1 0 3.68059e+08 3.68317e+08 3.69336e+08 3.69445e+08 0 1
040 5 1 3.73432e+08 3.7369e+08 3.74709e+08 3.7475e+08 0 1
041 5 1 3.78292e+08 3.78542e+08 3.79562e+08 3.7996e+08 0 1
042 1 0 3.82722e+08 3.82985e+08 3.84004e+08 3.84475e+08 0 1
043 5 1 3.87407e+08 3.8766e+08 3.88679e+08 3.88689e+08 0 1
044 5 0 3.91253e+08 3.91511e+08 3.92531e+08 3.9608e+08 0 0
045 5 0 4.03265e+08 4.03526e+08 4.04546e+08 4.07666e+08 1 0
046 5 1 4.15484e+08 4.15736e+08 4.16755e+08 4.16928e+08 1 1
047 5 1 4.21649e+08 4.219e+08 4.22919e+08 4.23391e+08 0 1
048 5 1 4.26134e+08 4.26392e+08 4.27412e+08 4.27492e+08 0 1
049 5 1 4.30462e+08 4.30717e+08 4.31737e+08 4.31745e+08 0 1
050 1 0 4.34437e+08 4.34688e+08 4.35707e+08 4.35852e+08 0 1
051 1 0 4.38621e+08 4.38878e+08 4.39897e+08 4.39998e+08 0 1
052 5 0 4.42516e+08 4.42763e+08 4.43783e+08 4.48745e+08 0 0
053 5 1 4.57357e+08 4.57607e+08 4.58627e+08 4.58985e+08 1 1
054 3 0 4.61682e+08 4.61934e+08 4.62954e+08 4.63109e+08 0 99
055 5 0 4.65717e+08 4.65974e+08 4.66994e+08 4.67567e+08 0 0
056 5 1 4.7463e+08 4.74884e+08 4.75903e+08 4.84883e+08 1 1
057 4 1 4.87765e+08 4.88021e+08 4.89041e+08 4.89047e+08 0 99
058 4 0 4.94068e+08 4.94319e+08 4.95338e+08 4.96403e+08 0 99
059 5 1 4.99207e+08 4.99459e+08 5.00478e+08 5.00696e+08 0 1
060 1 0 5.03714e+08 5.03967e+08 5.04987e+08 5.05176e+08 0 1
061 5 1 5.08035e+08 5.08289e+08 5.09308e+08 5.09341e+08 0 1
062 5 1 5.1231e+08 5.12559e+08 5.13579e+08 5.13589e+08 0 1
063 1 0 5.16301e+08 5.16558e+08 5.17578e+08 5.17775e+08 0 1
064 1 0 5.20361e+08 5.20612e+08 5.21631e+08 5.21769e+08 0 1
065 1 0 5.30797e+08 5.31055e+08 5.32074e+08 5.32085e+08 0 1
066 5 1 5.37796e+08 5.38054e+08 5.39074e+08 5.39144e+08 0 1
067 4 1 5.41685e+08 5.41947e+08 5.42966e+08 5.43038e+08 0 99
068 1 0 5.45944e+08 5.46201e+08 5.47221e+08 5.47331e+08 0 1
069 2 0 5.57516e+08 5.5778e+08 5.588e+08 5.6352e+08 0 99
070 5 1 5.7243e+08 5.72687e+08 5.73707e+08 5.73731e+08 0 1
071 4 1 5.76345e+08 5.76613e+08 5.77633e+08 5.77642e+08 0 99
072 1 0 5.80131e+08 5.80386e+08 5.81405e+08 5.8161e+08 0 1
073 1 0 5.84378e+08 5.84635e+08 5.85655e+08 5.93294e+08 0 1
074 1 0 5.96068e+08 5.96321e+08 5.97341e+08 6.03664e+08 0 1
075 1 0 6.06571e+08 6.06821e+08 6.0784e+08 6.07965e+08 0 1
076 5 0 6.12968e+08 6.1323e+08 6.1425e+08 6.1826e+08 0 0
077 5 1 6.26389e+08 6.2664e+08 6.2766e+08 6.27859e+08 1 1
078 2 0 6.32562e+08 6.32817e+08 6.33837e+08 6.37006e+08 0 99
079 1 0 6.39574e+08 6.3983e+08 6.4085e+08 6.41202e+08 0 1
080 3 0 6.44079e+08 6.44331e+08 6.45351e+08 6.49088e+08 0 99
081 5 0 6.51636e+08 6.51886e+08 6.52906e+08 6.52917e+08 0 0
082 5 1 6.60632e+08 6.60882e+08 6.61902e+08 6.61918e+08 1 1
083 1 0 6.64966e+08 6.65211e+08 6.6623e+08 6.70255e+08 0 1
084 1 0 6.74171e+08 6.74418e+08 6.75438e+08 6.75639e+08 0 1
085 1 0 6.78376e+08 6.78623e+08 6.79642e+08 6.7969e+08 0 1
086 5 1 6.82176e+08 6.82427e+08 6.83446e+08 6.83739e+08 0 1
087 4 1 6.86717e+08 6.86963e+08 6.87982e+08 6.88076e+08 0 99
088 4 0 6.90877e+08 6.9112e+08 6.9214e+08 6.95218e+08 0 99
089 3 0 6.98063e+08 6.98313e+08 6.99332e+08 7.01567e+08 0 99
090 1 0 7.06348e+08 7.06603e+08 7.07623e+08 7.07639e+08 0 1
091 5 1 7.10519e+08 7.10782e+08 7.11802e+08 7.11934e+08 0 1
092 1 0 7.24254e+08 7.24509e+08 7.25528e+08 7.25902e+08 0 1
093 1 0 7.28488e+08 7.28738e+08 7.29758e+08 7.29926e+08 0 1
094 4 1 7.3263e+08 7.32887e+08 7.33907e+08 7.33952e+08 0 99
095 4 0 7.3659e+08 7.36856e+08 7.37876e+08 7.39792e+08 0 99
096 1 0 7.43207e+08 7.4347e+08 7.44489e+08 7.44529e+08 0 1
097 5 1 7.4715e+08 7.47414e+08 7.48433e+08 7.48469e+08 0 1
098 5 1 7.5138e+08 7.51631e+08 7.5265e+08 7.52663e+08 0 1
099 5 1 7.55614e+08 7.55866e+08 7.56886e+08 7.56899e+08 0 1
100 1 0 7.59793e+08 7.60044e+08 7.61063e+08 7.61145e+08 0 1
101 1 0 7.74891e+08 7.75152e+08 7.76171e+08 7.76471e+08 0 1
102 1 0 7.79001e+08 7.79247e+08 7.80267e+08 7.80344e+08 0 1
103 5 1 7.83422e+08 7.8368e+08 7.84699e+08 7.84706e+08 0 1
104 3 1 7.87206e+08 7.87458e+08 7.88478e+08 7.88693e+08 0 99
105 3 1 7.9297e+08 7.93213e+08 7.94233e+08 7.94304e+08 0 99
106 5 1 7.96841e+08 7.97093e+08 7.98113e+08 7.98139e+08 0 1
107 5 1 8.0064e+08 8.00897e+08 8.01917e+08 8.01927e+08 0 1
108 2 0 8.22921e+08 8.23174e+08 8.24194e+08 8.24272e+08 0 99
109 2 0 8.29211e+08 8.29469e+08 8.30489e+08 8.30652e+08 0 99
110 1 0 8.36786e+08 8.37034e+08 8.38053e+08 8.38073e+08 0 1
111 1 1 8.40841e+08 8.411e+08 8.42119e+08 8.45849e+08 0 0
112 1 0 8.53254e+08 8.53516e+08 8.54536e+08 8.54547e+08 1 1
113 5 1 8.57225e+08 8.57487e+08 8.58507e+08 8.58611e+08 0 1
114 5 1 8.63256e+08 8.63506e+08 8.64526e+08 8.64703e+08 0 1
115 5 1 8.67379e+08 8.67634e+08 8.68654e+08 8.68659e+08 0 1
116 1 1 8.72634e+08 8.72888e+08 8.73908e+08 8.73978e+08 0 0
117 1 0 8.82214e+08 8.82471e+08 8.8349e+08 8.83618e+08 1 1
118 4 1 8.86432e+08 8.86681e+08 8.877e+08 8.87707e+08 0 99
119 5 1 8.90247e+08 8.90505e+08 8.91525e+08 8.9657e+08 0 1
120 1 0 8.99168e+08 8.9943e+08 9.00449e+08 9.006e+08 0 1
121 1 0 9.03387e+08 9.03639e+08 9.04659e+08 9.04793e+08 0 1
122 5 1 9.07752e+08 9.08016e+08 9.09036e+08 9.0907e+08 0 1
123 1 0 9.11758e+08 9.12022e+08 9.13042e+08 9.18481e+08 0 1
124 1 0 9.21306e+08 9.21558e+08 9.22578e+08 9.22607e+08 0 1
125 5 1 9.25093e+08 9.25344e+08 9.26363e+08 9.26457e+08 0 1
126 4 1 9.36681e+08 9.36937e+08 9.37956e+08 9.37962e+08 0 99
127 5 1 9.40537e+08 9.40787e+08 9.41807e+08 9.41812e+08 0 1
128 3 1 9.44631e+08 9.44879e+08 9.45899e+08 9.45923e+08 0 99
129 1 0 9.48615e+08 9.48865e+08 9.49885e+08 9.60515e+08 0 1
130 1 0 9.68395e+08 9.68647e+08 9.69666e+08 9.69714e+08 0 1
131 5 1 9.72459e+08 9.72717e+08 9.73736e+08 9.73839e+08 0 1
132 1 0 9.76719e+08 9.7698e+08 9.78e+08 9.78021e+08 0 1
133 1 0 9.80648e+08 9.80906e+08 9.81926e+08 9.82032e+08 0 1
134 1 0 9.85412e+08 9.85673e+08 9.86692e+08 9.86767e+08 0 1
135 5 0 9.90258e+08 9.90507e+08 9.91527e+08 9.91756e+08 0 0
136 5 1 1.00005e+09 1.0003e+09 1.00132e+09 1.00134e+09 1 1
137 1 1 1.00412e+09 1.00437e+09 1.00539e+09 1.00747e+09 0 0
138 1 0 1.01519e+09 1.01544e+09 1.01646e+09 1.01743e+09 1 1
139 5 1 1.02124e+09 1.02149e+09 1.02251e+09 1.02257e+09 0 1
140 2 0 1.0253e+09 1.02556e+09 1.02658e+09 1.02691e+09 0 99
141 4 1 1.03113e+09 1.03138e+09 1.0324e+09 1.03242e+09 0 99
142 5 1 1.03515e+09 1.0354e+09 1.03642e+09 1.03643e+09 0 1
143 1 0 1.03931e+09 1.03957e+09 1.04059e+09 1.04114e+09 0 1
144 5 1 1.04401e+09 1.04427e+09 1.04529e+09 1.04537e+09 0 1
145 1 0 1.04809e+09 1.04834e+09 1.04936e+09 1.04954e+09 0 1
146 5 1 1.05336e+09 1.05362e+09 1.05464e+09 1.05468e+09 0 1
147 1 0 1.05727e+09 1.05752e+09 1.05854e+09 1.05861e+09 0 1
148 3 1 1.06228e+09 1.06254e+09 1.06356e+09 1.06357e+09 0 99
149 3 0 1.06618e+09 1.06643e+09 1.06745e+09 1.07002e+09 0 99
150 4 0 1.0729e+09 1.07317e+09 1.07419e+09 1.07421e+09 0 99
151 5 1 1.077e+09 1.07725e+09 1.07827e+09 1.07828e+09 0 1
152 1 0 1.08083e+09 1.08108e+09 1.0821e+09 1.08242e+09 0 1
153 1 0 1.08515e+09 1.08541e+09 1.08643e+09 1.08649e+09 0 1
154 5 1 1.09014e+09 1.09039e+09 1.09141e+09 1.09142e+09 0 1
155 2 0 1.0944e+09 1.09466e+09 1.09568e+09 1.09773e+09 0 99
156 1 0 1.10152e+09 1.10179e+09 1.10281e+09 1.10283e+09 0 1
157 4 1 1.10575e+09 1.10601e+09 1.10703e+09 1.10707e+09 0 99
158 1 0 1.11031e+09 1.11056e+09 1.11158e+09 1.11181e+09 0 1
159 5 1 1.11455e+09 1.1148e+09 1.11582e+09 1.11585e+09 0 1
160 1 0 1.11878e+09 1.11903e+09 1.12005e+09 1.12082e+09 0 1
161 5 1 1.12343e+09 1.12368e+09 1.1247e+09 1.12487e+09 0 1
162 1 0 1.12742e+09 1.12769e+09 1.12871e+09 1.12891e+09 0 1
163 1 0 1.13145e+09 1.13171e+09 1.13273e+09 1.13297e+09 0 1
164 1 0 1.13581e+09 1.13607e+09 1.13709e+09 1.13765e+09 0 1
165 5 1 1.14939e+09 1.14965e+09 1.15067e+09 1.15068e+09 0 1
166 5 1 1.15738e+09 1.15764e+09 1.15865e+09 1.15871e+09 0 1
167 1 0 1.1624e+09 1.16266e+09 1.16368e+09 1.17263e+09 0 1
168 1 0 1.17544e+09 1.1757e+09 1.17672e+09 1.17897e+09 0 1
169 3 1 1.18179e+09 1.18204e+09 1.18306e+09 1.18326e+09 0 99
170 1 0 1.1882e+09 1.18846e+09 1.18948e+09 1.18951e+09 0 1
171 1 0 1.1942e+09 1.19446e+09 1.19548e+09 1.19587e+09 0 1
172 1 0 1.19886e+09 1.19911e+09 1.20013e+09 1.20478e+09 0 1
173 4 1 1.20731e+09 1.20756e+09 1.20858e+09 1.20862e+09 0 99
174 1 0 1.2115e+09 1.21176e+09 1.21278e+09 1.21309e+09 0 1
175 2 1 1.21563e+09 1.21589e+09 1.21691e+09 1.21929e+09 0 99
176 2 0 1.22422e+09 1.22447e+09 1.22549e+09 1.22577e+09 0 99
177 2 0 1.22841e+09 1.22866e+09 1.22968e+09 1.23022e+09 0 99
178 1 0 1.233e+09 1.23327e+09 1.23428e+09 1.23437e+09 0 1
179 5 1 1.23724e+09 1.23749e+09 1.23851e+09 1.23873e+09 0 1
180 2 0 1.24148e+09 1.24173e+09 1.24275e+09 1.24648e+09 0 99
181 1 0 1.24934e+09 1.2496e+09 1.25062e+09 1.25064e+09 0 1
182 5 1 1.25351e+09 1.25376e+09 1.25478e+09 1.25481e+09 0 1
183 5 1 1.25782e+09 1.25808e+09 1.2591e+09 1.2591e+09 0 1
184 5 1 1.26189e+09 1.26214e+09 1.26316e+09 1.26661e+09 0 1
185 5 1 1.27397e+09 1.27422e+09 1.27524e+09 1.27525e+09 0 1
186 5 1 1.28675e+09 1.28701e+09 1.28803e+09 1.28805e+09 0 1
187 3 1 1.29753e+09 1.2978e+09 1.29882e+09 1.3002e+09 0 99
188 5 1 1.30308e+09 1.30333e+09 1.30435e+09 1.30436e+09 0 1
189 1 0 1.30718e+09 1.30744e+09 1.30846e+09 1.30847e+09 0 1
190 4 1 1.31135e+09 1.31161e+09 1.31263e+09 1.31268e+09 0 99
191 5 0 1.3153e+09 1.31554e+09 1.31656e+09 1.32924e+09 0 0
192 5 1 1.33676e+09 1.33701e+09 1.33803e+09 1.33805e+09 1 1
193 5 0 1.3408e+09 1.34106e+09 1.34208e+09 1.34343e+09 0 0
194 5 1 1.35102e+09 1.35127e+09 1.35229e+09 1.35232e+09 1 1
195 5 1 1.35525e+09 1.35551e+09 1.35653e+09 1.35673e+09 0 1
196 5 0 1.35939e+09 1.35963e+09 1.36065e+09 1.36536e+09 0 0
197 5 1 1.3726e+09 1.37285e+09 1.37387e+09 1.37388e+09 1 1
198 5 1 1.37665e+09 1.3769e+09 1.37792e+09 1.378e+09 0 1
199 2 0 1.38067e+09 1.38094e+09 1.38196e+09 1.38201e+09 0 99
200 1 0 1.38564e+09 1.3859e+09 1.38692e+09 1.38738e+09 0 1
201 2 0 1.3899e+09 1.39016e+09 1.39118e+09 1.39159e+09 0 99
202 1 0 1.39409e+09 1.39435e+09 1.39537e+09 1.39549e+09 0 1
203 1 0 1.39817e+09 1.39842e+09 1.39944e+09 1.39944e+09 0 1
204 3 0 1.40305e+09 1.40331e+09 1.40433e+09 1.40476e+09 0 99
205 3 0 1.40761e+09 1.40787e+09 1.40889e+09 1.41224e+09 0 99
206 5 1 1.41488e+09 1.41513e+09 1.41615e+09 1.41616e+09 0 1
207 5 1 1.41898e+09 1.41924e+09 1.42026e+09 1.42028e+09 0 1
208 1 0 1.42328e+09 1.42354e+09 1.42456e+09 1.42482e+09 0 1
209 1 0 1.43054e+09 1.43078e+09 1.4318e+09 1.43181e+09 0 1
210 4 1 1.43517e+09 1.43543e+09 1.43645e+09 1.43646e+09 0 99
211 5 1 1.4392e+09 1.43946e+09 1.44048e+09 1.4405e+09 0 1
212 5 1 1.44304e+09 1.4433e+09 1.44432e+09 1.44433e+09 0 1
213 5 0 1.44688e+09 1.44713e+09 1.44815e+09 1.44876e+09 0 0
214 5 1 1.45856e+09 1.45882e+09 1.45984e+09 1.46003e+09 1 1
215 5 1 1.46281e+09 1.46307e+09 1.46409e+09 1.46411e+09 0 1
216 3 0 1.46721e+09 1.46746e+09 1.46848e+09 1.47379e+09 0 99
217 5 1 1.47671e+09 1.47696e+09 1.47798e+09 1.47811e+09 0 1
218 1 0 1.48086e+09 1.48112e+09 1.48214e+09 1.48214e+09 0 1
219 5 1 1.4847e+09 1.48496e+09 1.48598e+09 1.48604e+09 0 1
220 5 1 1.48881e+09 1.48906e+09 1.49008e+09 1.49009e+09 0 1
221 5 0 1.49501e+09 1.49528e+09 1.4963e+09 1.49792e+09 0 0
222 5 1 1.5075e+09 1.50776e+09 1.50878e+09 1.50878e+09 1 1
223 1 0 1.5116e+09 1.51187e+09 1.51289e+09 1.51292e+09 0 1
224 1 0 1.51621e+09 1.51646e+09 1.51748e+09 1.51752e+09 0 1
225 5 1 1.52024e+09 1.52051e+09 1.52153e+09 1.52153e+09 0 1
226 5 1 1.52431e+09 1.52456e+09 1.52558e+09 1.52559e+09 0 1
227 5 1 1.53205e+09 1.5323e+09 1.53332e+09 1.53333e+09 0 1
228 5 1 1.53695e+09 1.53721e+09 1.53823e+09 1.53823e+09 0 1
229 5 1 1.5409e+09 1.54116e+09 1.54218e+09 1.54221e+09 0 1
230 5 1 1.54494e+09 1.54519e+09 1.54621e+09 1.54622e+09 0 1
231 5 1 1.55257e+09 1.55283e+09 1.55385e+09 1.55386e+09 0 1
232 5 1 1.55653e+09 1.55678e+09 1.5578e+09 1.55782e+09 0 1
233 5 1 1.56492e+09 1.56518e+09 1.5662e+09 1.56622e+09 0 1
234 1 1 1.56915e+09 1.56941e+09 1.57043e+09 1.57954e+09 0 0
235 1 0 1.58662e+09 1.58688e+09 1.58789e+09 1.58793e+09 1 1
236 1 0 1.59391e+09 1.59416e+09 1.59518e+09 1.6077e+09 0 1
237 2 0 1.61022e+09 1.61046e+09 1.61148e+09 1.6116e+09 0 99
238 5 1 1.61435e+09 1.61461e+09 1.61563e+09 1.61564e+09 0 1
239 4 1 1.6196e+09 1.61986e+09 1.62088e+09 1.62243e+09 0 99
240 5 1 1.62563e+09 1.62588e+09 1.6269e+09 1.62851e+09 0 1
241 1 0 1.63123e+09 1.63148e+09 1.6325e+09 1.63254e+09 0 1
242 1 0 1.63519e+09 1.63545e+09 1.63647e+09 1.63655e+09 0 1
243 4 1 1.63912e+09 1.63937e+09 1.64039e+09 1.6404e+09 0 99
244 1 1 1.64417e+09 1.64442e+09 1.64544e+09 1.64733e+09 0 0
245 1 1 1.65447e+09 1.65472e+09 1.65574e+09 1.69404e+09 1 0
246 1 0 1.70135e+09 1.70161e+09 1.70263e+09 1.70271e+09 1 1
247 3 1 1.70897e+09 1.70922e+09 1.71024e+09 1.71093e+09 0 99
248 5 1 1.71361e+09 1.71388e+09 1.7149e+09 1.71491e+09 0 1
249 1 0 1.71747e+09 1.71773e+09 1.71875e+09 1.71884e+09 0 1
250 2 0 1.72168e+09 1.72193e+09 1.72295e+09 1.72305e+09 0 99
251 5 1 1.72593e+09 1.72618e+09 1.7272e+09 1.72728e+09 0 1
252 3 0 1.7402e+09 1.74045e+09 1.74147e+09 1.74205e+09 0 99
253 1 0 1.74715e+09 1.74741e+09 1.74843e+09 1.74852e+09 0 1
254 1 0 1.75133e+09 1.75159e+09 1.75261e+09 1.75267e+09 0 1
255 1 0 1.75521e+09 1.75548e+09 1.7565e+09 1.7566e+09 0 1
256 1 0 1.7631e+09 1.76337e+09 1.76439e+09 1.76455e+09 0 1
257 1 0 1.76908e+09 1.76933e+09 1.77035e+09 1.7705e+09 0 1
258 3 0 1.7732e+09 1.77345e+09 1.77447e+09 1.78055e+09 0 99
259 1 0 1.78315e+09 1.7834e+09 1.78442e+09 1.79058e+09 0 1
260 1 0 1.79328e+09 1.79354e+09 1.79456e+09 1.79474e+09 0 1
261 3 1 1.79755e+09 1.79781e+09 1.79883e+09 1.79891e+09 0 99
262 1 0 1.80177e+09 1.80202e+09 1.80304e+09 1.80886e+09 0 1
263 1 0 1.81176e+09 1.81201e+09 1.81303e+09 1.81315e+09 0 1
264 5 1 1.81645e+09 1.81669e+09 1.81771e+09 1.81772e+09 0 1
265 1 0 1.82387e+09 1.82413e+09 1.82515e+09 1.82518e+09 0 1
266 1 0 1.82814e+09 1.82839e+09 1.82941e+09 1.82943e+09 0 1
267 5 1 1.8321e+09 1.83236e+09 1.83338e+09 1.83339e+09 0 1
268 1 0 1.836e+09 1.83626e+09 1.83728e+09 1.83732e+09 0 1
269 2 0 1.84006e+09 1.84031e+09 1.84133e+09 1.84138e+09 0 99
270 5 1 1.84409e+09 1.84435e+09 1.84537e+09 1.84537e+09 0 1
271 2 0 1.8481e+09 1.84835e+09 1.84937e+09 1.85129e+09 0 99
272 3 1 1.85417e+09 1.85442e+09 1.85544e+09 1.85545e+09 0 99
273 4 1 1.85915e+09 1.85942e+09 1.86044e+09 1.86046e+09 0 99
274 5 0 1.86458e+09 1.86483e+09 1.86585e+09 1.8736e+09 0 0
275 5 1 1.88099e+09 1.88124e+09 1.88226e+09 1.88227e+09 1 1
276 1 0 1.885e+09 1.88525e+09 1.88627e+09 1.88649e+09 0 1
277 1 0 1.88957e+09 1.88982e+09 1.89084e+09 1.89135e+09 0 1
278 2 1 1.89865e+09 1.89891e+09 1.89992e+09 1.90048e+09 0 99
279 1 0 1.90345e+09 1.90371e+09 1.90473e+09 1.90481e+09 0 1
280 5 1 1.91119e+09 1.91146e+09 1.91248e+09 1.91248e+09 0 1
281 4 1 1.91524e+09 1.91551e+09 1.91653e+09 1.91655e+09 0 99
282 4 1 1.92042e+09 1.92067e+09 1.92169e+09 1.92172e+09 0 99
283 5 1 1.92447e+09 1.92473e+09 1.92575e+09 1.92578e+09 0 1
284 5 1 1.93399e+09 1.93424e+09 1.93526e+09 1.93527e+09 0 1
285 1 0 1.93823e+09 1.93847e+09 1.93949e+09 1.9395e+09 0 1
286 5 1 1.94209e+09 1.94235e+09 1.94337e+09 1.94338e+09 0 1
287 5 1 1.94626e+09 1.94652e+09 1.94754e+09 1.94757e+09 0 1
288 1 0 1.95022e+09 1.95048e+09 1.9515e+09 1.95156e+09 0 1
289 1 0 1.95658e+09 1.95684e+09 1.95786e+09 1.95789e+09 0 1
290 5 1 1.96053e+09 1.96079e+09 1.96181e+09 1.96182e+09 0 1
291 5 1 1.96472e+09 1.96497e+09 1.96599e+09 1.96606e+09 0 1
292 1 0 1.97074e+09 1.97099e+09 1.97201e+09 1.97226e+09 0 1
293 5 1 1.98118e+09 1.98144e+09 1.98246e+09 1.98249e+09 0 1
294 1 0 1.9854e+09 1.98566e+09 1.98668e+09 1.99355e+09 0 1
295 1 0 1.99618e+09 1.99644e+09 1.99746e+09 1.99781e+09 0 1
296 2 1 2.00058e+09 2.00083e+09 2.00185e+09 2.00196e+09 0 99
297 1 0 2.00456e+09 2.00482e+09 2.00584e+09 2.0061e+09 0 1
298 5 1 2.00873e+09 2.00899e+09 2.01001e+09 2.01001e+09 0 1
299 5 1 2.0139e+09 2.01416e+09 2.01518e+09 2.01519e+09 0 1
300 1 1 2.01787e+09 2.01813e+09 2.01915e+09 2.02028e+09 0 0
301 1 0 2.02774e+09 2.02798e+09 2.029e+09 2.03837e+09 1 1
302 4 1 2.04138e+09 2.04163e+09 2.04265e+09 2.04266e+09 0 99
303 1 0 2.04735e+09 2.04761e+09 2.04863e+09 2.04865e+09 0 1
304 5 1 2.05629e+09 2.05654e+09 2.05756e+09 2.05757e+09 0 1
305 3 1 2.06163e+09 2.06189e+09 2.0629e+09 2.06292e+09 0 99
306 5 0 2.06556e+09 2.06581e+09 2.06683e+09 2.06964e+09 0 0
307 5 1 2.07982e+09 2.08007e+09 2.08109e+09 2.0811e+09 1 1
308 3 0 2.09043e+09 2.09068e+09 2.0917e+09 2.09365e+09 0 99
309 5 1 2.09666e+09 2.09692e+09 2.09794e+09 2.09795e+09 0 1
310 3 1 2.1009e+09 2.10115e+09 2.10217e+09 2.10706e+09 0 99
311 1 0 2.10996e+09 2.1102e+09 2.11122e+09 2.11124e+09 0 1
312 5 1 2.11392e+09 2.11417e+09 2.11519e+09 2.1152e+09 0 1
313 4 1 2.11824e+09 2.1185e+09 2.11952e+09 2.11953e+09 0 99
314 4 1 2.12248e+09 2.12273e+09 2.12375e+09 2.12385e+09 0 99
315 5 0 2.12923e+09 2.12947e+09 2.13049e+09 2.13056e+09 0 0
316 5 1 2.13782e+09 2.13807e+09 2.13908e+09 2.1391e+09 1 1
317 1 0 2.14212e+09 2.14238e+09 2.1434e+09 2.14341e+09 0 1
318 5 0 2.14825e+09 2.14852e+09 2.14954e+09 2.16413e+09 0 0
319 5 0 2.17234e+09 2.1726e+09 2.17362e+09 2.18143e+09 1 0
320 5 0 2.18849e+09 2.18875e+09 2.18977e+09 2.18979e+09 1 0
321 5 1 2.19685e+09 2.19712e+09 2.19814e+09 2.22056e+09 1 1
322 5 0 2.22458e+09 2.22483e+09 2.22585e+09 2.22677e+09 0 0
323 5 0 2.23381e+09 2.23407e+09 2.23509e+09 2.23708e+09 1 0
324 5 0 2.24523e+09 2.24548e+09 2.2465e+09 2.27935e+09 1 0
325 5 0 2.28799e+09 2.28825e+09 2.28926e+09 2.39003e+09 1 0
326 1 0 2.39756e+09 2.39783e+09 2.39885e+09 2.3989e+09 0 1
327 1 0 2.40536e+09 2.40563e+09 2.40665e+09 2.40706e+09 0 1
328 2 0 2.41001e+09 2.41027e+09 2.41129e+09 2.41152e+09 0 99
329 2 0 2.41414e+09 2.4144e+09 2.41542e+09 2.41545e+09 0 99
330 5 1 2.41803e+09 2.41829e+09 2.41931e+09 2.41937e+09 0 1
331 1 0 2.4226e+09 2.42285e+09 2.42387e+09 2.4283e+09 0 1
332 1 0 2.43112e+09 2.43136e+09 2.43238e+09 2.4324e+09 0 1
333 5 1 2.43591e+09 2.43618e+09 2.4372e+09 2.4372e+09 0 1
334 1 0 2.44013e+09 2.44039e+09 2.44141e+09 2.44146e+09 0 1
335 1 0 2.44453e+09 2.44477e+09 2.44579e+09 2.4458e+09 0 1
336 1 0 2.45056e+09 2.45081e+09 2.45183e+09 2.45191e+09 0 1
337 2 0 2.45465e+09 2.45491e+09 2.45593e+09 2.45786e+09 0 99
338 5 1 2.46111e+09 2.46136e+09 2.46238e+09 2.46242e+09 0 1
339 1 0 2.46544e+09 2.4657e+09 2.46672e+09 2.46672e+09 0 1
340 2 0 2.4707e+09 2.47095e+09 2.47197e+09 2.47203e+09 0 99
341 1 0 2.47481e+09 2.47506e+09 2.47608e+09 2.47648e+09 0 1
342 5 1 2.47934e+09 2.47959e+09 2.48061e+09 2.48061e+09 0 1
343 5 1 2.48788e+09 2.48814e+09 2.48916e+09 2.48916e+09 0 1
344 3 1 2.49185e+09 2.49211e+09 2.49313e+09 2.49314e+09 0 99
345 5 0 2.49582e+09 2.49608e+09 2.4971e+09 2.49729e+09 0 0
346 5 0 2.50459e+09 2.50485e+09 2.50587e+09 2.51092e+09 1 0
347 5 1 2.52095e+09 2.5212e+09 2.52222e+09 2.52233e+09 1 1
348 5 1 2.52508e+09 2.52535e+09 2.52636e+09 2.52638e+09 0 1
349 1 0 2.52978e+09 2.53003e+09 2.53105e+09 2.53106e+09 0 1
350 4 1 2.5341e+09 2.53435e+09 2.53537e+09 2.53539e+09 0 99
351 1 0 2.53905e+09 2.53931e+09 2.54033e+09 2.54048e+09 0 1
352 3 1 2.54328e+09 2.54354e+09 2.54456e+09 2.5475e+09 0 99
353 2 0 2.55155e+09 2.55181e+09 2.55282e+09 2.56234e+09 0 99
354 5 1 2.56548e+09 2.56573e+09 2.56675e+09 2.56742e+09 0 1
355 1 0 2.57018e+09 2.57043e+09 2.57145e+09 2.57172e+09 0 1
356 1 0 2.57436e+09 2.57462e+09 2.57564e+09 2.57565e+09 0 1
357 4 1 2.57862e+09 2.57887e+09 2.57989e+09 2.57991e+09 0 99
358 1 0 2.58262e+09 2.58287e+09 2.58389e+09 2.58393e+09 0 1
359 3 0 2.58928e+09 2.58954e+09 2.59056e+09 2.59317e+09 0 99
360 5 1 2.59576e+09 2.596e+09 2.59702e+09 2.59713e+09 0 1
361 1 0 2.60059e+09 2.60086e+09 2.60188e+09 2.61327e+09 0 1
362 1 0 2.61603e+09 2.61628e+09 2.6173e+09 2.61731e+09 0 1
363 1 0 2.62014e+09 2.62039e+09 2.62141e+09 2.62144e+09 0 1
364 5 1 2.62414e+09 2.6244e+09 2.62542e+09 2.62543e+09 0 1
365 1 0 2.63131e+09 2.63156e+09 2.63258e+09 2.63265e+09 0 1
366 5 1 2.63525e+09 2.63551e+09 2.63653e+09 2.63654e+09 0 1
367 5 1 2.64529e+09 2.64554e+09 2.64656e+09 2.64673e+09 0 1
368 5 1 2.6494e+09 2.64966e+09 2.65068e+09 2.65073e+09 0 1
369 5 0 2.65355e+09 2.65383e+09 2.65485e+09 2.65843e+09 0 0
370 5 0 2.66548e+09 2.66574e+09 2.66676e+09 2.67228e+09 1 0
371 5 1 2.68008e+09 2.68034e+09 2.68136e+09 2.68138e+09 1 1
372 5 1 2.68711e+09 2.68736e+09 2.68838e+09 2.68841e+09 0 1
373 5 1 2.69291e+09 2.69317e+09 2.69419e+09 2.69495e+09 0 1
374 5 1 2.6976e+09 2.69785e+09 2.69887e+09 2.6991e+09 0 1
375 1 1 2.70173e+09 2.70197e+09 2.70299e+09 2.70302e+09 0 0
376 1 0 2.71081e+09 2.71106e+09 2.71208e+09 2.7357e+09 1 1
377 1 0 2.73967e+09 2.73992e+09 2.74094e+09 2.74139e+09 0 1
378 5 1 2.7442e+09 2.74445e+09 2.74547e+09 2.74549e+09 0 1
379 5 0 2.75414e+09 2.7544e+09 2.75542e+09 2.76245e+09 0 0
380 5 1 2.76984e+09 2.7701e+09 2.77112e+09 2.77124e+09 1 1
381 5 1 2.77411e+09 2.77437e+09 2.77539e+09 2.77543e+09 0 1
382 5 1 2.77806e+09 2.77831e+09 2.77933e+09 2.77974e+09 0 1
383 1 0 2.78276e+09 2.78302e+09 2.78404e+09 2.78409e+09 0 1
384 1 0 2.7893e+09 2.78955e+09 2.79057e+09 2.79086e+09 0 1
385 2 0 2.79443e+09 2.79469e+09 2.79571e+09 2.79894e+09 0 99
386 2 0 2.80168e+09 2.80193e+09 2.80295e+09 2.86207e+09 0 99
387 5 0 2.8666e+09 2.86685e+09 2.86787e+09 2.86812e+09 0 0
388 5 1 2.87529e+09 2.87554e+09 2.87656e+09 2.87658e+09 1 1
389 5 1 2.87919e+09 2.87944e+09 2.88046e+09 2.88047e+09 0 1
390 5 1 2.88295e+09 2.88321e+09 2.88423e+09 2.88424e+09 0 1
391 1 0 2.89283e+09 2.89307e+09 2.89409e+09 2.89412e+09 0 1
392 5 1 2.89776e+09 2.89801e+09 2.89903e+09 2.89911e+09 0 1
393 1 0 2.9019e+09 2.90216e+09 2.90318e+09 2.90341e+09 0 1
394 1 0 2.90646e+09 2.90672e+09 2.90774e+09 2.90776e+09 0 1
395 1 0 2.9107e+09 2.91097e+09 2.91199e+09 2.91201e+09 0 1
396 1 0 2.91487e+09 2.91513e+09 2.91615e+09 2.91637e+09 0 1
397 4 1 2.91917e+09 2.91942e+09 2.92044e+09 2.92046e+09 0 99
398 5 0 2.92386e+09 2.92412e+09 2.92514e+09 2.93567e+09 0 0
399 5 1 2.94277e+09 2.94301e+09 2.94403e+09 2.94404e+09 1 1
400 4 1 2.94683e+09 2.94708e+09 2.9481e+09 2.94811e+09 0 99
401 4 0 2.95578e+09 2.95604e+09 2.95706e+09 2.95711e+09 0 99
402 5 0 2.95973e+09 2.95997e+09 2.96099e+09 3.04428e+09 0 0
403 5 1 3.05166e+09 3.05191e+09 3.05293e+09 3.05302e+09 1 1
404 1 0 3.0558e+09 3.05605e+09 3.05707e+09 3.06601e+09 0 1
405 5 0 3.06885e+09 3.06911e+09 3.07013e+09 3.07318e+09 0 0
406 5 1 3.08094e+09 3.08118e+09 3.0822e+09 3.08221e+09 1 1
407 1 0 3.08477e+09 3.08503e+09 3.08605e+09 3.08683e+09 0 1
408 1 0 3.09471e+09 3.09496e+09 3.09598e+09 3.09604e+09 0 1
409 3 0 3.09863e+09 3.09889e+09 3.09991e+09 3.10294e+09 0 99
410 2 0 3.10578e+09 3.10604e+09 3.10706e+09 3.10711e+09 0 99
411 1 0 3.11005e+09 3.11031e+09 3.11133e+09 3.11148e+09 0 1
412 5 1 3.11502e+09 3.11527e+09 3.11629e+09 3.17002e+09 0 1
413 5 0 3.17338e+09 3.17363e+09 3.17465e+09 3.21081e+09 0 0
414 5 0 3.21815e+09 3.21839e+09 3.21941e+09 3.3781e+09 1 0
415 5 1 3.38526e+09 3.38551e+09 3.38653e+09 3.38675e+09 1 1
416 5 0 3.38964e+09 3.38989e+09 3.39091e+09 3.4032e+09 0 0
417 5 0 3.41041e+09 3.41067e+09 3.41169e+09 3.41405e+09 1 0
418 5 1 3.4213e+09 3.42155e+09 3.42257e+09 3.42272e+09 1 1
419 2 1 3.42537e+09 3.42562e+09 3.42664e+09 3.4286e+09 0 99
420 4 1 3.43112e+09 3.43138e+09 3.4324e+09 3.43625e+09 0 99
421 1 0 3.44089e+09 3.44114e+09 3.44216e+09 3.44234e+09 0 1
422 1 0 3.445e+09 3.44525e+09 3.44627e+09 3.44655e+09 0 1
423 3 0 3.44951e+09 3.44976e+09 3.45078e+09 3.45141e+09 0 99
424 5 1 3.45424e+09 3.4545e+09 3.45552e+09 3.45554e+09 0 1
425 4 0 3.45826e+09 3.45851e+09 3.45953e+09 3.45971e+09 0 99
426 3 1 3.46312e+09 3.46338e+09 3.4644e+09 3.4649e+09 0 99
427 5 1 3.4676e+09 3.46786e+09 3.46888e+09 3.46889e+09 0 1
428 4 0 3.47262e+09 3.47287e+09 3.47389e+09 3.47831e+09 0 99
429 3 0 3.48212e+09 3.48236e+09 3.48338e+09 3.48347e+09 0 99
430 1 0 3.48657e+09 3.48683e+09 3.48785e+09 3.48786e+09 0 1
431 1 0 3.49081e+09 3.49107e+09 3.49209e+09 3.49221e+09 0 1
432 2 0 3.49473e+09 3.49498e+09 3.496e+09 3.49634e+09 0 99
433 5 1 3.49892e+09 3.49918e+09 3.5002e+09 3.50024e+09 0 1
434 1 0 3.50405e+09 3.50429e+09 3.50531e+09 3.50533e+09 0 1
435 5 1 3.50798e+09 3.50822e+09 3.50924e+09 3.5093e+09 0 1
436 5 1 3.51192e+09 3.51217e+09 3.51319e+09 3.51324e+09 0 1
437 1 1 3.51606e+09 3.51632e+09 3.51734e+09 3.51846e+09 0 0
438 1 0 3.5256e+09 3.52585e+09 3.52687e+09 3.5269e+09 1 1
439 5 0 3.53144e+09 3.5317e+09 3.53272e+09 3.71359e+09 0 0
440 5 0 3.72091e+09 3.72117e+09 3.72219e+09 3.73547e+09 1 0
441 5 0 3.74269e+09 3.74293e+09 3.74395e+09 3.7453e+09 1 0
