trial trialType response stillTime stimOnset stimOffset respTime correctionTrial correct
001 2 1 7.8244e+06 8.14172e+06 9.1613e+06 1.13295e+07 0 1
002 2 1 1.43544e+07 1.46361e+07 1.56557e+07 2.42523e+07 0 1
003 1 0 2.69558e+07 2.72535e+07 2.82731e+07 4.0733e+07 0 1
004 1 0 4.34678e+07 4.37276e+07 4.47472e+07 4.52843e+07 0 1
005 1 0 5.58869e+07 5.61513e+07 5.71709e+07 5.72227e+07 0 1
006 2 1 6.52554e+07 6.5527e+07 6.65465e+07 6.65561e+07 0 1
007 1 1 6.91456e+07 6.94117e+07 7.04313e+07 7.20184e+07 0 0
008 1 1 8.24433e+07 8.2694e+07 8.37135e+07 8.57522e+07 1 0
009 1 1 9.5616e+07 9.58673e+07 9.68869e+07 9.87781e+07 1 0
010 1 0 1.07213e+08 1.07473e+08 1.08493e+08 1.09124e+08 1 1
011 2 0 1.40973e+08 1.41224e+08 1.42244e+08 1.44829e+08 0 0
012 2 0 1.52019e+08 1.52272e+08 1.53291e+08 1.61885e+08 1 0
013 2 1 1.69406e+08 1.69668e+08 1.70688e+08 1.71142e+08 1 1
014 1 1 1.87406e+08 1.87655e+08 1.88675e+08 1.88685e+08 0 0
015 1 1 1.97655e+08 1.97901e+08 1.98921e+08 1.99033e+08 1 0
016 1 0 2.06066e+08 2.06318e+08 2.07338e+08 2.07869e+08 1 1
017 1 0 2.22046e+08 2.22299e+08 2.23318e+08 2.23344e+08 0 1
018 2 1 2.38384e+08 2.38638e+08 2.39658e+08 2.39678e+08 0 1
019 1 0 2.50399e+08 2.50651e+08 2.51671e+08 2.5187e+08 0 1
020 1 1 2.64358e+08 2.64609e+08 2.65628e+08 2.65694e+08 0 0
021 1 0 2.73032e+08 2.73286e+08 2.74306e+08 2.74337e+08 1 1
022 1 1 2.94514e+08 2.9478e+08 2.958e+08 2.99441e+08 0 0
023 1 0 3.09151e+08 3.09404e+08 3.10423e+08 3.10581e+08 1 1
024 2 1 3.14199e+08 3.14456e+08 3.15475e+08 3.16671e+08 0 1
025 1 1 3.21001e+08 3.21263e+08 3.22283e+08 3.2296e+08 0 0
026 1 1 3.65032e+08 3.65284e+08 3.66303e+08 3.6643e+08 1 0
027 1 1 3.76648e+08 3.76907e+08 3.77926e+08 3.78592e+08 1 0
028 1 1 3.88849e+08 3.89104e+08 3.90124e+08 3.90277e+08 1 0
029 2 1 4.0137e+08 4.01635e+08 4.02655e+08 4.02675e+08 0 1
030 2 0 4.05569e+08 4.05827e+08 4.06847e+08 4.10472e+08 0 0
031 2 0 4.17596e+08 4.17848e+08 4.18867e+08 4.2131e+08 1 0
032 2 0 4.30679e+08 4.30938e+08 4.31958e+08 4.33517e+08 1 0
033 2 1 4.42088e+08 4.42355e+08 4.43374e+08 4.43996e+08 1 1
034 2 0 4.49195e+08 4.49449e+08 4.50469e+08 4.50531e+08 0 0
035 2 0 4.58448e+08 4.58714e+08 4.59734e+08 4.60732e+08 1 0
036 2 0 4.70767e+08 4.71026e+08 4.72045e+08 4.72223e+08 1 0
037 2 0 4.81e+08 4.81248e+08 4.82267e+08 4.82407e+08 1 0
038 1 1 4.90849e+08 4.91118e+08 4.92138e+08 5.39424e+08 0 0
039 1 1 5.46601e+08 5.46867e+08 5.47887e+08 5.48233e+08 0 0
040 2 1 5.55644e+08 5.5591e+08 5.56929e+08 5.58304e+08 0 1
041 2 0 5.61332e+08 5.61584e+08 5.62603e+08 5.68601e+08 0 0
042 2 0 5.75805e+08 5.7607e+08 5.7709e+08 5.90588e+08 1 0
043 2 1 6.01785e+08 6.02042e+08 6.03062e+08 6.07521e+08 1 1
044 2 1 6.10434e+08 6.1069e+08 6.1171e+08 6.12265e+08 0 1
045 2 1 6.15312e+08 6.15577e+08 6.16597e+08 6.53682e+08 0 1
046 1 1 6.56506e+08 6.56767e+08 6.57787e+08 6.60806e+08 0 0
047 1 0 6.68077e+08 6.68336e+08 6.69355e+08 6.69631e+08 1 1
048 1 1 6.72296e+08 6.7255e+08 6.7357e+08 6.76661e+08 0 0
049 1 1 6.84058e+08 6.84308e+08 6.85327e+08 6.89578e+08 1 0
050 1 1 6.97653e+08 6.97912e+08 6.98931e+08 6.99065e+08 1 0
051 1 1 7.07146e+08 7.07399e+08 7.08418e+08 7.08552e+08 1 0
052 2 0 7.15793e+08 7.16041e+08 7.1706e+08 7.17073e+08 0 0
053 2 0 7.24563e+08 7.24808e+08 7.25827e+08 7.25849e+08 0 0
054 1 0 7.33392e+08 7.33658e+08 7.34677e+08 7.34696e+08 0 1
055 2 1 7.43467e+08 7.43713e+08 7.44733e+08 7.44835e+08 0 1
056 2 1 7.52699e+08 7.52953e+08 7.53973e+08 7.65338e+08 0 1
057 2 1 7.67953e+08 7.68211e+08 7.69231e+08 7.73466e+08 0 1
058 1 1 7.76239e+08 7.76492e+08 7.77512e+08 7.77821e+08 0 0
059 1 1 7.84883e+08 7.85133e+08 7.86152e+08 8.0347e+08 1 0
060 1 1 8.10917e+08 8.11178e+08 8.12198e+08 8.29762e+08 1 0
061 1 0 8.37018e+08 8.37274e+08 8.38294e+08 8.38424e+08 1 1
062 1 1 8.57132e+08 8.57395e+08 8.58415e+08 8.6416e+08 0 0
063 1 1 8.71245e+08 8.71519e+08 8.72538e+08 8.72693e+08 1 0
064 1 1 8.80923e+08 8.81188e+08 8.82208e+08 9.21038e+08 1 0
065 1 1 9.28384e+08 9.28633e+08 9.29653e+08 9.29989e+08 1 0
066 2 1 9.37431e+08 9.37684e+08 9.38703e+08 9.47159e+08 0 1
067 2 0 9.50219e+08 9.50484e+08 9.51504e+08 9.54022e+08 0 0
068 2 0 9.61472e+08 9.61731e+08 9.62751e+08 1.02469e+09 1 0
069 2 1 1.03196e+09 1.03221e+09 1.03323e+09 1.03378e+09 1 1
070 2 1 1.03679e+09 1.03705e+09 1.03806e+09 1.05158e+09 0 1
071 2 1 1.05447e+09 1.05473e+09 1.05575e+09 1.06006e+09 0 1
072 1 1 1.06302e+09 1.06328e+09 1.0643e+09 1.06541e+09 0 0
073 1 1 1.0733e+09 1.07356e+09 1.07458e+09 1.08075e+09 1 0
074 1 1 1.08781e+09 1.08806e+09 1.08908e+09 1.08911e+09 1 0
075 1 1 1.0965e+09 1.09675e+09 1.09777e+09 1.11495e+09 1 0
076 1 1 1.12559e+09 1.12585e+09 1.12687e+09 1.12688e+09 0 0
077 1 1 1.1341e+09 1.13437e+09 1.13538e+09 1.13867e+09 0 0
078 2 1 1.14813e+09 1.1484e+09 1.14942e+09 1.1509e+09 0 1
079 1 1 1.16361e+09 1.16387e+09 1.16489e+09 1.16542e+09 0 0
080 1 1 1.17281e+09 1.17307e+09 1.17409e+09 1.17415e+09 1 0
081 1 0 1.1847e+09 1.18496e+09 1.18598e+09 1.18599e+09 1 1
082 1 0 1.19666e+09 1.19691e+09 1.19793e+09 1.1987e+09 0 1
083 1 0 1.20303e+09 1.20329e+09 1.20431e+09 1.20438e+09 0 1
084 2 1 1.21428e+09 1.21454e+09 1.21556e+09 1.21988e+09 0 1
085 1 0 1.22249e+09 1.22275e+09 1.22377e+09 1.22412e+09 0 1
086 1 0 1.22686e+09 1.22712e+09 1.22814e+09 1.22931e+09 0 1
087 1 0 1.23201e+09 1.23226e+09 1.23328e+09 1.23988e+09 0 1
088 2 0 1.24276e+09 1.24302e+09 1.24404e+09 1.25216e+09 0 0
089 2 0 1.26749e+09 1.26775e+09 1.26877e+09 1.26892e+09 1 0
090 2 1 1.2764e+09 1.27665e+09 1.27767e+09 1.27794e+09 1 1
091 1 0 1.28649e+09 1.28674e+09 1.28776e+09 1.28786e+09 0 1
092 2 0 1.30617e+09 1.30642e+09 1.30744e+09 1.31297e+09 0 0
093 2 1 1.32309e+09 1.32334e+09 1.32436e+09 1.32443e+09 1 1
094 1 1 1.33822e+09 1.33848e+09 1.33949e+09 1.34027e+09 0 0
095 1 0 1.34755e+09 1.34782e+09 1.34884e+09 1.34885e+09 1 1
096 2 1 1.35799e+09 1.35824e+09 1.35926e+09 1.35928e+09 0 1
097 2 0 1.37157e+09 1.37183e+09 1.37285e+09 1.37308e+09 0 0
098 2 1 1.39257e+09 1.39283e+09 1.39384e+09 1.39405e+09 1 1
099 2 1 1.39697e+09 1.39721e+09 1.39823e+09 1.40053e+09 0 1
100 1 0 1.40408e+09 1.40434e+09 1.40536e+09 1.40539e+09 0 1
101 2 0 1.41405e+09 1.41431e+09 1.41533e+09 1.41534e+09 0 0
102 2 1 1.42664e+09 1.42689e+09 1.42791e+09 1.42793e+09 1 1
103 1 0 1.43079e+09 1.43105e+09 1.43207e+09 1.43333e+09 0 1
104 2 0 1.45294e+09 1.4532e+09 1.45422e+09 1.46351e+09 0 0
105 2 1 1.47441e+09 1.47467e+09 1.47569e+09 1.47812e+09 1 1
106 1 1 1.48103e+09 1.48128e+09 1.4823e+09 1.50029e+09 0 0
107 1 0 1.5075e+09 1.50775e+09 1.50877e+09 1.50878e+09 1 1
108 1 1 1.51709e+09 1.51734e+09 1.51836e+09 1.5212e+09 0 0
109 1 1 1.52853e+09 1.52879e+09 1.52981e+09 1.52996e+09 1 0
110 1 0 1.5374e+09 1.53766e+09 1.53868e+09 1.53877e+09 1 1
111 1 0 1.54141e+09 1.54167e+09 1.54269e+09 1.55007e+09 0 1
112 2 1 1.55279e+09 1.55305e+09 1.55407e+09 1.55772e+09 0 1
113 1 1 1.56708e+09 1.56734e+09 1.56836e+09 1.57197e+09 0 0
114 1 1 1.57919e+09 1.57943e+09 1.58045e+09 1.58073e+09 1 0
115 1 0 1.5879e+09 1.58816e+09 1.58918e+09 1.60944e+09 1 1
116 2 0 1.61242e+09 1.61268e+09 1.6137e+09 1.61473e+09 0 0
117 2 0 1.63161e+09 1.63187e+09 1.63289e+09 1.63293e+09 1 0
118 2 1 1.6435e+09 1.64377e+09 1.64479e+09 1.64498e+09 1 1
119 1 0 1.64794e+09 1.64819e+09 1.64921e+09 1.64949e+09 0 1
120 1 1 1.65874e+09 1.65899e+09 1.66001e+09 1.66662e+09 0 0
121 1 1 1.67392e+09 1.67417e+09 1.67519e+09 1.67564e+09 1 0
122 1 0 1.68273e+09 1.68298e+09 1.684e+09 1.68401e+09 1 1
123 2 1 1.68741e+09 1.68768e+09 1.6887e+09 1.68889e+09 0 1
124 1 0 1.69744e+09 1.69769e+09 1.69871e+09 1.69883e+09 0 1
125 1 1 1.70681e+09 1.70707e+09 1.70809e+09 1.70815e+09 0 0
126 1 1 1.71566e+09 1.71591e+09 1.71693e+09 1.71707e+09 1 0
127 1 1 1.72478e+09 1.72503e+09 1.72605e+09 1.72672e+09 1 0
128 1 1 1.73397e+09 1.73422e+09 1.73524e+09 1.73797e+09 1 0
129 2 0 1.74505e+09 1.74531e+09 1.74633e+09 1.74694e+09 0 0
130 1 0 1.75449e+09 1.75476e+09 1.75578e+09 1.75621e+09 0 1
131 2 1 1.76342e+09 1.76367e+09 1.76469e+09 1.76472e+09 0 1
132 2 0 1.76759e+09 1.76785e+09 1.76887e+09 1.76915e+09 0 0
133 2 1 1.77627e+09 1.77654e+09 1.77756e+09 1.77776e+09 1 1
134 1 1 1.78059e+09 1.78085e+09 1.78186e+09 1.78302e+09 0 0
135 1 0 1.79032e+09 1.79057e+09 1.79159e+09 1.79164e+09 1 1
136 2 1 1.80095e+09 1.8012e+09 1.80222e+09 1.80996e+09 0 1
137 1 1 1.81502e+09 1.81528e+09 1.8163e+09 1.81855e+09 0 0
138 1 1 1.82609e+09 1.82634e+09 1.82736e+09 1.82738e+09 1 0
139 1 1 1.83463e+09 1.83489e+09 1.83591e+09 1.83603e+09 1 0
140 1 1 1.84445e+09 1.8447e+09 1.84572e+09 1.84943e+09 1 0
141 1 1 1.85766e+09 1.85793e+09 1.85895e+09 1.8591e+09 0 0
142 1 1 1.86798e+09 1.86823e+09 1.86925e+09 1.87538e+09 0 0
143 2 0 1.88714e+09 1.88739e+09 1.88841e+09 1.89476e+09 0 0
144 1 1 1.9019e+09 1.90216e+09 1.90318e+09 1.90332e+09 0 0
145 2 1 1.91053e+09 1.91079e+09 1.91181e+09 1.91192e+09 0 1
146 2 1 1.92739e+09 1.92765e+09 1.92867e+09 1.92869e+09 0 1
147 1 0 1.94084e+09 1.9411e+09 1.94212e+09 1.94224e+09 0 1
148 2 1 1.94543e+09 1.94569e+09 1.94671e+09 1.95773e+09 0 1
149 1 0 1.96058e+09 1.96083e+09 1.96185e+09 1.96245e+09 0 1
150 2 0 1.97127e+09 1.97153e+09 1.97255e+09 1.97352e+09 0 0
151 2 1 1.98103e+09 1.98128e+09 1.9823e+09 1.98635e+09 1 1
152 1 0 1.98977e+09 1.99003e+09 1.99105e+09 1.99113e+09 0 1
153 1 0 2.00138e+09 2.00162e+09 2.00264e+09 2.00272e+09 0 1
154 2 0 2.02034e+09 2.0206e+09 2.02162e+09 2.02164e+09 0 0
155 2 0 2.03441e+09 2.03467e+09 2.03569e+09 2.03579e+09 1 0
156 2 0 2.04614e+09 2.04639e+09 2.04741e+09 2.04761e+09 1 0
157 2 0 2.05493e+09 2.05519e+09 2.0562e+09 2.05635e+09 1 0
158 2 0 2.06524e+09 2.06549e+09 2.06651e+09 2.06662e+09 0 0
159 2 0 2.07578e+09 2.07604e+09 2.07706e+09 2.0772e+09 0 0
160 2 0 2.08442e+09 2.08469e+09 2.08571e+09 2.08597e+09 0 0
161 2 1 2.09512e+09 2.09537e+09 2.09639e+09 2.09652e+09 0 1
162 2 0 2.10069e+09 2.10094e+09 2.10196e+09 2.10224e+09 0 0
163 2 1 2.11175e+09 2.112e+09 2.11302e+09 2.11328e+09 1 1
164 2 1 2.12147e+09 2.12171e+09 2.12273e+09 2.12284e+09 0 1
165 1 0 2.13085e+09 2.13111e+09 2.13213e+09 2.13215e+09 0 1
166 1 0 2.1424e+09 2.14265e+09 2.14367e+09 2.14369e+09 0 1
167 1 1 2.1522e+09 2.15246e+09 2.15348e+09 2.15359e+09 0 0
168 1 1 2.16098e+09 2.16125e+09 2.16227e+09 2.16244e+09 1 0
169 1 1 2.17477e+09 2.17504e+09 2.17606e+09 2.17611e+09 1 0
170 1 1 2.18423e+09 2.1845e+09 2.18552e+09 2.18563e+09 1 0
171 1 1 2.19425e+09 2.1945e+09 2.19552e+09 2.19558e+09 0 0
172 2 1 2.20537e+09 2.20562e+09 2.20664e+09 2.20665e+09 0 1
173 2 1 2.2095e+09 2.20977e+09 2.21079e+09 2.21084e+09 0 1
174 2 0 2.23832e+09 2.23857e+09 2.23959e+09 2.23967e+09 0 0
175 2 0 2.25186e+09 2.25211e+09 2.25313e+09 2.25316e+09 1 0
176 2 0 2.26079e+09 2.26104e+09 2.26206e+09 2.26262e+09 1 0
177 2 1 2.27203e+09 2.27228e+09 2.2733e+09 2.27544e+09 1 1
178 2 1 2.28241e+09 2.28266e+09 2.28368e+09 2.28369e+09 0 1
179 1 0 2.29193e+09 2.29218e+09 2.2932e+09 2.29327e+09 0 1
180 2 0 2.30565e+09 2.30591e+09 2.30693e+09 2.30704e+09 0 0
181 2 0 2.31446e+09 2.31472e+09 2.31574e+09 2.31582e+09 1 0
182 2 1 2.32431e+09 2.32457e+09 2.32559e+09 2.32562e+09 1 1
183 1 0 2.33263e+09 2.33288e+09 2.3339e+09 2.33392e+09 0 1
184 2 0 2.34171e+09 2.34196e+09 2.34298e+09 2.3431e+09 0 0
185 2 1 2.35038e+09 2.35063e+09 2.35165e+09 2.36364e+09 1 1
186 2 0 2.36948e+09 2.36974e+09 2.37076e+09 2.37116e+09 0 0
187 2 0 2.37926e+09 2.3795e+09 2.38052e+09 2.38066e+09 1 0
188 2 1 2.38908e+09 2.38933e+09 2.39035e+09 2.39039e+09 1 1
189 2 0 2.39609e+09 2.39634e+09 2.39736e+09 2.39745e+09 0 0
190 2 0 2.40696e+09 2.40722e+09 2.40824e+09 2.40828e+09 1 0
191 2 1 2.42837e+09 2.42864e+09 2.42966e+09 2.42968e+09 1 1
192 1 1 2.43267e+09 2.43293e+09 2.43395e+09 2.43412e+09 0 0
193 1 1 2.44562e+09 2.44588e+09 2.4469e+09 2.44713e+09 1 0
194 1 1 2.47035e+09 2.47061e+09 2.47163e+09 2.47174e+09 1 0
195 1 1 2.48225e+09 2.48249e+09 2.48351e+09 2.48612e+09 1 0
196 2 0 2.49326e+09 2.49352e+09 2.49454e+09 2.50225e+09 0 0
197 2 1 2.51114e+09 2.5114e+09 2.51242e+09 2.51615e+09 0 1
198 1 1 2.51868e+09 2.51894e+09 2.51996e+09 2.52001e+09 0 0
199 1 0 2.52835e+09 2.5286e+09 2.52962e+09 2.52982e+09 1 1
200 2 1 2.53438e+09 2.53464e+09 2.53565e+09 2.54674e+09 0 1
201 1 1 2.55199e+09 2.55225e+09 2.55327e+09 2.55391e+09 0 0
202 1 0 2.56123e+09 2.5615e+09 2.56252e+09 2.56276e+09 1 1
203 2 1 2.57017e+09 2.57043e+09 2.57145e+09 2.5717e+09 0 1
204 1 1 2.57461e+09 2.57486e+09 2.57588e+09 2.57632e+09 0 0
205 1 0 2.58354e+09 2.5838e+09 2.58482e+09 2.58518e+09 1 1
206 2 0 2.59417e+09 2.59444e+09 2.59546e+09 2.59558e+09 0 0
207 2 1 2.6031e+09 2.60337e+09 2.60439e+09 2.60468e+09 1 1
208 2 0 2.60729e+09 2.60754e+09 2.60856e+09 2.60863e+09 0 0
209 2 1 2.63084e+09 2.63109e+09 2.63211e+09 2.6322e+09 1 1
210 2 0 2.64233e+09 2.64261e+09 2.64362e+09 2.64363e+09 0 0
211 2 0 2.6512e+09 2.65146e+09 2.65248e+09 2.65261e+09 1 0
212 2 0 2.65969e+09 2.65994e+09 2.66096e+09 2.661e+09 1 0
213 2 1 2.66836e+09 2.66861e+09 2.66963e+09 2.6697e+09 1 1
214 1 1 2.68125e+09 2.6815e+09 2.68252e+09 2.68348e+09 0 0
215 1 1 2.69067e+09 2.69092e+09 2.69194e+09 2.69226e+09 1 0
216 1 1 2.69993e+09 2.70019e+09 2.70121e+09 2.71796e+09 1 0
217 1 1 2.72545e+09 2.7257e+09 2.72672e+09 2.73329e+09 1 0
218 1 0 2.74702e+09 2.74727e+09 2.74829e+09 2.74924e+09 0 1
219 1 0 2.752e+09 2.75225e+09 2.75327e+09 2.75522e+09 0 1
220 1 1 2.75785e+09 2.75811e+09 2.75913e+09 2.76819e+09 0 0
221 1 1 2.77563e+09 2.77587e+09 2.77689e+09 2.7775e+09 1 0
222 1 1 2.78796e+09 2.78822e+09 2.78924e+09 2.78932e+09 1 0
223 1 0 2.79686e+09 2.7971e+09 2.79812e+09 2.7983e+09 1 1
224 1 1 2.8046e+09 2.80486e+09 2.80588e+09 2.80805e+09 0 0
225 1 1 2.81536e+09 2.81561e+09 2.81663e+09 2.83071e+09 1 0
226 1 0 2.83819e+09 2.83844e+09 2.83945e+09 2.84597e+09 1 1
227 1 0 2.85704e+09 2.8573e+09 2.85832e+09 2.85917e+09 0 1
228 1 0 2.86322e+09 2.86348e+09 2.8645e+09 2.86643e+09 0 1
229 1 1 2.86906e+09 2.86931e+09 2.87033e+09 2.87185e+09 0 0
230 1 0 2.87959e+09 2.87984e+09 2.88086e+09 2.88248e+09 1 1
231 2 1 2.88537e+09 2.88562e+09 2.88664e+09 2.88849e+09 0 1
232 2 1 2.89106e+09 2.89132e+09 2.89234e+09 2.89726e+09 0 1
233 2 1 2.89986e+09 2.90011e+09 2.90113e+09 2.90724e+09 0 1
234 1 1 2.91023e+09 2.91048e+09 2.9115e+09 2.93014e+09 0 0
235 1 1 2.93865e+09 2.93891e+09 2.93993e+09 2.94003e+09 1 0
236 1 1 2.95466e+09 2.95491e+09 2.95593e+09 2.95616e+09 1 0
237 1 1 2.9636e+09 2.96387e+09 2.96489e+09 2.96516e+09 1 0
238 1 1 2.97345e+09 2.97371e+09 2.97472e+09 2.98345e+09 0 0
239 1 0 2.9908e+09 2.99106e+09 2.99208e+09 2.99289e+09 0 1
240 2 1 2.99608e+09 2.99634e+09 2.99736e+09 3.0221e+09 0 1
241 1 0 3.02673e+09 3.02699e+09 3.02801e+09 3.03875e+09 0 1
242 1 0 3.04175e+09 3.042e+09 3.04302e+09 3.0432e+09 0 1
243 2 1 3.04607e+09 3.04632e+09 3.04734e+09 3.04783e+09 0 1
244 2 1 3.05035e+09 3.05061e+09 3.05163e+09 3.05169e+09 0 1
245 2 1 3.06268e+09 3.06293e+09 3.06395e+09 3.06457e+09 0 1
246 2 1 3.06709e+09 3.06736e+09 3.06838e+09 3.07117e+09 0 1
247 2 0 3.10253e+09 3.10279e+09 3.10381e+09 3.10384e+09 0 0
248 2 1 3.11309e+09 3.11334e+09 3.11436e+09 3.11448e+09 1 1
249 1 0 3.12235e+09 3.1226e+09 3.12362e+09 3.12369e+09 0 1
250 2 0 3.13302e+09 3.13327e+09 3.13429e+09 3.13449e+09 0 0
251 2 1 3.14187e+09 3.14213e+09 3.14315e+09 3.14405e+09 1 1
252 1 1 3.14669e+09 3.14695e+09 3.14797e+09 3.1511e+09 0 0
253 1 0 3.15906e+09 3.15932e+09 3.16034e+09 3.16055e+09 1 1
254 2 0 3.16531e+09 3.16555e+09 3.16657e+09 3.1667e+09 0 0
255 2 1 3.17759e+09 3.17784e+09 3.17886e+09 3.17887e+09 1 1
256 2 0 3.18612e+09 3.18639e+09 3.1874e+09 3.18743e+09 0 0
257 2 1 3.19509e+09 3.19535e+09 3.19637e+09 3.1989e+09 1 1
258 1 0 3.20642e+09 3.20667e+09 3.20769e+09 3.20841e+09 0 1
259 2 0 3.21391e+09 3.21416e+09 3.21518e+09 3.2152e+09 0 0
260 2 0 3.2226e+09 3.22285e+09 3.22387e+09 3.22399e+09 1 0
261 2 1 3.2406e+09 3.24086e+09 3.24188e+09 3.24209e+09 1 1
262 1 1 3.25405e+09 3.2543e+09 3.25532e+09 3.25539e+09 0 0
263 1 1 3.26256e+09 3.26282e+09 3.26384e+09 3.26397e+09 1 0
264 1 1 3.27301e+09 3.27326e+09 3.27428e+09 3.27429e+09 1 0
265 1 1 3.28349e+09 3.28375e+09 3.28477e+09 3.28481e+09 1 0
266 2 1 3.29256e+09 3.29281e+09 3.29383e+09 3.29466e+09 0 1
267 2 1 3.29923e+09 3.29949e+09 3.30051e+09 3.30898e+09 0 1
268 2 1 3.31176e+09 3.31202e+09 3.31304e+09 3.31319e+09 0 1
269 2 0 3.31593e+09 3.31618e+09 3.3172e+09 3.32019e+09 0 0
270 2 1 3.32726e+09 3.3275e+09 3.32852e+09 3.33229e+09 1 1
271 1 1 3.33574e+09 3.33599e+09 3.33701e+09 3.34173e+09 0 0
272 1 1 3.34878e+09 3.34903e+09 3.35005e+09 3.3501e+09 1 0
273 1 1 3.35999e+09 3.36025e+09 3.36127e+09 3.37001e+09 1 0
274 1 1 3.38309e+09 3.38334e+09 3.38436e+09 3.38724e+09 1 0
275 2 1 3.3944e+09 3.39467e+09 3.39569e+09 3.39575e+09 0 1
276 1 0 3.39948e+09 3.39974e+09 3.40076e+09 3.40734e+09 0 1
277 1 0 3.41172e+09 3.41199e+09 3.41301e+09 3.41837e+09 0 1
278 2 1 3.42185e+09 3.42209e+09 3.42311e+09 3.42549e+09 0 1
279 1 1 3.42835e+09 3.4286e+09 3.42962e+09 3.42969e+09 0 0
280 1 0 3.43828e+09 3.43854e+09 3.43956e+09 3.44304e+09 1 1
281 1 0 3.44603e+09 3.44628e+09 3.4473e+09 3.44771e+09 0 1
282 1 0 3.45061e+09 3.45087e+09 3.45188e+09 3.45229e+09 0 1
283 2 1 3.45488e+09 3.45513e+09 3.45615e+09 3.46274e+09 0 1
284 1 0 3.47917e+09 3.47942e+09 3.48044e+09 3.48054e+09 0 1
285 1 0 3.48682e+09 3.48707e+09 3.48809e+09 3.48811e+09 0 1
286 2 1 3.49504e+09 3.49529e+09 3.49631e+09 3.49725e+09 0 1
287 2 0 3.50155e+09 3.50181e+09 3.50283e+09 3.5029e+09 0 0
288 2 0 3.50999e+09 3.51024e+09 3.51126e+09 3.5114e+09 1 0
289 2 1 3.51882e+09 3.51906e+09 3.52008e+09 3.52012e+09 1 1
290 1 0 3.5244e+09 3.52467e+09 3.52569e+09 3.5257e+09 0 1
291 1 1 3.53355e+09 3.53381e+09 3.53483e+09 3.53623e+09 0 0
292 1 1 3.54456e+09 3.54481e+09 3.54583e+09 3.54587e+09 1 0
293 1 1 3.55296e+09 3.55321e+09 3.55423e+09 3.55424e+09 1 0
294 1 0 3.56609e+09 3.56634e+09 3.56736e+09 3.59927e+09 1 1
295 1 1 3.60672e+09 3.60697e+09 3.60799e+09 3.68653e+09 0 0
296 1 1 3.69367e+09 3.69392e+09 3.69494e+09 3.71079e+09 1 0
297 1 0 3.71809e+09 3.71835e+09 3.71936e+09 3.71941e+09 1 1
298 2 1 3.72226e+09 3.72251e+09 3.72353e+09 3.72359e+09 0 1
299 2 0 3.72642e+09 3.72667e+09 3.72769e+09 3.72817e+09 0 0
300 2 1 3.73721e+09 3.73747e+09 3.73849e+09 3.73857e+09 1 1
301 2 1 3.74309e+09 3.74334e+09 3.74436e+09 3.74474e+09 0 1
302 2 1 3.74749e+09 3.74774e+09 3.74876e+09 3.74879e+09 0 1
303 1 1 3.75145e+09 3.75172e+09 3.75274e+09 3.75388e+09 0 0
304 1 0 3.76237e+09 3.76261e+09 3.76363e+09 3.76366e+09 1 1
305 1 0 3.7666e+09 3.7669e+09 3.76792e+09 3.76801e+09 0 1
306 1 1 3.7734e+09 3.77365e+09 3.77467e+09 3.77481e+09 0 0
307 1 0 3.78747e+09 3.78773e+09 3.78875e+09 3.78877e+09 1 1
308 1 1 3.79467e+09 3.79493e+09 3.79595e+09 3.79646e+09 0 0
309 1 0 3.80394e+09 3.80419e+09 3.80521e+09 3.80523e+09 1 1
310 2 0 3.81308e+09 3.81334e+09 3.81436e+09 3.81444e+09 0 0
311 2 1 3.82423e+09 3.82449e+09 3.82551e+09 3.82556e+09 1 1
312 1 1 3.82924e+09 3.82948e+09 3.8305e+09 3.83232e+09 0 0
313 1 0 3.84041e+09 3.84068e+09 3.8417e+09 3.84172e+09 1 1
314 2 0 3.84523e+09 3.84547e+09 3.84649e+09 3.85055e+09 0 0
315 2 1 3.85776e+09 3.85802e+09 3.85904e+09 3.86391e+09 1 1
316 2 1 3.87053e+09 3.87078e+09 3.8718e+09 3.87198e+09 0 1
317 2 0 3.87623e+09 3.87649e+09 3.8775e+09 3.87757e+09 0 0
318 2 1 3.88548e+09 3.88574e+09 3.88676e+09 3.88683e+09 1 1
319 1 0 3.89174e+09 3.892e+09 3.89302e+09 3.89311e+09 0 1
320 2 0 3.8982e+09 3.89846e+09 3.89948e+09 3.90002e+09 0 0
321 2 0 3.90751e+09 3.90776e+09 3.90878e+09 3.90917e+09 1 0
322 2 1 3.91645e+09 3.91669e+09 3.91771e+09 3.91775e+09 1 1
323 1 0 3.92041e+09 3.92067e+09 3.92169e+09 3.92173e+09 0 1
324 1 1 3.92553e+09 3.92579e+09 3.92681e+09 3.9272e+09 0 0
325 1 1 3.93446e+09 3.93471e+09 3.93573e+09 3.93585e+09 1 0
326 1 0 3.94437e+09 3.94462e+09 3.94564e+09 3.94628e+09 1 1
327 1 1 3.94893e+09 3.94919e+09 3.95021e+09 3.95092e+09 0 0
328 1 1 3.95859e+09 3.95883e+09 3.95985e+09 3.96689e+09 1 0
329 1 1 3.97478e+09 3.97504e+09 3.97606e+09 3.98648e+09 1 0
330 1 1 3.99713e+09 3.99737e+09 3.99839e+09 4.01363e+09 1 0
331 1 1 4.02082e+09 4.02108e+09 4.0221e+09 4.03074e+09 0 0
332 1 0 4.03822e+09 4.03848e+09 4.0395e+09 4.06078e+09 0 1
333 2 1 4.06372e+09 4.06397e+09 4.06499e+09 4.06563e+09 0 1
334 1 0 4.06845e+09 4.06871e+09 4.06973e+09 4.07738e+09 0 1
335 1 1 4.08028e+09 4.08053e+09 4.08155e+09 4.08169e+09 0 0
336 1 0 4.0908e+09 4.09105e+09 4.09207e+09 4.09934e+09 1 1
337 2 0 4.10384e+09 4.10409e+09 4.10511e+09 4.10719e+09 0 0
338 2 0 4.11467e+09 4.11492e+09 4.11594e+09 4.20309e+09 1 0
