trial trialType response stillTime stimOnset stimOffset respTime correctionTrial correct
001 1 1 8.31387e+06 8.64058e+06 9.66018e+06 1.03318e+07 0 0
002 1 0 1.76159e+07 1.78888e+07 1.89084e+07 2.44477e+07 1 1
003 1 0 2.8159e+07 2.84519e+07 2.94715e+07 4.30502e+07 0 1
004 1 0 4.70569e+07 4.73224e+07 4.8342e+07 4.96108e+07 0 1
005 2 1 5.67583e+07 5.70286e+07 5.80482e+07 5.8108e+07 0 1
006 2 1 6.10038e+07 6.12647e+07 6.22843e+07 6.35663e+07 0 1
007 1 1 7.4494e+07 7.4757e+07 7.57766e+07 7.61966e+07 0 0
008 1 1 8.4734e+07 8.49861e+07 8.60057e+07 8.60803e+07 1 0
009 1 0 9.35332e+07 9.37898e+07 9.48094e+07 9.98174e+07 1 1
010 2 0 1.02742e+08 1.03019e+08 1.04039e+08 1.06818e+08 0 0
011 2 0 1.15044e+08 1.15309e+08 1.16329e+08 1.19782e+08 1 0
012 2 1 1.27032e+08 1.27285e+08 1.28305e+08 1.28688e+08 1 1
013 1 0 1.36323e+08 1.36583e+08 1.37602e+08 1.4093e+08 0 1
014 2 1 1.44309e+08 1.44562e+08 1.45581e+08 1.47064e+08 0 1
015 1 1 1.5432e+08 1.54587e+08 1.55606e+08 1.58621e+08 0 0
016 1 0 1.65667e+08 1.65928e+08 1.66948e+08 1.81442e+08 1 1
017 2 1 1.91076e+08 1.91328e+08 1.92347e+08 1.94415e+08 0 1
018 1 1 1.97843e+08 1.98093e+08 1.99112e+08 1.99916e+08 0 0
019 1 1 2.09441e+08 2.097e+08 2.10719e+08 2.1144e+08 1 0
020 1 0 2.19862e+08 2.20111e+08 2.21131e+08 2.21291e+08 1 1
021 1 1 2.25392e+08 2.25642e+08 2.26662e+08 2.26801e+08 0 0
022 1 1 2.34009e+08 2.34267e+08 2.35286e+08 2.35725e+08 1 0
023 1 1 2.45249e+08 2.45508e+08 2.46528e+08 2.46748e+08 1 0
024 1 1 2.5514e+08 2.55391e+08 2.5641e+08 2.56427e+08 1 0
025 2 0 2.6357e+08 2.63827e+08 2.64847e+08 2.64889e+08 0 0
026 2 1 2.74138e+08 2.74404e+08 2.75423e+08 2.7946e+08 0 1
027 2 1 2.83743e+08 2.83993e+08 2.85013e+08 2.88723e+08 0 1
028 2 1 2.97518e+08 2.9777e+08 2.9879e+08 2.98856e+08 0 1
029 2 1 3.03806e+08 3.04079e+08 3.05098e+08 3.05167e+08 0 1
030 2 1 3.12007e+08 3.1226e+08 3.13279e+08 3.14072e+08 0 1
031 1 0 3.19382e+08 3.1964e+08 3.20659e+08 3.2136e+08 0 1
032 1 1 3.41478e+08 3.41749e+08 3.42769e+08 3.43243e+08 0 0
033 1 1 3.51929e+08 3.52187e+08 3.53206e+08 3.53365e+08 1 0
034 1 0 3.61977e+08 3.62238e+08 3.63258e+08 3.64942e+08 1 1
035 2 1 3.76067e+08 3.76324e+08 3.77344e+08 3.78055e+08 0 1
036 1 1 3.85006e+08 3.85265e+08 3.86284e+08 3.86408e+08 0 0
037 1 1 3.93929e+08 3.9418e+08 3.952e+08 3.95295e+08 1 0
038 1 1 4.03767e+08 4.0403e+08 4.05049e+08 4.05679e+08 1 0
039 1 1 4.12796e+08 4.13053e+08 4.14072e+08 4.15145e+08 1 0
040 2 1 4.2256e+08 4.22822e+08 4.23842e+08 4.27205e+08 0 1
041 1 1 4.30253e+08 4.30509e+08 4.31528e+08 4.31576e+08 0 0
042 1 1 4.42324e+08 4.42582e+08 4.43601e+08 4.60879e+08 1 0
043 1 1 4.68304e+08 4.68566e+08 4.69585e+08 4.75744e+08 1 0
044 1 1 4.83114e+08 4.83371e+08 4.84391e+08 5.01601e+08 1 0
045 2 0 5.09382e+08 5.09633e+08 5.10653e+08 5.40756e+08 0 0
046 1 0 5.48102e+08 5.48359e+08 5.49379e+08 5.49461e+08 0 1
047 1 0 5.5216e+08 5.52428e+08 5.53447e+08 5.5482e+08 0 1
048 2 0 5.5748e+08 5.57741e+08 5.5876e+08 5.5885e+08 0 0
049 2 0 5.6608e+08 5.6634e+08 5.67359e+08 5.67684e+08 1 0
050 2 1 5.75074e+08 5.75329e+08 5.76348e+08 5.77059e+08 1 1
051 2 0 5.80192e+08 5.80444e+08 5.81463e+08 5.82174e+08 0 0
052 2 0 5.90203e+08 5.90463e+08 5.91483e+08 5.93733e+08 1 0
053 2 0 6.0178e+08 6.02034e+08 6.03054e+08 6.04939e+08 1 0
054 2 1 6.12492e+08 6.12748e+08 6.13767e+08 6.17396e+08 1 1
055 2 0 6.20055e+08 6.2031e+08 6.21329e+08 6.21672e+08 0 0
056 2 0 6.29208e+08 6.29457e+08 6.30476e+08 6.30766e+08 1 0
057 2 0 6.41208e+08 6.41471e+08 6.42491e+08 6.48842e+08 1 0
058 2 1 6.57472e+08 6.57732e+08 6.58751e+08 6.58873e+08 1 1
059 2 1 6.65197e+08 6.65454e+08 6.66473e+08 6.66742e+08 0 1
060 1 0 6.76909e+08 6.77152e+08 6.78171e+08 6.78576e+08 0 1
061 1 1 6.84184e+08 6.84445e+08 6.85465e+08 6.87823e+08 0 0
062 1 0 6.96286e+08 6.96549e+08 6.97568e+08 7.1724e+08 1 1
063 1 0 7.19853e+08 7.20105e+08 7.21125e+08 7.23423e+08 0 1
064 2 1 7.27029e+08 7.27282e+08 7.28302e+08 7.29076e+08 0 1
065 2 0 7.38173e+08 7.38433e+08 7.39452e+08 7.40127e+08 0 0
066 2 1 7.5085e+08 7.51105e+08 7.52125e+08 7.56125e+08 1 1
067 1 1 7.5961e+08 7.59869e+08 7.60888e+08 7.87276e+08 0 0
068 1 0 7.94726e+08 7.94977e+08 7.95997e+08 7.96017e+08 1 1
069 1 1 7.99602e+08 7.99867e+08 8.00886e+08 8.02899e+08 0 0
070 1 0 8.10367e+08 8.10628e+08 8.11648e+08 8.14614e+08 1 1
071 1 0 8.17947e+08 8.18207e+08 8.19227e+08 8.29981e+08 0 1
072 2 1 8.35192e+08 8.3545e+08 8.3647e+08 8.38515e+08 0 1
073 2 1 8.42694e+08 8.42943e+08 8.43963e+08 8.44435e+08 0 1
074 2 1 8.48109e+08 8.48355e+08 8.49375e+08 8.51368e+08 0 1
075 2 0 8.62505e+08 8.62772e+08 8.63792e+08 8.73876e+08 0 0
076 2 1 8.81752e+08 8.82005e+08 8.83024e+08 8.83122e+08 1 1
077 1 1 8.85692e+08 8.85938e+08 8.86958e+08 8.87225e+08 0 0
078 1 0 8.94296e+08 8.94557e+08 8.95577e+08 8.95633e+08 1 1
079 1 1 9.00646e+08 9.00906e+08 9.01926e+08 9.02035e+08 0 0
080 1 0 9.10833e+08 9.11085e+08 9.12104e+08 9.14262e+08 1 1
081 2 0 9.19811e+08 9.20065e+08 9.21085e+08 9.22476e+08 0 0
082 2 1 9.30473e+08 9.30728e+08 9.31748e+08 9.32965e+08 1 1
083 2 0 9.41415e+08 9.41666e+08 9.42686e+08 9.5217e+08 0 0
084 2 1 9.59201e+08 9.59456e+08 9.60476e+08 9.60661e+08 1 1
085 2 0 9.63252e+08 9.63507e+08 9.64527e+08 9.6467e+08 0 0
086 2 1 9.73037e+08 9.73292e+08 9.74312e+08 9.74412e+08 1 1
087 1 0 9.79078e+08 9.79336e+08 9.80355e+08 9.80625e+08 0 1
088 1 0 9.88246e+08 9.88492e+08 9.89512e+08 9.89583e+08 0 1
089 2 1 9.92504e+08 9.9277e+08 9.93789e+08 9.93998e+08 0 1
090 1 0 1.00158e+09 1.00184e+09 1.00286e+09 1.00288e+09 0 1
091 2 0 1.00726e+09 1.0075e+09 1.00852e+09 1.01239e+09 0 0
092 2 0 1.01976e+09 1.02002e+09 1.02104e+09 1.02134e+09 1 0
093 2 1 1.02838e+09 1.02862e+09 1.02964e+09 1.0366e+09 1 1
094 1 1 1.04143e+09 1.04169e+09 1.04271e+09 1.04307e+09 0 0
095 1 1 1.05383e+09 1.05409e+09 1.05511e+09 1.06148e+09 1 0
096 1 0 1.06858e+09 1.06884e+09 1.06986e+09 1.07329e+09 1 1
097 1 1 1.07608e+09 1.07634e+09 1.07736e+09 1.07792e+09 0 0
098 1 1 1.08584e+09 1.08609e+09 1.08711e+09 1.09203e+09 1 0
099 1 0 1.10069e+09 1.10095e+09 1.10196e+09 1.10681e+09 1 1
100 2 0 1.10953e+09 1.10979e+09 1.11081e+09 1.11112e+09 0 0
101 2 1 1.11862e+09 1.11888e+09 1.1199e+09 1.11992e+09 1 1
102 1 0 1.12523e+09 1.12549e+09 1.12651e+09 1.12667e+09 0 1
103 1 1 1.13214e+09 1.1324e+09 1.13342e+09 1.14289e+09 0 0
104 1 1 1.15025e+09 1.15051e+09 1.15153e+09 1.15181e+09 1 0
105 1 1 1.16185e+09 1.1621e+09 1.16312e+09 1.16314e+09 1 0
106 1 1 1.17053e+09 1.17079e+09 1.17181e+09 1.1751e+09 1 0
107 1 0 1.18566e+09 1.18593e+09 1.18695e+09 1.19134e+09 0 1
108 2 0 1.19421e+09 1.19448e+09 1.1955e+09 1.1956e+09 0 0
109 2 0 1.20292e+09 1.20319e+09 1.20421e+09 1.20433e+09 1 0
110 2 0 1.21176e+09 1.21202e+09 1.21303e+09 1.21595e+09 1 0
111 2 1 1.22887e+09 1.22913e+09 1.23015e+09 1.23021e+09 1 1
112 1 0 1.2341e+09 1.23436e+09 1.23538e+09 1.24516e+09 0 1
113 1 1 1.24917e+09 1.24942e+09 1.25044e+09 1.25056e+09 0 0
114 1 0 1.25942e+09 1.25967e+09 1.26069e+09 1.26086e+09 1 1
115 1 1 1.26478e+09 1.26504e+09 1.26606e+09 1.26618e+09 0 0
116 1 1 1.27477e+09 1.27504e+09 1.27606e+09 1.27609e+09 1 0
117 1 0 1.28358e+09 1.28383e+09 1.28485e+09 1.28494e+09 1 1
118 2 1 1.28802e+09 1.28829e+09 1.28931e+09 1.28943e+09 0 1
119 2 0 1.29946e+09 1.29971e+09 1.30073e+09 1.30118e+09 0 0
120 2 0 1.31236e+09 1.31261e+09 1.31363e+09 1.3152e+09 1 0
121 2 1 1.32395e+09 1.32421e+09 1.32523e+09 1.32559e+09 1 1
122 1 0 1.33414e+09 1.33439e+09 1.33541e+09 1.33553e+09 0 1
123 1 0 1.34122e+09 1.34148e+09 1.3425e+09 1.34258e+09 0 1
124 1 1 1.34926e+09 1.34951e+09 1.35052e+09 1.35069e+09 0 0
125 1 0 1.35999e+09 1.36024e+09 1.36126e+09 1.36151e+09 1 1
126 2 1 1.36594e+09 1.3662e+09 1.36722e+09 1.38325e+09 0 1
127 2 1 1.38607e+09 1.38632e+09 1.38734e+09 1.38751e+09 0 1
128 2 1 1.39022e+09 1.39048e+09 1.3915e+09 1.39157e+09 0 1
129 1 0 1.39852e+09 1.39878e+09 1.3998e+09 1.39999e+09 0 1
130 1 0 1.40333e+09 1.40358e+09 1.4046e+09 1.41029e+09 0 1
131 1 0 1.41438e+09 1.41464e+09 1.41565e+09 1.41666e+09 0 1
132 2 0 1.41951e+09 1.41977e+09 1.42079e+09 1.42142e+09 0 0
133 2 0 1.42853e+09 1.42879e+09 1.42981e+09 1.43003e+09 1 0
134 2 1 1.4428e+09 1.44306e+09 1.44408e+09 1.44894e+09 1 1
135 1 0 1.45169e+09 1.45194e+09 1.45296e+09 1.45307e+09 0 1
136 2 0 1.45711e+09 1.45737e+09 1.45838e+09 1.45842e+09 0 0
137 2 1 1.46653e+09 1.4668e+09 1.46782e+09 1.46785e+09 1 1
138 2 1 1.47131e+09 1.47157e+09 1.47259e+09 1.47301e+09 0 1
139 1 1 1.4776e+09 1.47785e+09 1.47887e+09 1.47904e+09 0 0
140 1 1 1.49967e+09 1.49992e+09 1.50094e+09 1.50154e+09 1 0
141 1 1 1.50866e+09 1.5089e+09 1.50992e+09 1.51873e+09 1 0
142 1 1 1.5261e+09 1.52636e+09 1.52738e+09 1.52747e+09 1 0
143 1 0 1.5348e+09 1.53505e+09 1.53607e+09 1.53655e+09 0 1
144 1 0 1.53909e+09 1.53936e+09 1.54038e+09 1.5404e+09 0 1
145 1 0 1.54374e+09 1.54399e+09 1.54501e+09 1.54508e+09 0 1
146 2 1 1.54995e+09 1.55021e+09 1.55123e+09 1.55134e+09 0 1
147 2 0 1.55604e+09 1.5563e+09 1.55731e+09 1.56992e+09 0 0
148 2 0 1.5784e+09 1.57867e+09 1.57969e+09 1.58495e+09 1 0
149 2 0 1.59232e+09 1.59258e+09 1.5936e+09 1.5993e+09 1 0
150 2 0 1.60634e+09 1.6066e+09 1.60762e+09 1.60763e+09 1 0
151 2 1 1.61954e+09 1.61979e+09 1.62081e+09 1.62226e+09 0 1
152 2 0 1.62501e+09 1.62526e+09 1.62628e+09 1.62655e+09 0 0
153 2 0 1.63447e+09 1.63474e+09 1.63576e+09 1.6366e+09 1 0
154 2 0 1.64545e+09 1.6457e+09 1.64672e+09 1.70403e+09 1 0
155 2 0 1.71152e+09 1.71177e+09 1.71279e+09 1.78389e+09 1 0
156 2 0 1.79119e+09 1.79144e+09 1.79246e+09 1.81005e+09 0 0
157 1 0 1.81743e+09 1.81769e+09 1.81871e+09 1.82585e+09 0 1
158 2 1 1.83784e+09 1.83809e+09 1.83911e+09 1.83942e+09 0 1
159 1 0 1.8507e+09 1.85096e+09 1.85198e+09 1.85208e+09 0 1
160 2 1 1.85783e+09 1.85807e+09 1.85909e+09 1.85918e+09 0 1
161 1 0 1.86392e+09 1.86418e+09 1.8652e+09 1.86531e+09 0 1
162 1 1 1.86927e+09 1.86952e+09 1.87054e+09 1.87083e+09 0 0
163 1 0 1.87818e+09 1.87844e+09 1.87946e+09 1.87951e+09 1 1
164 2 1 1.88228e+09 1.88253e+09 1.88355e+09 1.88762e+09 0 1
165 2 0 1.89299e+09 1.89325e+09 1.89427e+09 1.89434e+09 0 0
166 2 0 1.90357e+09 1.90383e+09 1.90485e+09 1.90486e+09 1 0
167 2 0 1.91212e+09 1.91238e+09 1.9134e+09 1.91365e+09 1 0
168 2 0 1.92103e+09 1.9213e+09 1.92232e+09 1.9225e+09 1 0
169 1 0 1.931e+09 1.93126e+09 1.93227e+09 1.94426e+09 0 1
170 1 0 1.9484e+09 1.94865e+09 1.94967e+09 1.95008e+09 0 1
171 2 0 1.95402e+09 1.95427e+09 1.95529e+09 1.95552e+09 0 0
172 2 1 1.96682e+09 1.96707e+09 1.96809e+09 1.97117e+09 1 1
173 2 0 1.97731e+09 1.9776e+09 1.97862e+09 1.98153e+09 0 0
174 2 0 1.98879e+09 1.98904e+09 1.99006e+09 1.99021e+09 1 0
175 2 1 1.9976e+09 1.99786e+09 1.99887e+09 1.999e+09 1 1
176 2 0 2.00457e+09 2.00482e+09 2.00584e+09 2.02503e+09 0 0
177 2 1 2.03233e+09 2.03259e+09 2.03361e+09 2.04015e+09 1 1
178 1 1 2.04844e+09 2.0487e+09 2.04972e+09 2.05386e+09 0 0
179 1 1 2.06101e+09 2.06127e+09 2.06229e+09 2.09257e+09 1 0
180 1 0 2.10028e+09 2.10053e+09 2.10155e+09 2.10197e+09 1 1
181 1 0 2.10767e+09 2.10794e+09 2.10896e+09 2.13169e+09 0 1
182 2 0 2.13913e+09 2.13939e+09 2.14041e+09 2.15029e+09 0 0
183 2 0 2.15866e+09 2.15891e+09 2.15993e+09 2.1609e+09 1 0
184 2 1 2.16847e+09 2.16873e+09 2.16975e+09 2.16993e+09 1 1
185 1 1 2.17269e+09 2.17295e+09 2.17397e+09 2.17399e+09 0 0
186 1 0 2.18141e+09 2.18166e+09 2.18268e+09 2.19444e+09 1 1
187 2 1 2.19742e+09 2.19768e+09 2.1987e+09 2.19926e+09 0 1
188 1 0 2.20402e+09 2.20428e+09 2.2053e+09 2.22388e+09 0 1
189 1 1 2.22649e+09 2.22675e+09 2.22777e+09 2.23087e+09 0 0
190 1 1 2.23833e+09 2.2386e+09 2.23962e+09 2.24052e+09 1 0
191 1 0 2.2477e+09 2.24796e+09 2.24898e+09 2.25347e+09 1 1
192 1 1 2.25654e+09 2.2568e+09 2.25782e+09 2.25796e+09 0 0
193 1 1 2.26522e+09 2.26548e+09 2.2665e+09 2.27464e+09 1 0
194 1 0 2.2821e+09 2.28235e+09 2.28337e+09 2.29247e+09 1 1
195 1 1 2.2951e+09 2.29534e+09 2.29636e+09 2.29645e+09 0 0
196 1 1 2.30353e+09 2.30378e+09 2.3048e+09 2.32611e+09 1 0
197 1 0 2.33404e+09 2.3343e+09 2.33532e+09 2.33702e+09 1 1
198 2 0 2.33955e+09 2.33981e+09 2.34083e+09 2.34804e+09 0 0
199 2 1 2.35959e+09 2.35984e+09 2.36086e+09 2.36406e+09 1 1
200 2 1 2.36721e+09 2.36746e+09 2.36848e+09 2.37355e+09 0 1
201 2 1 2.37681e+09 2.37707e+09 2.37809e+09 2.38152e+09 0 1
202 2 1 2.38578e+09 2.38605e+09 2.38707e+09 2.38712e+09 0 1
203 2 0 2.39017e+09 2.39042e+09 2.39144e+09 2.39145e+09 0 0
204 2 0 2.39958e+09 2.39982e+09 2.40084e+09 2.41285e+09 1 0
205 2 1 2.42008e+09 2.42034e+09 2.42136e+09 2.42926e+09 1 1
206 1 0 2.43243e+09 2.43268e+09 2.4337e+09 2.43383e+09 0 1
207 2 1 2.43748e+09 2.43775e+09 2.43877e+09 2.43933e+09 0 1
208 1 0 2.44282e+09 2.44306e+09 2.44408e+09 2.44783e+09 0 1
209 2 1 2.45166e+09 2.45192e+09 2.45294e+09 2.45325e+09 0 1
210 1 1 2.45697e+09 2.45724e+09 2.45826e+09 2.45858e+09 0 0
211 1 1 2.47042e+09 2.47067e+09 2.47169e+09 2.4892e+09 1 0
212 1 1 2.49628e+09 2.49654e+09 2.49756e+09 2.51211e+09 1 0
213 1 0 2.51947e+09 2.51972e+09 2.52074e+09 2.52135e+09 1 1
214 1 0 2.52405e+09 2.52431e+09 2.52533e+09 2.52812e+09 0 1
215 1 0 2.53511e+09 2.53537e+09 2.53639e+09 2.53698e+09 0 1
216 2 0 2.53968e+09 2.53994e+09 2.54096e+09 2.54391e+09 0 0
217 2 0 2.55206e+09 2.55231e+09 2.55333e+09 2.55353e+09 1 0
218 2 1 2.56257e+09 2.56282e+09 2.56384e+09 2.5886e+09 1 1
219 1 0 2.59462e+09 2.59488e+09 2.5959e+09 2.59695e+09 0 1
220 1 1 2.60011e+09 2.60037e+09 2.60139e+09 2.60214e+09 0 0
221 1 0 2.6095e+09 2.60976e+09 2.61078e+09 2.61103e+09 1 1
222 2 0 2.6145e+09 2.61475e+09 2.61577e+09 2.61612e+09 0 0
223 2 0 2.62366e+09 2.62391e+09 2.62493e+09 2.63297e+09 1 0
224 2 0 2.64029e+09 2.64054e+09 2.64156e+09 2.64807e+09 1 0
225 2 0 2.65618e+09 2.65644e+09 2.65746e+09 2.66563e+09 1 0
226 2 0 2.67316e+09 2.67342e+09 2.67444e+09 2.7138e+09 0 0
227 1 0 2.72127e+09 2.72153e+09 2.72255e+09 2.72741e+09 0 1
228 1 0 2.73023e+09 2.73049e+09 2.73151e+09 2.73154e+09 0 1
229 2 1 2.73486e+09 2.7351e+09 2.73612e+09 2.73616e+09 0 1
230 2 0 2.73999e+09 2.74025e+09 2.74127e+09 2.74152e+09 0 0
231 2 0 2.74894e+09 2.74918e+09 2.7502e+09 2.75041e+09 1 0
232 2 0 2.75762e+09 2.75788e+09 2.7589e+09 2.75964e+09 1 0
233 2 0 2.76694e+09 2.76719e+09 2.76821e+09 2.80028e+09 1 0
234 2 0 2.80784e+09 2.8081e+09 2.80912e+09 2.83543e+09 0 0
235 2 0 2.84308e+09 2.84334e+09 2.84436e+09 2.84655e+09 0 0
236 1 0 2.85393e+09 2.85418e+09 2.8552e+09 2.86383e+09 0 1
237 1 1 2.86676e+09 2.86701e+09 2.86803e+09 2.87648e+09 0 0
238 1 0 2.88352e+09 2.88378e+09 2.8848e+09 2.88615e+09 1 1
239 1 0 2.88886e+09 2.88912e+09 2.89014e+09 2.8902e+09 0 1
240 1 1 2.89298e+09 2.89323e+09 2.89425e+09 2.89913e+09 0 0
241 1 0 2.90635e+09 2.90661e+09 2.90763e+09 2.92593e+09 1 1
242 2 0 2.92888e+09 2.92914e+09 2.93016e+09 2.9313e+09 0 0
243 2 0 2.93967e+09 2.93992e+09 2.94094e+09 2.97829e+09 1 0
244 2 0 2.98638e+09 2.98663e+09 2.98765e+09 3.01806e+09 1 0
245 2 0 3.02556e+09 3.02582e+09 3.02684e+09 3.03051e+09 1 0
246 2 0 3.0376e+09 3.03785e+09 3.03887e+09 3.04008e+09 0 0
247 1 0 3.04735e+09 3.0476e+09 3.04862e+09 3.05927e+09 0 1
248 2 1 3.06197e+09 3.06223e+09 3.06325e+09 3.06934e+09 0 1
249 2 1 3.07273e+09 3.07299e+09 3.07401e+09 3.1055e+09 0 1
250 1 0 3.10928e+09 3.10955e+09 3.11057e+09 3.12365e+09 0 1
251 2 0 3.12758e+09 3.12783e+09 3.12885e+09 3.1707e+09 0 0
252 2 1 3.17787e+09 3.17813e+09 3.17915e+09 3.19015e+09 1 1
253 2 0 3.19543e+09 3.1957e+09 3.19672e+09 3.19815e+09 0 0
254 2 0 3.20607e+09 3.20634e+09 3.20736e+09 3.20904e+09 1 0
255 2 0 3.21622e+09 3.21649e+09 3.21751e+09 3.22329e+09 1 0
256 2 0 3.23066e+09 3.23092e+09 3.23194e+09 3.23826e+09 1 0
257 1 0 3.24556e+09 3.24583e+09 3.24685e+09 3.2537e+09 0 1
258 2 0 3.25687e+09 3.25712e+09 3.25814e+09 3.25965e+09 0 0
259 2 0 3.26683e+09 3.26708e+09 3.2681e+09 3.27765e+09 1 0
260 2 1 3.2871e+09 3.28736e+09 3.28838e+09 3.30032e+09 1 1
261 1 1 3.30439e+09 3.30466e+09 3.30568e+09 3.30584e+09 0 0
262 1 1 3.31314e+09 3.3134e+09 3.31442e+09 3.31731e+09 1 0
263 1 1 3.32435e+09 3.32462e+09 3.32564e+09 3.43711e+09 1 0
264 1 0 3.44432e+09 3.44457e+09 3.44559e+09 3.44841e+09 1 1
265 1 0 3.4542e+09 3.45446e+09 3.45548e+09 3.46486e+09 0 1
266 1 0 3.46761e+09 3.46786e+09 3.46888e+09 3.48374e+09 0 1
267 2 0 3.48716e+09 3.48742e+09 3.48844e+09 3.50257e+09 0 0
268 2 0 3.51065e+09 3.51091e+09 3.51193e+09 3.5134e+09 1 0
269 2 0 3.52068e+09 3.52093e+09 3.52195e+09 3.52518e+09 1 0
270 2 1 3.53226e+09 3.53251e+09 3.53353e+09 3.5507e+09 1 1
271 1 1 3.55733e+09 3.55759e+09 3.55861e+09 3.56242e+09 0 0
272 1 1 3.56947e+09 3.56972e+09 3.57074e+09 3.58158e+09 1 0
273 1 1 3.58929e+09 3.58955e+09 3.59057e+09 3.59076e+09 1 0
274 1 1 3.59804e+09 3.59829e+09 3.59931e+09 3.60485e+09 1 0
275 2 0 3.61201e+09 3.61228e+09 3.6133e+09 3.71727e+09 0 0
