trial trialType response stillTime stimOnset stimOffset respTime correctionTrial correct
001 2 0 1.02032e+07 1.05227e+07 1.15423e+07 1.84842e+07 0 99
002 3 1 2.34394e+07 2.37068e+07 2.47264e+07 2.55327e+07 0 99
003 5 1 3.11061e+07 3.13918e+07 3.24114e+07 3.25895e+07 0 1
004 5 1 3.79607e+07 3.82142e+07 3.92338e+07 3.95214e+07 0 1
005 3 1 5.09553e+07 5.12123e+07 5.22319e+07 5.23305e+07 0 99
006 1 1 5.70122e+07 5.729e+07 5.83096e+07 6.27371e+07 0 0
007 1 0 6.99843e+07 7.02364e+07 7.1256e+07 7.77827e+07 1 1
008 1 0 8.07783e+07 8.10361e+07 8.20557e+07 8.2308e+07 0 1
009 5 1 8.50207e+07 8.52879e+07 8.63075e+07 8.65556e+07 0 1
010 1 0 8.96092e+07 8.98784e+07 9.0898e+07 9.09199e+07 0 1
011 1 0 9.3526e+07 9.38034e+07 9.48229e+07 9.49759e+07 0 1
012 3 1 1.02269e+08 1.02544e+08 1.03563e+08 1.03582e+08 0 99
013 1 0 1.07326e+08 1.07595e+08 1.08615e+08 1.08665e+08 0 1
014 3 1 1.32544e+08 1.32806e+08 1.33826e+08 1.33871e+08 0 99
015 5 0 1.40064e+08 1.40328e+08 1.41347e+08 1.5007e+08 0 0
016 5 1 1.59627e+08 1.59877e+08 1.60897e+08 1.60951e+08 1 1
017 4 1 1.63681e+08 1.63938e+08 1.64958e+08 1.65018e+08 0 99
018 2 0 1.7282e+08 1.73075e+08 1.74094e+08 1.74579e+08 0 99
019 1 0 1.77963e+08 1.78226e+08 1.79245e+08 1.79468e+08 0 1
020 4 1 1.83595e+08 1.83856e+08 1.84876e+08 1.84962e+08 0 99
021 1 0 1.87826e+08 1.88083e+08 1.89102e+08 1.89492e+08 0 1
022 2 0 1.94704e+08 1.94962e+08 1.95981e+08 1.96233e+08 0 99
023 1 0 1.99114e+08 1.99385e+08 2.00404e+08 2.00681e+08 0 1
024 4 1 2.03226e+08 2.03493e+08 2.04513e+08 2.10577e+08 0 99
025 5 1 2.13807e+08 2.14083e+08 2.15103e+08 2.15128e+08 0 1
026 1 0 2.17814e+08 2.18083e+08 2.19103e+08 2.1921e+08 0 1
027 5 0 2.25194e+08 2.25459e+08 2.26478e+08 2.27074e+08 0 0
028 5 1 2.35445e+08 2.35706e+08 2.36726e+08 2.37126e+08 1 1
029 1 1 2.39764e+08 2.40018e+08 2.41037e+08 2.41092e+08 0 0
030 1 1 2.49193e+08 2.49462e+08 2.50482e+08 2.50712e+08 1 0
031 1 0 2.58429e+08 2.58681e+08 2.59701e+08 2.60182e+08 1 1
032 5 1 2.63873e+08 2.64146e+08 2.65166e+08 2.65212e+08 0 1
033 2 0 2.71648e+08 2.71914e+08 2.72933e+08 2.77038e+08 0 99
034 5 0 2.80022e+08 2.80284e+08 2.81304e+08 2.84161e+08 0 0
035 5 1 2.92165e+08 2.92417e+08 2.93436e+08 2.93598e+08 1 1
036 1 0 3.01816e+08 3.02074e+08 3.03094e+08 3.03258e+08 0 1
037 5 1 3.05848e+08 3.06106e+08 3.07126e+08 3.07142e+08 0 1
038 5 0 3.09824e+08 3.10098e+08 3.11117e+08 3.2081e+08 0 0
039 5 1 3.31892e+08 3.32143e+08 3.33163e+08 3.33317e+08 1 1
040 1 0 3.36452e+08 3.36706e+08 3.37726e+08 3.37905e+08 0 1
041 1 0 3.40566e+08 3.40819e+08 3.41838e+08 3.42095e+08 0 1
042 5 1 3.44804e+08 3.45072e+08 3.46092e+08 3.46187e+08 0 1
043 5 1 3.49314e+08 3.49571e+08 3.5059e+08 3.50612e+08 0 1
044 1 0 3.53292e+08 3.53553e+08 3.54573e+08 3.54992e+08 0 1
045 4 1 3.5829e+08 3.58542e+08 3.59561e+08 3.59705e+08 0 99
046 2 1 3.62412e+08 3.62672e+08 3.63692e+08 3.63705e+08 0 99
047 5 1 3.66618e+08 3.66879e+08 3.67899e+08 3.77782e+08 0 1
048 1 0 3.84231e+08 3.8451e+08 3.85529e+08 3.92746e+08 0 1
049 1 0 3.95427e+08 3.95701e+08 3.96721e+08 3.97093e+08 0 1
050 5 1 4.00546e+08 4.00801e+08 4.01821e+08 4.01971e+08 0 1
051 5 1 4.08016e+08 4.08268e+08 4.09288e+08 4.0932e+08 0 1
052 2 1 4.14743e+08 4.15009e+08 4.16029e+08 4.16044e+08 0 99
053 4 0 4.19277e+08 4.1954e+08 4.20559e+08 4.31282e+08 0 99
054 1 0 4.34032e+08 4.34296e+08 4.35315e+08 4.35595e+08 0 1
055 4 1 4.38562e+08 4.38825e+08 4.39845e+08 4.39911e+08 0 99
056 3 1 4.46188e+08 4.46452e+08 4.47472e+08 4.47536e+08 0 99
057 1 0 4.51089e+08 4.51356e+08 4.52376e+08 4.52387e+08 0 1
058 5 1 4.68932e+08 4.69191e+08 4.70211e+08 4.7027e+08 0 1
059 5 1 4.73158e+08 4.73435e+08 4.74455e+08 4.74584e+08 0 1
060 3 1 4.77191e+08 4.77454e+08 4.78474e+08 4.78509e+08 0 99
061 1 0 4.83318e+08 4.83578e+08 4.84597e+08 4.85264e+08 0 1
062 2 0 4.93281e+08 4.93558e+08 4.94577e+08 4.99308e+08 0 99
063 4 1 5.04132e+08 5.04389e+08 5.05409e+08 5.05537e+08 0 99
064 1 0 5.11391e+08 5.11653e+08 5.12673e+08 5.12725e+08 0 1
065 5 1 5.15973e+08 5.16242e+08 5.17262e+08 5.17364e+08 0 1
066 5 1 5.20131e+08 5.20401e+08 5.2142e+08 5.21438e+08 0 1
067 5 1 5.24128e+08 5.24405e+08 5.25424e+08 5.25575e+08 0 1
068 5 1 5.28566e+08 5.28833e+08 5.29852e+08 5.29994e+08 0 1
069 5 1 5.33043e+08 5.33301e+08 5.3432e+08 5.34458e+08 0 1
070 1 1 5.37317e+08 5.37579e+08 5.38599e+08 5.41916e+08 0 0
071 1 0 5.49144e+08 5.49413e+08 5.50433e+08 5.50574e+08 1 1
072 1 0 5.56093e+08 5.56355e+08 5.57375e+08 5.58478e+08 0 1
073 1 0 5.60965e+08 5.61223e+08 5.62243e+08 5.62314e+08 0 1
074 5 1 5.65193e+08 5.65464e+08 5.66483e+08 5.66492e+08 0 1
075 1 0 5.69433e+08 5.69696e+08 5.70716e+08 5.7111e+08 0 1
076 5 1 5.73663e+08 5.73934e+08 5.74953e+08 5.75013e+08 0 1
077 5 1 5.77736e+08 5.77995e+08 5.79015e+08 5.79311e+08 0 1
078 1 0 5.82147e+08 5.82414e+08 5.83434e+08 5.83998e+08 0 1
079 5 1 5.86918e+08 5.87194e+08 5.88213e+08 5.8826e+08 0 1
080 4 1 5.94705e+08 5.94965e+08 5.95984e+08 5.96042e+08 0 99
081 1 0 5.98953e+08 5.99206e+08 6.00226e+08 6.01364e+08 0 1
082 3 1 6.14484e+08 6.14756e+08 6.15776e+08 6.15824e+08 0 99
083 3 1 6.18579e+08 6.18842e+08 6.19862e+08 6.2e+08 0 99
084 5 1 6.24102e+08 6.24378e+08 6.25398e+08 6.25405e+08 0 1
085 1 0 6.33138e+08 6.33416e+08 6.34436e+08 6.5754e+08 0 1
086 1 0 6.61197e+08 6.61464e+08 6.62483e+08 6.62677e+08 0 1
087 5 1 6.656e+08 6.65875e+08 6.66895e+08 6.67032e+08 0 1
088 1 0 6.69669e+08 6.69929e+08 6.70949e+08 6.71039e+08 0 1
089 1 0 6.78908e+08 6.79157e+08 6.80177e+08 6.91578e+08 0 1
090 5 1 6.94367e+08 6.94626e+08 6.95646e+08 6.9567e+08 0 1
091 5 1 7.03779e+08 7.04041e+08 7.05061e+08 7.05245e+08 0 1
092 1 0 7.12023e+08 7.12292e+08 7.13312e+08 7.13349e+08 0 1
093 1 0 7.18001e+08 7.18273e+08 7.19293e+08 7.19621e+08 0 1
094 5 1 7.24877e+08 7.2515e+08 7.2617e+08 7.26314e+08 0 1
095 5 1 7.31772e+08 7.32044e+08 7.33063e+08 7.33179e+08 0 1
096 1 0 7.3917e+08 7.39431e+08 7.40451e+08 7.40662e+08 0 1
097 5 1 7.46681e+08 7.46937e+08 7.47957e+08 7.47965e+08 0 1
098 5 1 7.55183e+08 7.5544e+08 7.5646e+08 7.60118e+08 0 1
099 1 0 7.6304e+08 7.63314e+08 7.64334e+08 7.64894e+08 0 1
100 5 1 7.6851e+08 7.68765e+08 7.69785e+08 7.70035e+08 0 1
101 1 0 7.72589e+08 7.72852e+08 7.73872e+08 7.73978e+08 0 1
102 1 1 7.78664e+08 7.78939e+08 7.79959e+08 7.81759e+08 0 0
103 1 0 7.90509e+08 7.90771e+08 7.9179e+08 7.91816e+08 1 1
104 1 0 7.95072e+08 7.95328e+08 7.96347e+08 7.96418e+08 0 1
105 2 0 8.00572e+08 8.00837e+08 8.01856e+08 8.01983e+08 0 99
106 5 1 8.07637e+08 8.07897e+08 8.08917e+08 8.08957e+08 0 1
107 5 1 8.22283e+08 8.22547e+08 8.23567e+08 8.23597e+08 0 1
108 1 0 8.2759e+08 8.27857e+08 8.28876e+08 8.33586e+08 0 1
109 5 1 8.41318e+08 8.41574e+08 8.42594e+08 8.42663e+08 0 1
110 1 0 8.47359e+08 8.4762e+08 8.4864e+08 8.48867e+08 0 1
111 3 1 8.51724e+08 8.51979e+08 8.52998e+08 8.5308e+08 0 99
112 1 0 8.58591e+08 8.58849e+08 8.59868e+08 8.60196e+08 0 1
113 4 1 8.62914e+08 8.63171e+08 8.64191e+08 8.64272e+08 0 99
114 3 1 8.67187e+08 8.67451e+08 8.68471e+08 8.68479e+08 0 99
115 1 0 8.72655e+08 8.72911e+08 8.7393e+08 8.74398e+08 0 1
116 5 1 8.77133e+08 8.77393e+08 8.78413e+08 8.78451e+08 0 1
117 2 0 8.94557e+08 8.94813e+08 8.95833e+08 8.95846e+08 0 99
118 1 0 8.9863e+08 8.98893e+08 8.99912e+08 8.99988e+08 0 1
119 5 1 9.03545e+08 9.03803e+08 9.04823e+08 9.04836e+08 0 1
120 5 1 9.07537e+08 9.07802e+08 9.08822e+08 9.08839e+08 0 1
121 1 0 9.11738e+08 9.11997e+08 9.13016e+08 9.13707e+08 0 1
122 2 1 9.16241e+08 9.16498e+08 9.17517e+08 9.17627e+08 0 99
123 5 1 9.2025e+08 9.20503e+08 9.21523e+08 9.21656e+08 0 1
124 1 0 9.24298e+08 9.24553e+08 9.25572e+08 9.25927e+08 0 1
125 4 1 9.31138e+08 9.31399e+08 9.32419e+08 9.3249e+08 0 99
126 1 0 9.37528e+08 9.37784e+08 9.38804e+08 9.38877e+08 0 1
127 5 1 9.46631e+08 9.46902e+08 9.47921e+08 9.48008e+08 0 1
128 1 0 9.5134e+08 9.51598e+08 9.52618e+08 9.54794e+08 0 1
129 5 1 9.58933e+08 9.5919e+08 9.60209e+08 9.60278e+08 0 1
130 1 0 9.62935e+08 9.63187e+08 9.64207e+08 9.65024e+08 0 1
131 4 1 9.6772e+08 9.67977e+08 9.68997e+08 9.69083e+08 0 99
132 5 1 9.71966e+08 9.72226e+08 9.73245e+08 9.73438e+08 0 1
133 1 0 9.76266e+08 9.76535e+08 9.77555e+08 9.77619e+08 0 1
134 1 0 9.80444e+08 9.80708e+08 9.81727e+08 9.81788e+08 0 1
135 1 0 9.84437e+08 9.84704e+08 9.85724e+08 9.86028e+08 0 1
136 5 1 9.89233e+08 9.89498e+08 9.90518e+08 9.90531e+08 0 1
137 1 0 1.00688e+09 1.00714e+09 1.00816e+09 1.00819e+09 0 1
138 1 0 1.0118e+09 1.01206e+09 1.01308e+09 1.01314e+09 0 1
139 3 1 1.01637e+09 1.01662e+09 1.01764e+09 1.01771e+09 0 99
140 1 0 1.02604e+09 1.02631e+09 1.02733e+09 1.02736e+09 0 1
141 1 0 1.03035e+09 1.03062e+09 1.03164e+09 1.03165e+09 0 1
142 4 1 1.03801e+09 1.03826e+09 1.03928e+09 1.03936e+09 0 99
143 5 1 1.04609e+09 1.04636e+09 1.04738e+09 1.04742e+09 0 1
144 3 1 1.05775e+09 1.05801e+09 1.05903e+09 1.05911e+09 0 99
145 1 0 1.06248e+09 1.06274e+09 1.06376e+09 1.06397e+09 0 1
146 1 0 1.06818e+09 1.06844e+09 1.06946e+09 1.06948e+09 0 1
147 1 0 1.07549e+09 1.07575e+09 1.07677e+09 1.07932e+09 0 1
148 5 1 1.08218e+09 1.08243e+09 1.08345e+09 1.08346e+09 0 1
149 2 0 1.08903e+09 1.08929e+09 1.09031e+09 1.09036e+09 0 99
150 1 1 1.09381e+09 1.09408e+09 1.0951e+09 1.10758e+09 0 0
151 1 0 1.11501e+09 1.11528e+09 1.1163e+09 1.11635e+09 1 1
152 5 1 1.12691e+09 1.12718e+09 1.1282e+09 1.12828e+09 0 1
153 4 1 1.13319e+09 1.13345e+09 1.13447e+09 1.13453e+09 0 99
154 5 1 1.13896e+09 1.13923e+09 1.14025e+09 1.14045e+09 0 1
155 5 1 1.14585e+09 1.14611e+09 1.14713e+09 1.14714e+09 0 1
156 5 1 1.15029e+09 1.15055e+09 1.15157e+09 1.15158e+09 0 1
157 5 1 1.1545e+09 1.15477e+09 1.15579e+09 1.15595e+09 0 1
158 2 0 1.16412e+09 1.16438e+09 1.1654e+09 1.16546e+09 0 99
159 5 1 1.16814e+09 1.1684e+09 1.16942e+09 1.16947e+09 0 1
160 5 1 1.17327e+09 1.17353e+09 1.17455e+09 1.17456e+09 0 1
161 5 1 1.17782e+09 1.17809e+09 1.17911e+09 1.17931e+09 0 1
162 1 0 1.18217e+09 1.18243e+09 1.18345e+09 1.18358e+09 0 1
163 2 0 1.18842e+09 1.18867e+09 1.18969e+09 1.18988e+09 0 99
164 1 0 1.1943e+09 1.19458e+09 1.1956e+09 1.1957e+09 0 1
165 1 0 1.19871e+09 1.19897e+09 1.19999e+09 1.2001e+09 0 1
166 5 1 1.2032e+09 1.20346e+09 1.20448e+09 1.2045e+09 0 1
167 5 1 1.2079e+09 1.20816e+09 1.20917e+09 1.20938e+09 0 1
168 5 1 1.2124e+09 1.21266e+09 1.21368e+09 1.21377e+09 0 1
169 1 0 1.21972e+09 1.21998e+09 1.221e+09 1.22115e+09 0 1
170 1 0 1.2239e+09 1.22417e+09 1.22518e+09 1.22546e+09 0 1
171 5 1 1.22895e+09 1.22921e+09 1.23023e+09 1.23031e+09 0 1
172 1 1 1.23373e+09 1.23398e+09 1.235e+09 1.23516e+09 0 0
173 1 0 1.24226e+09 1.24251e+09 1.24353e+09 1.2437e+09 1 1
174 5 1 1.2513e+09 1.25156e+09 1.25258e+09 1.25267e+09 0 1
175 5 1 1.25697e+09 1.25724e+09 1.25826e+09 1.25829e+09 0 1
176 5 1 1.26125e+09 1.26151e+09 1.26253e+09 1.26297e+09 0 1
177 2 1 1.26593e+09 1.26619e+09 1.26721e+09 1.26723e+09 0 99
178 5 1 1.27025e+09 1.27051e+09 1.27153e+09 1.27179e+09 0 1
179 5 1 1.27492e+09 1.27518e+09 1.2762e+09 1.27623e+09 0 1
180 1 0 1.28001e+09 1.28026e+09 1.28128e+09 1.28225e+09 0 1
181 4 1 1.2856e+09 1.28586e+09 1.28688e+09 1.2869e+09 0 99
182 1 0 1.2901e+09 1.29035e+09 1.29137e+09 1.29146e+09 0 1
183 5 1 1.2955e+09 1.29577e+09 1.29679e+09 1.29681e+09 0 1
184 5 1 1.30335e+09 1.30361e+09 1.30463e+09 1.30465e+09 0 1
185 2 0 1.31241e+09 1.31267e+09 1.31369e+09 1.31387e+09 0 99
186 1 0 1.31705e+09 1.31731e+09 1.31833e+09 1.31841e+09 0 1
187 5 1 1.3246e+09 1.32488e+09 1.3259e+09 1.32599e+09 0 1
188 5 1 1.33021e+09 1.33046e+09 1.33148e+09 1.33153e+09 0 1
189 5 1 1.33465e+09 1.33492e+09 1.33594e+09 1.33658e+09 0 1
190 1 0 1.33977e+09 1.34003e+09 1.34105e+09 1.34118e+09 0 1
191 1 0 1.34777e+09 1.34804e+09 1.34906e+09 1.34908e+09 0 1
192 5 1 1.354e+09 1.35427e+09 1.35529e+09 1.35537e+09 0 1
193 5 1 1.35868e+09 1.35893e+09 1.35995e+09 1.35999e+09 0 1
194 5 1 1.36307e+09 1.36333e+09 1.36435e+09 1.36445e+09 0 1
195 3 1 1.36895e+09 1.36921e+09 1.37023e+09 1.37024e+09 0 99
196 1 0 1.3731e+09 1.37336e+09 1.37438e+09 1.37517e+09 0 1
197 5 1 1.37831e+09 1.37857e+09 1.37959e+09 1.37969e+09 0 1
198 4 1 1.3911e+09 1.39136e+09 1.39238e+09 1.3924e+09 0 99
199 5 1 1.39566e+09 1.39592e+09 1.39694e+09 1.39698e+09 0 1
200 2 0 1.40068e+09 1.40095e+09 1.40197e+09 1.40461e+09 0 99
201 1 0 1.40817e+09 1.40842e+09 1.40944e+09 1.40955e+09 0 1
202 1 0 1.41306e+09 1.41332e+09 1.41434e+09 1.41777e+09 0 1
203 3 0 1.42245e+09 1.42272e+09 1.42374e+09 1.42393e+09 0 99
204 1 0 1.42702e+09 1.42729e+09 1.42831e+09 1.42838e+09 0 1
205 5 1 1.43162e+09 1.43189e+09 1.43291e+09 1.43292e+09 0 1
206 3 1 1.43613e+09 1.43638e+09 1.4374e+09 1.43761e+09 0 99
207 4 0 1.44189e+09 1.44216e+09 1.44318e+09 1.44842e+09 0 99
208 1 0 1.45141e+09 1.45167e+09 1.45269e+09 1.45271e+09 0 1
209 1 0 1.46162e+09 1.46188e+09 1.4629e+09 1.46981e+09 0 1
210 3 0 1.47292e+09 1.47317e+09 1.47419e+09 1.47987e+09 0 99
211 1 0 1.48279e+09 1.48306e+09 1.48407e+09 1.4841e+09 0 1
212 5 1 1.48702e+09 1.4873e+09 1.48832e+09 1.48842e+09 0 1
213 1 0 1.49173e+09 1.49201e+09 1.49303e+09 1.49344e+09 0 1
214 1 0 1.49662e+09 1.49688e+09 1.4979e+09 1.49798e+09 0 1
215 1 0 1.50088e+09 1.50114e+09 1.50216e+09 1.50287e+09 0 1
216 2 0 1.50598e+09 1.50623e+09 1.50725e+09 1.50734e+09 0 99
217 1 0 1.51049e+09 1.51074e+09 1.51176e+09 1.51196e+09 0 1
218 5 1 1.51493e+09 1.5152e+09 1.51622e+09 1.51627e+09 0 1
219 4 1 1.51946e+09 1.51974e+09 1.52075e+09 1.52076e+09 0 99
220 1 0 1.52372e+09 1.52398e+09 1.525e+09 1.52787e+09 0 1
221 5 1 1.53112e+09 1.53138e+09 1.5324e+09 1.53247e+09 0 1
222 1 0 1.53543e+09 1.53568e+09 1.5367e+09 1.53677e+09 0 1
223 3 0 1.54024e+09 1.54051e+09 1.54153e+09 1.54168e+09 0 99
224 3 1 1.54511e+09 1.54537e+09 1.54639e+09 1.54642e+09 0 99
225 5 1 1.54992e+09 1.55019e+09 1.55121e+09 1.55122e+09 0 1
226 5 1 1.55436e+09 1.55463e+09 1.55565e+09 1.55567e+09 0 1
227 5 1 1.5639e+09 1.56417e+09 1.56519e+09 1.5652e+09 0 1
228 1 0 1.56983e+09 1.57009e+09 1.57111e+09 1.57134e+09 0 1
229 5 1 1.57696e+09 1.57723e+09 1.57825e+09 1.57833e+09 0 1
230 5 1 1.5817e+09 1.58196e+09 1.58298e+09 1.58311e+09 0 1
231 2 0 1.58614e+09 1.58639e+09 1.58741e+09 1.58748e+09 0 99
232 5 1 1.59045e+09 1.59072e+09 1.59174e+09 1.59183e+09 0 1
233 1 0 1.59749e+09 1.59777e+09 1.59879e+09 1.59905e+09 0 1
234 5 1 1.6062e+09 1.60646e+09 1.60748e+09 1.60754e+09 0 1
235 5 1 1.61216e+09 1.61242e+09 1.61344e+09 1.61351e+09 0 1
236 5 1 1.61689e+09 1.61715e+09 1.61817e+09 1.61818e+09 0 1
237 5 1 1.62136e+09 1.62163e+09 1.62265e+09 1.62267e+09 0 1
238 1 0 1.62587e+09 1.62613e+09 1.62715e+09 1.62775e+09 0 1
239 1 1 1.63086e+09 1.63113e+09 1.63215e+09 1.63231e+09 0 0
240 1 0 1.64183e+09 1.64208e+09 1.6431e+09 1.64894e+09 1 1
241 1 0 1.65592e+09 1.65618e+09 1.65719e+09 1.6678e+09 0 1
242 1 0 1.67125e+09 1.67152e+09 1.67254e+09 1.67274e+09 0 1
243 3 1 1.67795e+09 1.67821e+09 1.67923e+09 1.67962e+09 0 99
244 1 0 1.68296e+09 1.68322e+09 1.68424e+09 1.69453e+09 0 1
245 1 0 1.69787e+09 1.69813e+09 1.69915e+09 1.69928e+09 0 1
246 5 1 1.70358e+09 1.70383e+09 1.70485e+09 1.70486e+09 0 1
247 5 1 1.71061e+09 1.71086e+09 1.71188e+09 1.7119e+09 0 1
248 4 1 1.71708e+09 1.71734e+09 1.71836e+09 1.71837e+09 0 99
249 5 1 1.72209e+09 1.72236e+09 1.72338e+09 1.72339e+09 0 1
250 1 0 1.72801e+09 1.72826e+09 1.72928e+09 1.73692e+09 0 1
251 3 0 1.74825e+09 1.74851e+09 1.74953e+09 1.75442e+09 0 99
252 1 0 1.75778e+09 1.75804e+09 1.75906e+09 1.75908e+09 0 1
253 4 1 1.76412e+09 1.76439e+09 1.76541e+09 1.76576e+09 0 99
254 2 0 1.76897e+09 1.76924e+09 1.77026e+09 1.77807e+09 0 99
255 5 1 1.7812e+09 1.78147e+09 1.78249e+09 1.78263e+09 0 1
256 5 1 1.78637e+09 1.78663e+09 1.78765e+09 1.7877e+09 0 1
257 5 1 1.79096e+09 1.79121e+09 1.79223e+09 1.79224e+09 0 1
258 1 0 1.79586e+09 1.79613e+09 1.79714e+09 1.79723e+09 0 1
259 4 0 1.80219e+09 1.80245e+09 1.80347e+09 1.81117e+09 0 99
260 1 0 1.81461e+09 1.81487e+09 1.81589e+09 1.81595e+09 0 1
261 5 1 1.82051e+09 1.82078e+09 1.8218e+09 1.82936e+09 0 1
262 5 1 1.83279e+09 1.83306e+09 1.83408e+09 1.83417e+09 0 1
263 5 1 1.83788e+09 1.83814e+09 1.83916e+09 1.83926e+09 0 1
264 4 1 1.84254e+09 1.84279e+09 1.84381e+09 1.84382e+09 0 99
265 5 1 1.84786e+09 1.84812e+09 1.84914e+09 1.84916e+09 0 1
266 5 1 1.85252e+09 1.85278e+09 1.8538e+09 1.85381e+09 0 1
267 1 0 1.85708e+09 1.85734e+09 1.85836e+09 1.85868e+09 0 1
268 5 1 1.8629e+09 1.86318e+09 1.8642e+09 1.86432e+09 0 1
269 5 1 1.8736e+09 1.87385e+09 1.87487e+09 1.87497e+09 0 1
270 4 1 1.8782e+09 1.87845e+09 1.87947e+09 1.87955e+09 0 99
271 1 0 1.88306e+09 1.88333e+09 1.88435e+09 1.88444e+09 0 1
272 1 0 1.88849e+09 1.88875e+09 1.88977e+09 1.89014e+09 0 1
273 4 0 1.89359e+09 1.89385e+09 1.89487e+09 1.89879e+09 0 99
274 2 0 1.90401e+09 1.90427e+09 1.90529e+09 1.91922e+09 0 99
275 4 1 1.92387e+09 1.92414e+09 1.92516e+09 1.92532e+09 0 99
276 1 0 1.92892e+09 1.92918e+09 1.9302e+09 1.93792e+09 0 1
277 1 0 1.94157e+09 1.94183e+09 1.94285e+09 1.94287e+09 0 1
278 3 1 1.94662e+09 1.94688e+09 1.94789e+09 1.94796e+09 0 99
279 2 0 1.9512e+09 1.95147e+09 1.95249e+09 1.95264e+09 0 99
280 5 1 1.95606e+09 1.95631e+09 1.95733e+09 1.95742e+09 0 1
281 1 0 1.96388e+09 1.96414e+09 1.96516e+09 1.98167e+09 0 1
282 1 1 1.99099e+09 1.99126e+09 1.99228e+09 1.99232e+09 0 0
283 1 0 1.99939e+09 1.99965e+09 2.00067e+09 2.00069e+09 1 1
284 1 0 2.00425e+09 2.00453e+09 2.00555e+09 2.02755e+09 0 1
285 1 0 2.03088e+09 2.03115e+09 2.03217e+09 2.03293e+09 0 1
286 5 1 2.03626e+09 2.03653e+09 2.03755e+09 2.03758e+09 0 1
287 5 1 2.04173e+09 2.042e+09 2.04302e+09 2.0431e+09 0 1
288 3 1 2.04677e+09 2.04702e+09 2.04804e+09 2.04812e+09 0 99
289 5 0 2.05175e+09 2.05202e+09 2.05304e+09 2.07437e+09 0 0
290 5 1 2.08176e+09 2.08201e+09 2.08303e+09 2.08316e+09 1 1
291 3 0 2.08646e+09 2.08672e+09 2.08774e+09 2.09737e+09 0 99
292 2 0 2.10063e+09 2.10089e+09 2.10191e+09 2.1049e+09 0 99
293 5 1 2.10821e+09 2.10847e+09 2.10949e+09 2.10951e+09 0 1
294 1 0 2.11324e+09 2.1135e+09 2.11452e+09 2.16022e+09 0 1
295 2 0 2.16746e+09 2.16773e+09 2.16875e+09 2.16915e+09 0 99
296 1 0 2.17284e+09 2.17309e+09 2.17411e+09 2.17453e+09 0 1
297 5 1 2.17939e+09 2.17967e+09 2.18069e+09 2.18076e+09 0 1
298 1 0 2.18429e+09 2.18455e+09 2.18557e+09 2.18565e+09 0 1
299 1 0 2.18982e+09 2.19008e+09 2.1911e+09 2.19139e+09 0 1
300 1 0 2.19496e+09 2.19522e+09 2.19624e+09 2.19653e+09 0 1
301 5 1 2.20029e+09 2.20055e+09 2.20157e+09 2.20165e+09 0 1
302 1 0 2.20506e+09 2.20531e+09 2.20633e+09 2.20697e+09 0 1
303 3 1 2.21177e+09 2.21204e+09 2.21306e+09 2.21314e+09 0 99
304 2 0 2.21661e+09 2.21686e+09 2.21788e+09 2.24929e+09 0 99
305 5 0 2.25298e+09 2.25324e+09 2.25426e+09 2.30251e+09 0 0
306 5 1 2.30998e+09 2.31024e+09 2.31126e+09 2.31161e+09 1 1
307 5 0 2.31525e+09 2.31552e+09 2.31654e+09 2.32349e+09 0 0
308 5 1 2.33066e+09 2.33092e+09 2.33194e+09 2.33203e+09 1 1
309 5 1 2.33585e+09 2.33612e+09 2.33714e+09 2.33716e+09 0 1
310 1 0 2.3406e+09 2.34086e+09 2.34188e+09 2.3422e+09 0 1
311 5 1 2.34594e+09 2.34621e+09 2.34723e+09 2.34731e+09 0 1
312 1 0 2.35148e+09 2.35173e+09 2.35275e+09 2.35283e+09 0 1
313 5 1 2.35914e+09 2.35939e+09 2.36041e+09 2.36042e+09 0 1
314 1 0 2.36397e+09 2.36424e+09 2.36525e+09 2.3654e+09 0 1
315 1 0 2.36921e+09 2.36947e+09 2.37049e+09 2.37066e+09 0 1
316 1 0 2.37419e+09 2.37445e+09 2.37547e+09 2.3756e+09 0 1
317 5 1 2.37934e+09 2.37961e+09 2.38063e+09 2.38066e+09 0 1
318 5 1 2.38405e+09 2.38432e+09 2.38534e+09 2.38534e+09 0 1
319 2 1 2.38874e+09 2.38901e+09 2.39003e+09 2.39009e+09 0 99
320 1 0 2.39346e+09 2.39372e+09 2.39474e+09 2.39483e+09 0 1
321 5 1 2.39934e+09 2.3996e+09 2.40062e+09 2.40065e+09 0 1
322 3 1 2.4097e+09 2.40996e+09 2.41098e+09 2.411e+09 0 99
323 4 1 2.4157e+09 2.41595e+09 2.41697e+09 2.41706e+09 0 99
324 5 1 2.42079e+09 2.42105e+09 2.42207e+09 2.42207e+09 0 1
325 1 0 2.42588e+09 2.42613e+09 2.42715e+09 2.42753e+09 0 1
326 1 0 2.43095e+09 2.43121e+09 2.43223e+09 2.43233e+09 0 1
327 5 1 2.43576e+09 2.43602e+09 2.43704e+09 2.43705e+09 0 1
328 1 0 2.44099e+09 2.44125e+09 2.44227e+09 2.44233e+09 0 1
329 4 1 2.45149e+09 2.45176e+09 2.45278e+09 2.45279e+09 0 99
330 5 1 2.4566e+09 2.45688e+09 2.4579e+09 2.45791e+09 0 1
331 1 0 2.46182e+09 2.46208e+09 2.4631e+09 2.46311e+09 0 1
332 2 0 2.47126e+09 2.47153e+09 2.47255e+09 2.47278e+09 0 99
333 1 0 2.47645e+09 2.47671e+09 2.47773e+09 2.47782e+09 0 1
334 1 0 2.48142e+09 2.48167e+09 2.48269e+09 2.48276e+09 0 1
335 5 1 2.48668e+09 2.48694e+09 2.48796e+09 2.48806e+09 0 1
336 3 0 2.49186e+09 2.49212e+09 2.49314e+09 2.4936e+09 0 99
337 5 1 2.49729e+09 2.49756e+09 2.49858e+09 2.49862e+09 0 1
338 1 0 2.50399e+09 2.50425e+09 2.50527e+09 2.50702e+09 0 1
339 1 0 2.5118e+09 2.51206e+09 2.51308e+09 2.51309e+09 0 1
340 5 1 2.51695e+09 2.51721e+09 2.51823e+09 2.51828e+09 0 1
341 5 1 2.52405e+09 2.52431e+09 2.52533e+09 2.52538e+09 0 1
342 1 0 2.52949e+09 2.52976e+09 2.53078e+09 2.53086e+09 0 1
343 1 0 2.53639e+09 2.53666e+09 2.53768e+09 2.54396e+09 0 1
344 5 1 2.54981e+09 2.55008e+09 2.5511e+09 2.55112e+09 0 1
345 5 1 2.55551e+09 2.55577e+09 2.55678e+09 2.5568e+09 0 1
346 5 1 2.56058e+09 2.56085e+09 2.56187e+09 2.56196e+09 0 1
347 5 1 2.56553e+09 2.56581e+09 2.56683e+09 2.56685e+09 0 1
348 1 0 2.57065e+09 2.57092e+09 2.57193e+09 2.57196e+09 0 1
349 2 0 2.57562e+09 2.57587e+09 2.57689e+09 2.57797e+09 0 99
350 5 0 2.58191e+09 2.58217e+09 2.58319e+09 2.58778e+09 0 0
351 5 1 2.59483e+09 2.5951e+09 2.59612e+09 2.59616e+09 1 1
352 4 0 2.59974e+09 2.59999e+09 2.60101e+09 2.60643e+09 0 99
353 5 1 2.61315e+09 2.6134e+09 2.61442e+09 2.61451e+09 0 1
354 4 1 2.61814e+09 2.6184e+09 2.61942e+09 2.61973e+09 0 99
355 5 0 2.62759e+09 2.62784e+09 2.62886e+09 2.63481e+09 0 0
356 5 1 2.64199e+09 2.64224e+09 2.64326e+09 2.65585e+09 1 1
357 5 1 2.65978e+09 2.66004e+09 2.66106e+09 2.66108e+09 0 1
358 2 0 2.66614e+09 2.66639e+09 2.66741e+09 2.67249e+09 0 99
359 1 1 2.67651e+09 2.67678e+09 2.6778e+09 2.67857e+09 0 0
360 1 0 2.68749e+09 2.68774e+09 2.68876e+09 2.73405e+09 1 1
361 4 0 2.7379e+09 2.73816e+09 2.73918e+09 2.74036e+09 0 99
362 1 0 2.74394e+09 2.7442e+09 2.74522e+09 2.76933e+09 0 1
363 5 0 2.77295e+09 2.77322e+09 2.77424e+09 2.78291e+09 0 0
364 5 0 2.79027e+09 2.79055e+09 2.79157e+09 2.85312e+09 1 0
365 5 1 2.86034e+09 2.86061e+09 2.86163e+09 2.86177e+09 1 1
366 4 0 2.8656e+09 2.86587e+09 2.86689e+09 2.86737e+09 0 99
367 4 0 2.87114e+09 2.87139e+09 2.87241e+09 2.88665e+09 0 99
368 1 0 2.89064e+09 2.89091e+09 2.89193e+09 2.94613e+09 0 1
369 1 0 2.94984e+09 2.9501e+09 2.95111e+09 2.95382e+09 0 1
370 1 1 2.95749e+09 2.95776e+09 2.95878e+09 2.96005e+09 0 0
371 1 1 2.96715e+09 2.9674e+09 2.96842e+09 2.98115e+09 1 0
372 1 0 2.98863e+09 2.98889e+09 2.98991e+09 3.13915e+09 1 1
373 1 0 3.143e+09 3.14326e+09 3.14428e+09 3.14448e+09 0 1
374 1 0 3.14852e+09 3.1488e+09 3.14982e+09 3.15047e+09 0 1
375 1 0 3.15463e+09 3.1549e+09 3.15592e+09 3.15601e+09 0 1
376 1 0 3.15996e+09 3.16022e+09 3.16124e+09 3.16516e+09 0 1
377 1 0 3.16895e+09 3.16922e+09 3.17024e+09 3.18473e+09 0 1
378 1 0 3.18897e+09 3.18923e+09 3.19025e+09 3.19079e+09 0 1
379 1 0 3.19465e+09 3.19492e+09 3.19594e+09 3.19607e+09 0 1
380 5 1 3.20003e+09 3.20031e+09 3.20133e+09 3.20139e+09 0 1
381 2 0 3.20522e+09 3.20547e+09 3.20649e+09 3.25555e+09 0 99
382 5 1 3.25952e+09 3.25979e+09 3.26081e+09 3.26824e+09 0 1
383 3 1 3.27231e+09 3.27257e+09 3.27359e+09 3.2802e+09 0 99
384 1 0 3.28715e+09 3.2874e+09 3.28842e+09 3.4451e+09 0 1
385 3 0 3.44881e+09 3.44907e+09 3.45009e+09 3.45315e+09 0 99
386 3 1 3.45719e+09 3.45746e+09 3.45848e+09 3.47171e+09 0 99
387 3 1 3.4759e+09 3.47618e+09 3.47719e+09 3.4856e+09 0 99
388 1 0 3.4897e+09 3.48997e+09 3.49099e+09 3.49512e+09 0 1
389 1 0 3.49905e+09 3.49931e+09 3.50033e+09 3.50196e+09 0 1
390 1 1 3.50608e+09 3.50634e+09 3.50736e+09 3.5129e+09 0 0
391 1 0 3.52018e+09 3.52046e+09 3.52148e+09 3.56675e+09 1 1
392 5 0 3.57076e+09 3.57103e+09 3.57205e+09 4.12899e+09 0 0
393 5 0 4.13633e+09 4.13659e+09 4.13761e+09 4.17875e+09 1 0
394 5 0 4.18646e+09 4.18672e+09 4.18774e+09 4.26954e+09 1 0
395 5 0 4.27684e+09 4.2771e+09 4.27812e+09 1.78981e+08 1 0
396 5 0 1.86236e+08 1.86502e+08 1.87521e+08 3.3936e+08 0 0
397 5 0 3.46594e+08 3.46857e+08 3.47877e+08 3.8837e+08 0 0
398 5 1 3.95807e+08 3.96057e+08 3.97077e+08 3.98322e+08 0 1
399 2 1 4.0409e+08 4.04359e+08 4.05379e+08 4.0786e+08 0 99
