trial trialType response stillTime stimOnset stimOffset respTime correctionTrial correct
001 1 1 3.09966e+06 3.36893e+06 4.01279e+06 7.43781e+06 0
000 002 1 0 1.47333e+07 1.49946e+07 1.56384e+07 1.16039e+08 1
001 003 2 1 1.18408e+08 1.18684e+08 1.19294e+08 1.19323e+08 0
001 004 2 0 1.24819e+08 1.2508e+08 1.26308e+08 1.26386e+08 0
000 005 2 0 1.33861e+08 1.34126e+08 1.35354e+08 1.37214e+08 1
000 006 2 1 1.89863e+08 1.90126e+08 1.91354e+08 1.91375e+08 1
001 007 2 0 2.58243e+08 2.58509e+08 2.5929e+08 2.61122e+08 0
000 008 2 1 3.01088e+08 3.01354e+08 3.02136e+08 3.11614e+08 1
001 009 2 1 3.15059e+08 3.15321e+08 3.16719e+08 3.24757e+08 0
001 010 2 0 3.39147e+08 3.39421e+08 3.40702e+08 4.16236e+08 0
000 011 2 1 4.34774e+08 4.35046e+08 4.36326e+08 4.5183e+08 1
001 012 2 0 4.58829e+08 4.59096e+08 4.59777e+08 4.76452e+08 0
000 013 2 1 4.83983e+08 4.84249e+08 4.8493e+08 5.42352e+08 1
001 014 2 0 5.4469e+08 5.44951e+08 5.45532e+08 5.69976e+08 0
000 015 2 0 5.77512e+08 5.77779e+08 5.7836e+08 5.83727e+08 1
000 016 2 0 5.90984e+08 5.91249e+08 5.9183e+08 5.91904e+08 1
000 017 2 0 5.99271e+08 5.99541e+08 6.00122e+08 6.27025e+08 1
000 018 2 1 6.37173e+08 6.37431e+08 6.38295e+08 6.46108e+08 0
001 019 2 1 6.48747e+08 6.49003e+08 6.50095e+08 6.76995e+08 0
001 020 1 0 6.79894e+08 6.80156e+08 6.80882e+08 7.05342e+08 0
001 021 2 1 7.07947e+08 7.08207e+08 7.08759e+08 7.41961e+08 0
001 022 1 1 7.44428e+08 7.4469e+08 7.45851e+08 7.54773e+08 0
000 023 1 0 7.62034e+08 7.62294e+08 7.63454e+08 7.67101e+08 1
001 024 2 1 7.70691e+08 7.70962e+08 7.71688e+08 7.75589e+08 0
001 025 1 1 7.77956e+08 7.78228e+08 7.79066e+08 7.91694e+08 0
000 026 1 0 8.05375e+08 8.05636e+08 8.06474e+08 8.07752e+08 1
001 027 1 0 8.10857e+08 8.11115e+08 8.12353e+08 8.19356e+08 0
001 028 2 1 8.21934e+08 8.22195e+08 8.23283e+08 8.27164e+08 0
001 029 1 0 8.29779e+08 8.30048e+08 8.3058e+08 8.60073e+08 0
001 030 1 0 8.62706e+08 8.62969e+08 8.64414e+08 8.67583e+08 0
001 031 1 0 8.69975e+08 8.70237e+08 8.71037e+08 8.78084e+08 0
001 032 1 1 8.80717e+08 8.8097e+08 8.82455e+08 8.94542e+08 0
000 033 1 0 9.02573e+08 9.02826e+08 9.04311e+08 9.09479e+08 1
001 034 1 0 9.12916e+08 9.13186e+08 9.14248e+08 9.28387e+08 0
001 035 2 0 9.31009e+08 9.31274e+08 9.31824e+08 9.53441e+08 0
000 036 2 1 9.60632e+08 9.60899e+08 9.61449e+08 9.62305e+08 1
001 037 2 0 9.66529e+08 9.66783e+08 9.68226e+08 9.81915e+08 0
000 038 2 0 9.89113e+08 9.89376e+08 9.90819e+08 9.95105e+08 1
000 039 2 0 1.00222e+09 1.00248e+09 1.00393e+09 1.0112e+09 1
000 040 2 0 1.01858e+09 1.01884e+09 1.02028e+09 1.02052e+09 1
000 041 2 0 1.03058e+09 1.03084e+09 1.03143e+09 1.04232e+09 0
000 042 1 1 1.05166e+09 1.05192e+09 1.05322e+09 1.0541e+09 0
000 043 2 0 1.06178e+09 1.06205e+09 1.06292e+09 1.06313e+09 0
000 044 2 0 1.07054e+09 1.07081e+09 1.0718e+09 1.07197e+09 0
000 045 1 0 1.08068e+09 1.08095e+09 1.08156e+09 1.09282e+09 0
001 046 1 0 1.0964e+09 1.09666e+09 1.09803e+09 1.11535e+09 0
001 047 1 1 1.11795e+09 1.1182e+09 1.11929e+09 1.13165e+09 0
000 048 1 1 1.13879e+09 1.13906e+09 1.14014e+09 1.16951e+09 1
000 049 1 1 1.17675e+09 1.17701e+09 1.17809e+09 1.1802e+09 1
000 050 1 1 1.18985e+09 1.19012e+09 1.1912e+09 1.19338e+09 1
000 051 2 1 1.20046e+09 1.20073e+09 1.20166e+09 1.20626e+09 0
001 052 1 0 1.20883e+09 1.20911e+09 1.21045e+09 1.22452e+09 0
001 053 1 0 1.22704e+09 1.22731e+09 1.22815e+09 1.24311e+09 0
001 054 2 1 1.24587e+09 1.24613e+09 1.24705e+09 1.26619e+09 0
001 055 1 0 1.27395e+09 1.27421e+09 1.27571e+09 1.27902e+09 0
001 056 2 0 1.28183e+09 1.28209e+09 1.28317e+09 1.29116e+09 0
000 057 2 0 1.29834e+09 1.29861e+09 1.2997e+09 1.29972e+09 1
000 058 2 1 1.30696e+09 1.30722e+09 1.30831e+09 1.3112e+09 1
001 059 2 0 1.31411e+09 1.31438e+09 1.31544e+09 1.31614e+09 0
000 060 2 1 1.32524e+09 1.32551e+09 1.32657e+09 1.33384e+09 1
001 061 1 0 1.33673e+09 1.33699e+09 1.33841e+09 1.3432e+09 0
001 062 2 1 1.3493e+09 1.34957e+09 1.35094e+09 1.35491e+09 0
001 063 1 0 1.35729e+09 1.35756e+09 1.35812e+09 1.36082e+09 0
001 064 2 0 1.36316e+09 1.36343e+09 1.3643e+09 1.37249e+09 0
000 065 2 1 1.37985e+09 1.38013e+09 1.38099e+09 1.38323e+09 1
001 066 2 0 1.38882e+09 1.38909e+09 1.3903e+09 1.39161e+09 0
000 067 2 0 1.40035e+09 1.40062e+09 1.40184e+09 1.40643e+09 1
000 068 2 0 1.41388e+09 1.41415e+09 1.41537e+09 1.42047e+09 1
000 069 2 0 1.42868e+09 1.42893e+09 1.43015e+09 1.43446e+09 1
000 070 2 0 1.44199e+09 1.44225e+09 1.44334e+09 1.46119e+09 0
000 071 2 0 1.46857e+09 1.46884e+09 1.47027e+09 1.4735e+09 0
000 072 2 0 1.48321e+09 1.48347e+09 1.48454e+09 1.48987e+09 0
000 073 2 0 1.49885e+09 1.49912e+09 1.50033e+09 1.5005e+09 0
000 074 1 0 1.5076e+09 1.50786e+09 1.50849e+09 1.53562e+09 0
001 075 2 0 1.53829e+09 1.53856e+09 1.53935e+09 1.58603e+09 0
000 076 2 1 1.5934e+09 1.59367e+09 1.59446e+09 1.60081e+09 1
001 077 2 0 1.60319e+09 1.60345e+09 1.60486e+09 1.6222e+09 0
000 078 2 0 1.62928e+09 1.62954e+09 1.63094e+09 1.67348e+09 1
000 079 2 0 1.68103e+09 1.68129e+09 1.6827e+09 1.68297e+09 1
000 080 2 1 1.69108e+09 1.69134e+09 1.69275e+09 1.71428e+09 1
001 081 1 1 1.71672e+09 1.71699e+09 1.71758e+09 1.7846e+09 0
000 082 1 1 1.79471e+09 1.79496e+09 1.79556e+09 1.79738e+09 1
000 083 1 1 1.80455e+09 1.80481e+09 1.8054e+09 1.83589e+09 1
000 084 1 1 1.84414e+09 1.8444e+09 1.84499e+09 1.89426e+09 1
000 085 1 0 1.90136e+09 1.90162e+09 1.90234e+09 1.93322e+09 0
001 086 2 1 1.93573e+09 1.93599e+09 1.93746e+09 2.0013e+09 0
001 087 1 0 2.00372e+09 2.00399e+09 2.00545e+09 2.06809e+09 0
001 088 1 1 2.07081e+09 2.07107e+09 2.07189e+09 2.17322e+09 0
000 089 1 0 2.18252e+09 2.18278e+09 2.18359e+09 2.2168e+09 1
001 090 1 1 2.21942e+09 2.2197e+09 2.22116e+09 2.25996e+09 0
000 091 1 1 2.26867e+09 2.26893e+09 2.2704e+09 2.31655e+09 1
000 092 1 1 2.33455e+09 2.33481e+09 2.33627e+09 2.33629e+09 1
000 093 1 0 2.35169e+09 2.35196e+09 2.35342e+09 2.35377e+09 1
001 094 2 0 2.35852e+09 2.3588e+09 2.35988e+09 2.37053e+09 0
000 095 2 0 2.38704e+09 2.3873e+09 2.38839e+09 2.38865e+09 1
000 096 2 1 2.39576e+09 2.39602e+09 2.39711e+09 2.4109e+09 1
001 097 2 1 2.41343e+09 2.4137e+09 2.41483e+09 2.44774e+09 0
001 098 2 1 2.451e+09 2.45127e+09 2.45258e+09 2.50952e+09 0
001 099 1 0 2.51228e+09 2.51254e+09 2.51319e+09 2.55828e+09 0
001 100 2 1 2.56074e+09 2.561e+09 2.56238e+09 2.56706e+09 0
001 101 2 0 2.56938e+09 2.56965e+09 2.57078e+09 2.61996e+09 0
000 102 2 1 2.63298e+09 2.63324e+09 2.63437e+09 2.6401e+09 1
001 103 1 0 2.64278e+09 2.64306e+09 2.6438e+09 2.67187e+09 0
001 104 2 0 2.67452e+09 2.67479e+09 2.67626e+09 2.71404e+09 0
000 105 2 1 2.72521e+09 2.72548e+09 2.72694e+09 2.74273e+09 1
001 106 2 0 2.74651e+09 2.74678e+09 2.7475e+09 2.75551e+09 0
000 107 2 0 2.76274e+09 2.76299e+09 2.76371e+09 2.76975e+09 1
000 108 2 1 2.7772e+09 2.77745e+09 2.77817e+09 2.78964e+09 1
001 109 1 0 2.7924e+09 2.79266e+09 2.79403e+09 2.82966e+09 0
001 110 2 1 2.83464e+09 2.8349e+09 2.83566e+09 2.86984e+09 0
001 111 2 0 2.87228e+09 2.87254e+09 2.87398e+09 2.8829e+09 0
000 112 2 0 2.89018e+09 2.89045e+09 2.89188e+09 2.90396e+09 1
000 113 2 0 2.91125e+09 2.91152e+09 2.91296e+09 2.95411e+09 1
000 114 2 1 2.96335e+09 2.96361e+09 2.96505e+09 2.97104e+09 1
001 115 1 0 2.97349e+09 2.97375e+09 2.97517e+09 3.01821e+09 0
001 116 2 1 3.02083e+09 3.0211e+09 3.02188e+09 3.0334e+09 0
001 117 2 1 3.03586e+09 3.03612e+09 3.03752e+09 3.0776e+09 0
001 118 1 1 3.08033e+09 3.08059e+09 3.08153e+09 3.11248e+09 0
000 119 1 1 3.12983e+09 3.13009e+09 3.13103e+09 3.16698e+09 1
000 120 1 0 3.17444e+09 3.17471e+09 3.17566e+09 3.17842e+09 1
001 121 1 1 3.18101e+09 3.18127e+09 3.18203e+09 3.19706e+09 0
000 122 1 1 3.20417e+09 3.20444e+09 3.2052e+09 3.21946e+09 1
000 123 1 1 3.2266e+09 3.22686e+09 3.22762e+09 3.23549e+09 1
000 124 1 1 3.24564e+09 3.24591e+09 3.24667e+09 3.24669e+09 1
000 125 1 1 3.26097e+09 3.26123e+09 3.26227e+09 3.29469e+09 0
000 126 1 1 3.30224e+09 3.30251e+09 3.30376e+09 3.32914e+09 0
000 127 2 1 3.33634e+09 3.33661e+09 3.33754e+09 3.3389e+09 0
001 128 1 0 3.34178e+09 3.34204e+09 3.34279e+09 3.38073e+09 0
001 129 1 1 3.38305e+09 3.38333e+09 3.38413e+09 3.42339e+09 0
000 130 1 0 3.43102e+09 3.43129e+09 3.43209e+09 3.43413e+09 1
001 131 1 1 3.43689e+09 3.43715e+09 3.43812e+09 3.50052e+09 0
000 132 1 1 3.50793e+09 3.5082e+09 3.50917e+09 3.51373e+09 1
000 