trial trialType response stillTime stimOnset stimOffset respTime correctionTrial correct
001 1 0 3.0546e+06 3.31761e+06 4.81474e+06 5.90239e+06 0
001 002 1 1 1.37636e+07 1.40144e+07 1.48396e+07 1.9166e+07 0
000 003 1 0 2.62892e+07 2.65445e+07 2.73697e+07 3.67514e+07 1
001 004 2 1 3.92243e+07 3.9486e+07 4.08804e+07 4.49351e+07 0
001 005 2 0 4.76764e+07 4.79363e+07 4.85195e+07 6.65344e+07 0
000 006 2 1 7.4198e+07 7.44481e+07 7.50314e+07 8.23849e+07 1
001 007 1 1 8.69765e+07 8.72395e+07 8.82392e+07 1.23654e+08 0
000 008 1 1 1.31079e+08 1.31333e+08 1.32332e+08 1.32368e+08 1
000 009 1 1 1.44955e+08 1.45209e+08 1.46209e+08 1.46496e+08 1
000 010 1 1 1.54249e+08 1.545e+08 1.555e+08 1.55766e+08 1
000 011 2 0 1.65545e+08 1.65806e+08 1.66502e+08 1.80557e+08 0
000 012 2 0 1.88414e+08 1.88677e+08 1.89454e+08 1.91651e+08 0
000 013 1 1 2.05048e+08 2.05309e+08 2.0662e+08 2.13459e+08 0
000 014 2 0 2.2596e+08 2.26213e+08 2.27336e+08 2.31685e+08 0
000 015 1 0 2.42247e+08 2.42505e+08 2.43646e+08 2.49509e+08 0
001 016 1 1 2.51814e+08 2.5207e+08 2.52765e+08 2.56567e+08 0
000 017 1 1 2.70243e+08 2.70495e+08 2.7119e+08 2.73588e+08 1
000 018 1 0 2.80862e+08 2.81121e+08 2.81816e+08 2.96042e+08 1
001 019 2 0 3.00133e+08 3.00393e+08 3.01251e+08 3.01391e+08 0
000 020 2 0 3.14462e+08 3.14727e+08 3.15585e+08 3.19126e+08 1
000 021 2 1 3.27845e+08 3.28104e+08 3.28962e+08 3.45871e+08 1
001 022 2 0 3.49303e+08 3.49564e+08 3.50489e+08 3.52232e+08 0
000 023 2 1 3.59491e+08 3.59753e+08 3.60678e+08 3.63501e+08 1
001 024 2 1 3.65951e+08 3.66208e+08 3.66823e+08 3.71392e+08 0
001 025 1 0 3.73756e+08 3.74012e+08 3.74776e+08 3.79642e+08 0
001 026 2 0 3.82371e+08 3.8263e+08 3.8408e+08 3.85219e+08 0
000 027 2 1 3.92363e+08 3.92621e+08 3.94072e+08 4.0716e+08 1
001 028 1 0 4.0974e+08 4.10006e+08 4.10711e+08 4.12918e+08 0
001 029 2 0 4.15547e+08 4.15808e+08 4.17066e+08 4.33278e+08 0
000 030 2 0 4.40655e+08 4.40913e+08 4.42171e+08 4.44842e+08 1
000 031 2 0 4.54163e+08 4.54415e+08 4.55673e+08 4.57299e+08 1
000 032 2 0 4.77114e+08 4.77367e+08 4.78625e+08 4.87566e+08 1
000 033 1 0 4.94671e+08 4.94945e+08 4.95627e+08 5.01544e+08 0
001 034 2 0 5.06622e+08 5.0689e+08 5.08339e+08 5.13976e+08 0
000 035 2 0 5.21324e+08 5.21589e+08 5.23039e+08 5.23371e+08 1
000 036 2 1 5.30552e+08 5.30809e+08 5.32258e+08 5.35029e+08 1
001 037 2 1 5.38589e+08 5.3885e+08 5.40147e+08 5.47885e+08 0
001 038 2 0 5.50358e+08 5.50626e+08 5.5173e+08 5.59004e+08 0
000 039 2 0 5.66138e+08 5.66393e+08 5.67497e+08 5.69936e+08 1
000 040 2 1 5.77917e+08 5.78182e+08 5.79286e+08 5.86039e+08 1
001 041 2 0 5.9036e+08 5.90618e+08 5.91855e+08 5.98441e+08 0
000 042 2 0 6.05733e+08 6.05983e+08 6.07221e+08 6.07996e+08 1
000 043 2 0 6.16498e+08 6.16755e+08 6.17993e+08 6.3646e+08 1
000 044 2 0 6.4392e+08 6.44179e+08 6.45417e+08 6.46653e+08 1
000 045 1 0 6.54223e+08 6.54487e+08 6.55423e+08 6.5817e+08 0
001 046 1 0 6.63105e+08 6.63377e+08 6.63885e+08 6.78608e+08 0
001 047 1 0 6.81159e+08 6.81409e+08 6.82662e+08 6.84921e+08 0
001 048 2 0 6.87327e+08 6.8759e+08 6.88988e+08 6.92166e+08 0
000 049 2 1 6.9944e+08 6.99702e+08 7.011e+08 7.03233e+08 1
001 050 1 0 7.05895e+08 7.06159e+08 7.06922e+08 7.0759e+08 0
001 051 2 0 7.11237e+08 7.11512e+08 7.12615e+08 7.27284e+08 0
000 052 2 0 7.34491e+08 7.34757e+08 7.3586e+08 7.36144e+08 1
000 053 2 0 7.43407e+08 7.43674e+08 7.44777e+08 7.4702e+08 1
000 054 2 0 7.5589e+08 7.56141e+08 7.57244e+08 7.57551e+08 1
000 055 2 0 7.651e+08 7.65371e+08 7.65993e+08 7.67813e+08 0
000 056 1 0 7.75381e+08 7.75639e+08 7.767e+08 7.79192e+08 0
001 057 2 0 7.82503e+08 7.82761e+08 7.83703e+08 7.84786e+08 0
000 058 2 1 7.93077e+08 7.93328e+08 7.94271e+08 8.00334e+08 1
001 059 2 0 8.02687e+08 8.02945e+08 8.04214e+08 8.25583e+08 0
000 060 2 0 8.33068e+08 8.33326e+08 8.34595e+08 8.34652e+08 1
000 061 2 1 8.41931e+08 8.42199e+08 8.43469e+08 8.45721e+08 1
001 062 1 1 8.56571e+08 8.56831e+08 8.58205e+08 8.58655e+08 0
000 063 1 0 8.65756e+08 8.66022e+08 8.67396e+08 8.70787e+08 1
001 064 2 0 8.74091e+08 8.74351e+08 8.75668e+08 8.75679e+08 0
000 065 2 0 8.84822e+08 8.85081e+08 8.86398e+08 8.99189e+08 1
000 066 2 0 9.06597e+08 9.06855e+08 9.08172e+08 9.1555e+08 1
000 067 2 0 9.23072e+08 9.23323e+08 9.24641e+08 9.30657e+08 1
000 068 1 0 9.38155e+08 9.38417e+08 9.38926e+08 9.42884e+08 0
001 069 1 0 9.45431e+08 9.45684e+08 9.47093e+08 9.64315e+08 0
001 070 1 1 9.67073e+08 9.67332e+08 9.68386e+08 9.71546e+08 0
000 071 1 1 9.80391e+08 9.80652e+08 9.81706e+08 9.84513e+08 1
000 072 1 1 9.94033e+08 9.94286e+08 9.9534e+08 1.00636e+09 1
000 073 1 0 1.01576e+09 1.01603e+09 1.01708e+09 1.02117e+09 1
001 074 1 1 1.02349e+09 1.02375e+09 1.02459e+09 1.02671e+09 0
000 075 1 0 1.03413e+09 1.03439e+09 1.03523e+09 1.03571e+09 1
001 076 2 0 1.04087e+09 1.04113e+09 1.04192e+09 1.05147e+09 0
000 077 2 0 1.06217e+09 1.06243e+09 1.06322e+09 1.06867e+09 1
000 078 2 0 1.07576e+09 1.07602e+09 1.07681e+09 1.08353e+09 1
000 079 2 0 1.09191e+09 1.09218e+09 1.09297e+09 1.09594e+09 1
000 080 2 0 1.1064e+09 1.10665e+09 1.10771e+09 1.10779e+09 0
000 081 1 1 1.11628e+09 1.11654e+09 1.11763e+09 1.1183e+09 0
000 082 1 1 1.12642e+09 1.12668e+09 1.12762e+09 1.13925e+09 0
000 083 1 1 1.14647e+09 1.14672e+09 1.14783e+09 1.1493e+09 0
000 084 2 1 1.16087e+09 1.16118e+09 1.16253e+09 1.17624e+09 0
001 085 2 1 1.17986e+09 1.18012e+09 1.18147e+09 1.1932e+09 0
001 086 1 1 1.19845e+09 1.1987e+09 1.19946e+09 1.21781e+09 0
000 087 1 1 1.22497e+09 1.22524e+09 1.226e+09 1.2311e+09 1
000 088 1 0 1.23855e+09 1.23882e+09 1.23958e+09 1.24108e+09 1
001 089 2 1 1.24437e+09 1.24463e+09 1.24534e+09 1.25182e+09 0
001 090 1 0 1.25445e+09 1.25471e+09 1.25558e+09 1.26226e+09 0
001 091 1 0 1.26477e+09 1.26505e+09 1.26632e+09 1.27967e+09 0
001 092 2 1 1.28722e+09 1.28747e+09 1.28854e+09 1.29836e+09 0
001 093 2 0 1.30068e+09 1.30094e+09 1.30193e+09 1.30268e+09 0
000 094 2 0 1.3101e+09 1.31036e+09 1.31134e+09 1.31707e+09 1
000 095 2 0 1.32436e+09 1.32463e+09 1.32561e+09 1.34919e+09 1
000 096 2 0 1.35631e+09 1.35657e+09 1.35755e+09 1.36646e+09 1
000 097 2 1 1.37444e+09 1.37471e+09 1.37522e+09 1.37856e+09 0
001 098 1 0 1.38249e+09 1.38274e+09 1.384e+09 1.38664e+09 0
001 099 1 0 1.3894e+09 1.38966e+09 1.39104e+09 1.39119e+09 0
001 100 1 0 1.39578e+09 1.39604e+09 1.39697e+09 1.40614e+09 0
001 101 2 0 1.40846e+09 1.40871e+09 1.40928e+09 1.41466e+09 0
000 102 2 0 1.42344e+09 1.42371e+09 1.42428e+09 1.42633e+09 1
000 103 2 0 1.43375e+09 1.43401e+09 1.43458e+09 1.45328e+09 1
000 104 2 0 1.46066e+09 1.46091e+09 1.46148e+09 1.46636e+09 1
000 105 2 0 1.47381e+09 1.47407e+09 1.47522e+09 1.47789e+09 0
000 106 1 0 1.4857e+09 1.48597e+09 1.48687e+09 1.48777e+09 0
001 107 1 1 1.5045e+09 1.50476e+09 1.5054e+09 1.50711e+09 0
000 108 1 0 1.51455e+09 1.51482e+09 1.51546e+09 1.52541e+09 1
001 109 1 0 1.52802e+09 1.52828e+09 1.52963e+09 1.53792e+09 0
001 110 2 0 1.54064e+09 1.5409e+09 1.54144e+09 1.54395e+09 0
000 111 2 0 1.55111e+09 1.55137e+09 1.55191e+09 1.58267e+09 1
000 112 2 0 1.58995e+09 1.59021e+09 1.59075e+09 1.59618e+09 1
000 113 2 1 1.60347e+09 1.60373e+09 1.60427e+09 1.61075e+09 1
001 114 1 1 1.61325e+09 1.6135e+09 1.61426e+09 1.62603e+09 0
000 115 1 0 1.63321e+09 1.63346e+09 1.63423e+09 1.63772e+09 1
001 116 1 0 1.64034e+09 1.64061e+09 1.64122e+09 1.6417e+09 0
001 117 2 0 1.64638e+09 1.64664e+09 1.64734e+09 1.67714e+09 0
000 118 2 0 1.6846e+09 1.68485e+09 1.68556e+09 1.69337e+09 1
000 119 2 1 1.70088e+09 1.70115e+09 1.70185e+09 1.71181e+09 1
001 120 2 0 1.71531e+09 1.71557e+09 1.7161e+09 1.74805e+09 0
000 121 2 0 1.75556e+09 1.75582e+09 1.75635e+09 1.75945e+09 1
000 122 2 1 1.78181e+09 1.78207e+09 1.7826e+09 1.78536e+09 1
001 123 2 1 1.78884e+09 1.7891e+09 1.79041e+09 1.80129e+09 0
001 124 1 0 1.80362e+09 1.80387e+09 1.80531e+09 1.80748e+09 0
001 125 2 0 1.8102e+09 1.81046e+09 1.81153e+09 1.81607e+09 0
000 126 2 1 1.82415e+09 1.82442e+09 1.82549e+09 1.85497e+09 1
001 127 1 0 1.85743e+09 1.85769e+09 1.85832e+09 1.86259e+09 0
001 128 2 0 1.86495e+09 1.8652e+09 1.8667e+09 1.8682e+09 0
000 129 2 0 1.8762e+09 1.87646e+09 1.87795e+09 1.8824e+09 1
000 130 2 1 1.88991e+09 1.89017e+09 1.89166e+09 1.90375e+09 1
001 131 1 0 1.9083e+09 1.90856e+09 1.90974e+09 1.91002e+09 0
001 132 1 1 1.91402e+09 1.91428e+09 1.91575e+09 1.91661e+09 0
000 133 1 1 1.92374e+09 1.92399e+09 1.92546e+09 1.98636e+09 1
000 134 1 0 1.99376e+09 1.99403e+09 1.9955e+09 2.02227e+09 1
001 135 1 1 2.02529e+09 2.02555e+09 2.02665e+09 2.04844e+09 0
000 136 1 1 2.05582e+09 2.05607e+09 2.05717e+09 2.06782e+09 1
000 137 1 1 2.08411e+09 2.08438e+09 2.08547e+09 2.08552e+09 1
000 138 1 0 2.09278e+09 2.09304e+09 2.09413e+09 2.10494e+09 1
001 139 1 0 2.10744e+09 2.10769e+09 2.10848e+09 2.15314e+09 0
001 140 1 1 2.15937e+09 2.15964e+09 2.16038e+09 2.18597e+09 0
000 141 1 0 2.19312e+09 2.19338e+09 2.19412e+09 2.22494e+09 1
001 142 2 0 2.2276e+09 2.22786e+09 2.22912e+09 2.24385e+09 0
000 143 2 0 2.25137e+09 2.25162e+09 2.25288e+09 2.26593e+09 1
000 144 2 0 2.27302e+09 2.27327e+09 2.27453e+09 2.28504e+09 1
000 145 2 0 2.29321e+09 2.29347e+09 2.29473e+09 2.30951e+09 1
000 146 2 0 2.3169e+09 2.31717e+09 2.31777e+09 2.38105e+09 0
000 147 2 1 2.38827e+09 2.38853e+09 2.38986e+09 2.39287e+09 0
001 148 1 0 2.39537e+09 2.39564e+09 2.3964e+09 2.4087e+09 0
001 149 1 1 2.41158e+09 2.41185e+09 2.4129e+09 2.41979e+09 0
000 150 1 1 2.42685e+09 2.42712e+09 2.42817e+09 2.4404e+09 1
000 151 1 0 2.44791e+09 2.44817e+09 2.44923e+09 2.53734e+09 1
001 152 2 0 2.53976e+09 2.54002e+09 2.54124e+09 2.55637e+09 0
000 153 2 0 2.56352e+09 2.56379e+09 2.56501e+09 2.58319e+09 1
000 154 2 0 2.59055e+09 2.59081e+09 2.59203e+09 2.59858e+09 1
000 155 2 1 2.6135e+09 2.61375e+09 2.61498e+09 2.62018e+09 1
001 156 1 0 2.62274e+09 2.62299e+09 2.62412e+09 2.65693e+09 0
001 157 2 1 2.66119e+09 2.66146e+09 2.66238e+09 2.66696e+09 0
001 158 1 0 2.6739e+09 2.67416e+09 2.6747e+09 2.68328e+09 0
001 159 2 1 2.68601e+09 2.68627e+09 2.68762e+09 2.73813e+09 0
001 160 1 0 2.74059e+09 2.74084e+09 2.7422e+09 2.74493e+09 0
001 161 1 0 2.74738e+09 2.74763e+09 2.74881e+09 2.74889e+09 0
001 162 1 0 2.75275e+09 2.75301e+09 2.75398e+09 2.75435e+09 0
001 163 2 0 2.75841e+09 2.75867e+09 2.75957e+09 2.80598e+09 0
000 164 2 0 2.81453e+09 2.81479e+09 2.81568e+09 2.82307e+09 1
000 165 2 0 2.83064e+09 2.8309e+09 2.8318e+09 2.83343e+09 1
000 166 2 1 2.84059e+09 2.84085e+09 2.84174e+09 2.92221e+09 1
001 167 1 1 2.92476e+09 2.92502e+09 2.92597e+09 2.9546e+09 0
000 168 1 1 2.96199e+09 2.96225e+09 2.9632e+09 3.03983e+09 1
000 169 1 1 3.04724e+09 3.04751e+09 3.04845e+09 3.08778e+09 1
000 170 1 1 3.09486e+09 3.09513e+09 3.09607e+09 3.10403e+09 1
000 171 1 1 3.11492e+09 3.11519e+09 3.1159e+09 3.12433e+09 0
000 172 1 1 3.13181e+09 3.13206e+09 3.13259e+09 3.13314e+09 0
000 173 2 1 3.14058e+09 3.14084e+09 3.14162e+09 3.14754e+09 0
001 174 2 1 3.15573e+09 3.15599e+09 3.15677e+09 3.16505e+09 0
001 175 2 0 3.16773e+09 3.16799e+09 3.1693e+09 3.17187e+09 0
000 176 2 1 3.17901e+09 3.17928e+09 3.18058e+09 3.20501e+09 1
001 177 2 0 3.20738e+09 3.20764e+09 3.20857e+09 3.23905e+09 0
000 178 2 0 3.24667e+09 3.24693e+09 3.24786e+09 3.25625e+09 1
000 179 2 0 3.26342e+09 3.26368e+09 3.26462e+09 3.27664e+09 1
000 180 2 0 3.28524e+09 3.2855e+09 3.28644e+09 3.30875e+09 1
000 181 2 0 3.31917e+09 3.31943e+09 3.32058e+09 3.32071e+09 0
000 182 2 0 3.33225e+09 3.33251e+09 3.33383e+09 3.33391e+09 0
000 183 2 0 3.34242e+09 3.34269e+09 3.34364e+09 3.3494e+09 0
000 184 2 0 3.35652e+09 3.35678e+09 3.35733e+09 3.41981e+09 0
000 185 2 1 3.42855e+09 3.4288e+09 3.42967e+09 3.44625e+09 0
001 186 1 0 3.44898e+09 3.44925e+09 3.45002e+09 3.46506e+09 0
001 187 2 0 3.46788e+09 3.46813e+09 3.46889e+09 3.53909e+09 0
000 188 2 0 3.54652e+09 3.54678e+09 3.54754e+09 3.56425e+09 1
000 189 2 0 3.57143e+09 3.57168e+09 3.57244e+09 3.63282e+09 1
000 190 2 0 3.64028e+09 3.64053e+09 3.64129e+09 3.68583e+09 1
000 191 2 0 3.69305e+09 3.69332e+09 3.69434e+09 3.70904e+09 0
000 192 2 0 3.71713e+09 3.7174e+09 3.71796e+09 3.71843e+09 0
000 193 1 0 3.72576e+09 3.72602e+09 3.72724e+09 3.74702e+09 0
001 194 2 0 3.74976e+09 3.75003e+09 3.75076e+09 3.75368e+09 0
000 195 2 0 3.76127e+09 3.76153e+09 3.76226e+09 3.81898e+09 1
000 196 2 0 3.82656e+09 3.82681e+09 3.82754e+09 3.89492e+09 1
000 197 2 0 3.90201e+09 3.90226e+09 3.90299e+09 3.98306e+09 1
000 198 2 0 3.99015e+09 3.99042e+09 3.99184e+09 4.00221e+09 0
000 199 1 1 4.01043e+09 4.01069e+09 4.01191e+09 4.01584e+09 0
000 200 1 0 4.02355e+09 4.02381e+09 4.02508e+09 4.07937e+09 0
001 201 2 1 4.08476e+09 4.08502e+09 4.08604e+09 4.09376e+09 0
001 202 1 1 4.09651e+09 4.09677e+09 4.09772e+09 4.09788e+09 0
000 203 1 1 4.10525e+09 4.10551e+09 4.10646e+09 4.11259e+09 1
000 204 1 1 4.12003e+09 4.12028e+09 4.12124e+09 4.13794e+09 1
000 205 1 0 4.14519e+09 4.14545e+09 4.1464e+09 4.19236e+09 1
001 206 1 0 4.19761e+09 4.19787e+09 4.19878e+09 4.20898e+09 0
001 207 1 0 4.21206e+09 4.21232e+09 4.21291e+09 4.21725e+09 0
001 208 1 1 4.21993e+09 4.22018e+09 4.22069e+09 4.22073e+09 0
000 209 1 1 4.22794e+09 4.2282e+09 4.22871e+09 4.24043e+09 1
000 210 1 0 4.24788e+09 4.24814e+09 4.24865e+09 4.27243e+09 1
001 211 1 0 4.27855e+09 4.27881e+09 4.27961e+09 4.04821e+06 0
001 212 1 0 6.8219e+06 7.07401e+06 8.35203e+06 1.10391e+07 0
001 213 1 0 1.53313e+07 1.55834e+07 1.63004e+07 1.88031e+07 0
001 214 1 0 2.13566e+07 2.16198e+07 2.30591e+07 2.35368e+07 0
001 215 2 1 2.8459e+07 2.87131e+07 2.99554e+07 3.28947e+07 0
001 216 1 1 3.74805e+07 3.77459e+07 3.82465e+07 7.33652e+07 0
000 217 1 0 8.07137e+07 8.09753e+07 8.14759e+07 1.26962e+08 1
001 218 2 1 1.32807e+08 1.33066e+08 1.33734e+08 1.34934e+08 0
001 219 1 1 1.38447e+08 1.38706e+08 1.39302e+08 1.4484e+08 0
000 220 1 1 1.52002e+08 1.52264e+08 1.5286e+08 1.5304e+08 1
000 221 1 0 1.62818e+08 1.63072e+08 1.63667e+08 2.58302e+08 1
001 222 2 0 2.61702e+08 2.61994e+08 2.62546e+08 3.58395e+08 0
000 223 2 0 3.6594e+08 3.66198e+08 3.6675e+08 5.13867e+08 1
000 224 2 0 5.2297e+08 5.23232e+08 5.23784e+08 5.48676e+08 1
000 225 2 1 5.573e+08 5.57552e+08 5.58104e+08 5.69456e+08 1
001 226 1 0 5.78515e+08 5.78769e+08 5.79737e+08 5.97447e+08 0
001 227 2 0 6.02131e+08 6.02433e+08 6.03663e+08 6.1992e+08 0
000 228 2 0 6.2736e+08 6.27611e+08 6.28842e+08 6.34929e+08 1
000 229 2 1 6.43216e+08 6.43466e+08 6.44696e+08 7.1253e+08 1
001 230 1 0 7.27455e+08 7.27715e+08 7.28245e+08 7.33497e+08 0
001 231 1 1 7.38559e+08 7.38823e+08 7.40297e+08 7.73104e+08 0
000 232 1 0 7.81951e+08 7.82203e+08 7.83677e+08 7.85324e+08 1
001 233 1 0 7.91021e+08 7.91279e+08 7.92777e+08 7.92983e+08 0
001 234 1 0 8.00887e+08 8.01143e+08 8.01691e+08 8.01769e+08 0
001 235 1 0 8.08652e+08 8.08913e+08 8.0969e+08 8.14182e+08 0
001 236 2 0 8.26807e+08 8.27062e+08 8.27822e+08 8.28202e+08 0
000 237 2 1 8.40998e+08 8.41251e+08 8.42012e+08 8.46924e+08 1
001 238 2 1 8.50601e+08 8.50858e+08 8.51443e+08 8.51498e+08 0
001 239 2 0 8.56155e+08 8.56421e+08 8.57471e+08 8.58921e+08 0
000 240 2 1 8.66425e+08 8.66677e+08 8.67727e+08 8.77885e+08 1
001 241 1 0 8.83151e+08 8.83405e+08 8.8463e+08 8.85372e+08 0
001 242 2 0 8.92709e+08 8.92969e+08 8.93692e+08 8.96572e+08 0
000 243 2 1 9.06041e+08 9.06307e+08 9.0703e+08 9.07972e+08 1
001 244 2 1 9.12738e+08 9.12996e+08 9.14432e+08 9.16026e+08 0
001 245 1 0 9.24381e+08 9.24638e+08 9.25278e+08 9.25582e+08 0
001 246 1 0 9.3193e+08 9.32193e+08 9.33165e+08 9.63802e+08 0
001 247 1 0 9.66312e+08 9.66573e+08 9.67327e+08 9.6744e+08 0
001 248 2 0 9.71807e+08 9.72079e+08 9.73567e+08 1.00199e+09 0
000 249 2 0 1.00929e+09 1.00956e+09 1.01105e+09 1.02947e+09 1
000 250 2 0 1.03721e+09 1.03746e+09 1.03895e+09 1.12439e+09 1
000 251 2 0 1.14039e+09 1.14065e+09 1.14214e+09 1.15032e+09 1
000 252 1 0 1.15755e+09 1.15781e+09 1.15897e+09 1.16322e+09 0
001 253 1 1 1.17242e+09 1.17268e+09 1.17364e+09 1.18071e+09 0
000 254 1 0 1.19225e+09 1.19251e+09 1.19347e+09 1.19798e+09 1
001 255 2 1 1.20453e+09 1.20479e+09 1.20575e+09 1.21456e+09 0
001 256 2 1 1.22324e+09 1.22349e+09 1.22477e+09 1.23225e+09 0
001 257 2 0 1.23479e+09 1.23506e+09 1.2358e+09 1.2362e+09 0
000 258 2 0 1.24682e+09 1.24708e+09 1.24782e+09 1.2506e+09 1
000 259 2 0 1.25944e+09 1.2597e+09 1.26044e+09 1.26231e+09 1
000 260 2 0 1.26964e+09 1.2699e+09 1.27065e+09 1.27792e+09 1
000 261 1 0 1.28543e+09 1.28569e+09 1.28671e+09 1.29128e+09 0
001 262 2 0 1.29391e+09 1.29417e+09 1.29518e+09 1.33846e+09 0
000 263 2 0 1.34552e+09 1.34579e+09 1.34679e+09 1.35497e+09 1
000 264 2 0 1.36291e+09 1.36318e+09 1.36418e+09 1.40095e+09 1
000 265 2 0 1.40909e+09 1.40934e+09 1.41035e+09 1.41215e+09 1
000 266 2 0 1.43127e+09 1.43152e+09 1.4321e+09 1.43714e+09 0
000 267 1 0 1.44428e+09 1.44453e+09 1.44522e+09 1.45042e+09 0
001 268 2 1 1.45691e+09 1.45717e+09 1.45866e+09 1.4614e+09 0
001 269 1 1 1.46397e+09 1.46422e+09 1.46497e+09 1.46992e+09 0
000 270 1 0 1.47833e+09 1.47858e+09 1.47932e+09 1.48273e+09 1
001 271 2 1 1.48555e+09 1.48581e+09 1.48643e+09 1.49467e+09 0
001 272 1 1 1.49785e+09 1.49811e+09 1.49865e+09 1.49907e+09 0
000 273 1 0 1.50738e+09 1.50763e+09 1.50817e+09 1.52585e+09 1
001 274 2 0 1.53122e+09 1.53148e+09 1.53216e+09 1.53996e+09 0
000 275 2 0 1.54723e+09 1.54748e+09 1.54816e+09 1.84766e+09 1
000 276 2 0 1.85622e+09 1.85648e+09 1.85716e+09 1.86993e+09 1
000 277 2 0 1.87745e+09 1.8777e+09 1.87838e+09 1.87994e+09 1
000 278 2 0 1.88723e+09 1.88749e+09 1.88878e+09 1.89361e+09 0
000 279 1 0 1.90296e+09 1.90323e+09 1.90447e+09 1.90485e+09 0
001 280 1 0 1.91026e+09 1.91052e+09 1.91168e+09 1.91287e+09 0
001 281 1 0 1.91687e+09 1.91714e+09 1.91828e+09 1.92485e+09 0
001 282 2 0 1.92761e+09 1.92786e+09 1.9285e+09 2.0242e+09 0
000 283 2 0 2.03145e+09 2.03171e+09 2.03235e+09 2.03824e+09 1
000 284 2 0 2.04601e+09 2.04627e+09 2.04691e+09 2.17189e+09 1
000 285 2 0 2.18061e+09 2.18087e+09 2.18151e+09 2.18525e+09 1
000 286 2 1 2.20123e+09 2.20148e+09 2.20206e+09 2.20223e+09 0
001 287 1 0 2.20953e+09 2.20979e+09 2.21106e+09 2.21149e+09 0
001 288 2 0 2.21502e+09 2.21528e+09 2.21593e+09 2.23743e+09 0
000 289 2 0 2.24487e+09 2.24513e+09 2.24578e+09 2.2676e+09 1
000 290 2 0 2.27484e+09 2.2751e+09 2.27575e+09 2.29614e+09 1
000 291 2 0 2.30339e+09 2.30369e+09 2.30434e+09 2.32119e+09 1
000 292 1 0 2.32839e+09 2.32867e+09 2.32953e+09 2.34911e+09 0
001 293 2 0 2.35177e+09 2.35202e+09 2.35307e+09 2.36132e+09 0
000 294 2 0 2.37051e+09 2.37077e+09 2.37182e+09 2.39241e+09 1
000 295 2 0 2.39991e+09 2.40017e+09 2.40122e+09 2.44475e+09 1
000 296 2 0 2.45191e+09 2.45217e+09 2.45322e+09 2.48175e+09 1
000 297 1 0 2.48911e+09 2.48938e+09 2.49078e+09 2.49185e+09 0
001 298 1 1 2.49534e+09 2.4956e+09 2.49649e+09 2.50204e+09 0
000 299 1 0 2.5094e+09 2.50966e+09 2.51055e+09 2.84614e+09 1
001 300 1 1 2.85935e+09 2.85961e+09 2.861e+09 2.86418e+09 0
000 301 1 0 2.87486e+09 2.87513e+09 2.87652e+09 2.98073e+09 1
001 302 2 0 2.9833e+09 2.98356e+09 2.98417e+09 2.98789e+09 0
000 303 2 1 2.99733e+09 2.9976e+09 2.99821e+09 3.0038e+09 1
001 304 1 1 3.01355e+09 3.01381e+09 3.01498e+09 3.01878e+09 0
000 305 1 0 3.03057e+09 3.03083e+09 3.03201e+09 3.18631e+09 1
001 306 2 0 3.18909e+09 3.18935e+09 3.19033e+09 3.19265e+09 0
000 307 2 0 3.20007e+09 3.20033e+09 3.20131e+09 3.21819e+09 1
000 308 2 0 3.22552e+09 3.22578e+09 3.22675e+09 3.24344e+09 1
000 309 2 0 3.25052e+09 3.25078e+09 3.25176e+09 3.2588e+09 1
000 310 1 0 3.26628e+09 3.26654e+09 3.26741e+09 3.33471e+09 0
001 311 2 0 3.33751e+09 3.33777e+09 3.33897e+09 3.34671e+09 0
000 312 2 0 3.35459e+09 3.35485e+09 3.35606e+09 3.38309e+09 1
000 313 2 0 3.39037e+09 3.39063e+09 3.39183e+09 3.39252e+09 1
000 314 2 0 3.39964e+09 3.39989e+09 3.4011e+09 3.40112e+09 1
000 315 2 1 3.40937e+09 3.40963e+09 3.411e+09 3.42227e+09 0
001 316 2 1 3.43753e+09 3.4378e+09 3.43917e+09 3.43919e+09 0
001 317 2 0 3.44933e+09 3.44959e+09 3.45063e+09 3.45068e+09 0
000 318 2 0 3.45879e+09 3.45905e+09 3.46009e+09 3.4618e+09 1
000 319 2 1 3.48291e+09 3.48317e+09 3.48421e+09 3.4843e+09 1
001 320 2 0 3.50303e+09 3.5033e+09 3.50456e+09 3.50467e+09 0
000 321 2 0 3.51526e+09 3.51553e+09 3.51679e+09 3.5389e+09 1
000 322 2 0 3.54618e+09 3.54644e+09 3.5477e+09 3.61454e+09 1
000 323 2 0 3.6285e+09 3.62875e+09 3.63001e+09 3.63137e+09 1
000 324 2 1 3.63944e+09 3.63969e+09 3.64039e+09 3.64228e+09 0
001 325 1 0 3.66271e+09 3.66296e+09 3.6642e+09 3.66424e+09 0
001 326 2 0 3.675e+09 3.67526e+09 3.67615e+09 3.69033e+09 0
000 327 2 0 3.69751e+09 3.69777e+09 3.69866e+09 3.73385e+09 1
000 328 2 0 3.74218e+09 3.74245e+09 3.74335e+09 3.74933e+09 1
000 329 2 1 3.75641e+09 3.75667e+09 3.75757e+09 3.77889e+09 1
001 330 1 1 3.78193e+09 3.78219e+09 3.78338e+09 3.81147e+09 0
000 331 1 1 3.82052e+09 3.82078e+09 3.82197e+09 3.84849e+09 1
000 332 1 0 3.85671e+09 3.85697e+09 3.85815e+09 3.85864e+09 1
001 333 2 0 3.86422e+09 3.86449e+09 3.86572e+09 3.89972e+09 0
000 334 2 0 3.90714e+09 3.9074e+09 3.90864e+09 3.92182e+09 1
000 335 2 0 3.93052e+09 3.93079e+09 3.93203e+09 3.93484e+09 1
000 336 2 0 3.94208e+09 3.94233e+09 3.94357e+09 3.94923e+09 1
000 337 2 0 3.95658e+09 3.95684e+09 3.95751e+09 3.96149e+09 0
000 338 1 0 3.96903e+09 3.96929e+09 3.97021e+09 3.9937e+09 0
001 339 2 0 3.99671e+09 3.99697e+09 3.99801e+09 3.99892e+09 0
000 340 2 0 4.00878e+09 4.00904e+09 4.01008e+09 4.03697e+09 1
000 341 2 0 4.0445e+09 4.04475e+09 4.0458e+09 4.07424e+09 1
000 342 2 0 4.08152e+09 4.08178e+09 4.08283e+09 4.10148e+09 1
000 343 2 0 4.10902e+09 4.10932e+09 4.11028e+09 4.13778e+09 0
000 344 2 1 4.14491e+09 4.1452e+09 4.14583e+09 4.18591e+09 0
001 345 1 0 4.19393e+09 4.19419e+09 4.19473e+09 4.19552e+09 0
001 346 2 0 4.20606e+09 4.20631e+09 4.20766e+09 4.21297e+09 0
000 347 2 0 4.22172e+09 4.22198e+09 4.22333e+09 4.22484e+09 1
000 348 2 1 4.23231e+09 4.23258e+09 4.23393e+09 4.23433e+09 1
001 349 1 0 4.24012e+09 4.24039e+09 4.24174e+09 4.2429e+09 0
001 350 1 0 4.24892e+09 4.24917e+09 4.24992e+09 4.26803e+09 0
001 351 2 0 4.27298e+09 4.27324e+09 4.2743e+09 5.30372e+07 0
000 352 2 0 6.50957e+07 6.53605e+07 6.64253e+07 6.84834e+07 1
000 353 2 0 7.56214e+07 7.58778e+07 7.69427e+07 8.21931e+07 1
000 354 2 0 9.07141e+07 9.09776e+07 9.20425e+07 9.62732e+07 1
000 355 1 1 1.04066e+08 1.04336e+08 1.05185e+08 1.15848e+08 0
000 356 2 0 1.30679e+08 1.30933e+08 1.32088e+08 1.52614e+08 0
000 357 1 0 1.60054e+08 1.6032e+08 1.61131e+08 1.81924e+08 0
001 358 2 0 1.88063e+08 1.88316e+08 1.89557e+08 1.98217e+08 0
000 359 2 1 2.07719e+08 2.07978e+08 2.09219e+08 2.09225e+08 1
001 360 1 1 2.18881e+08 2.19141e+08 2.2026e+08 2.20428e+08 0
000 361 1 0 2.27535e+08 2.27787e+08 2.28906e+08 2.3388e+08 1
001 362 2 0 2.39527e+08 2.39793e+08 2.40768e+08 2.56305e+08 0
000 363 2 0 2.69448e+08 2.69701e+08 2.70676e+08 2.74184e+08 1
000 364 2 1 2.83936e+08 2.84204e+08 2.85178e+08 2.86238e+08 1
001 365 1 0 2.93236e+08 2.93493e+08 2.94171e+08 3.00557e+08 0
001 366 2 0 3.03377e+08 3.03643e+08 3.04761e+08 3.227e+08 0
000 367 2 0 3.29993e+08 3.30252e+08 3.31369e+08 3.33119e+08 1
000 368 2 1 3.43799e+08 3.4407e+08 3.45187e+08 3.4811e+08 1
001 369 2 1 3.52912e+08 3.5317e+08 3.54247e+08 3.57555e+08 0
001 370 2 0 3.69849e+08 3.7011e+08 3.71429e+08 3.79538e+08 0
000 371 2 0 4.01364e+08 4.01626e+08 4.02945e+08 4.07361e+08 1
000 372 2 1 4.16718e+08 4.1698e+08 4.18299e+08 4.18596e+08 1
001 373 2 0 4.22526e+08 4.22788e+08 4.23919e+08 4.28007e+08 0
000 374 2 0 4.44946e+08 4.45201e+08 4.46333e+08 6.81388e+08 1
000 375 2 1 6.89564e+08 6.89828e+08 6.90959e+08 6.90974e+08 1
001 376 2 0 7.10327e+08 7.10588e+08 7.115e+08 7.41605e+08 0
000 377 2 0 7.49929e+08 7.50191e+08 7.51102e+08 7.58254e+08 1
000 378 2 0 7.65722e+08 7.65984e+08 7.66895e+08 7.73658e+08 1
000 379 2 0 7.81021e+08 7.81282e+08 7.82194e+08 8.38504e+08 1
000 380 2 0 8.45725e+08 8.45997e+08 8.4743e+08 9.13678e+08 0
000 381 2 0 9.21239e+08 9.21494e+08 9.22643e+08 9.25381e+08 0
000 382 1 0 9.3292e+08 9.33171e+08 9.34337e+08 9.37719e+08 0
001 383 1 1 9.45143e+08 9.45409e+08 9.46179e+08 9.47975e+08 0
000 384 1 0 9.56666e+08 9.56923e+08 9.57694e+08 9.91413e+08 1
001 385 1 1 9.99143e+08 9.99402e+08 9.99909e+08 9.99922e+08 0
000 386 1 0 1.0084e+09 1.00866e+09 1.00917e+09 1.01084e+09 1
001 387 1 0 1.01677e+09 1.01703e+09 1.01782e+09 1.01914e+09 0
001 388 1 0 1.03508e+09 1.03533e+09 1.03605e+09 1.03986e+09 0
001 389 2 1 1.04719e+09 1.04745e+09 1.04821e+09 1.05723e+09 0
001 390 1 1 1.0596e+09 1.0599e+09 1.06109e+09 1.06244e+09 0
000 391 1 0 1.07163e+09 1.07189e+09 1.07308e+09 1.0749e+09 1
001 392 1 0 1.07752e+09 1.07777e+09 1.07868e+09 1.08237e+09 0
001 393 2 0 1.09456e+09 1.09484e+09 1.09613e+09 1.09807e+09 0
000 394 2 1 1.10554e+09 1.1058e+09 1.1071e+09 1.12018e+09 1
001 395 1 0 1.12571e+09 1.12597e+09 1.12698e+09 1.13502e+09 0
001 396 1 0 1.13866e+09 1.13893e+09 1.13981e+09 1.1633e+09 0
001 397 1 0 1.16593e+09 1.16619e+09 1.16747e+09 1.17374e+09 0
001 398 1 0 1.17912e+09 1.17938e+09 1.18016e+09 1.18476e+09 0
001 399 2 0 1.18745e+09 1.18771e+09 1.18875e+09 1.20007e+09 0
000 400 2 0 1.20741e+09 1.20767e+09 1.20872e+09 1.22127e+09 1
000 401 2 0 1.2287e+09 1.22896e+09 1.23e+09 1.31044e+09 1
000 402 2 1 1.32163e+09 1.32189e+09 1.32293e+09 1.32294e+09 1
001 403 1 1 1.32788e+09 1.32813e+09 1.32956e+09 1.33194e+09 0
000 404 1 0 1.34346e+09 1.34371e+09 1.34514e+09 1.34773e+09 1
001 405 2 0 1.36745e+09 1.3677e+09 1.36875e+09 1.37146e+09 0
000 406 2 0 1.38545e+09 1.38571e+09 1.38677e+09 1.38678e+09 1
000 407 2 0 1.3962e+09 1.39645e+09 1.3975e+09 1.68114e+09 1
000 408 2 0 1.69123e+09 1.6915e+09 1.69255e+09 1.69667e+09 1
000 409 2 0 1.70511e+09 1.70537e+09 1.70625e+09 1.71178e+09 0
000 410 2 0 1.71909e+09 1.71934e+09 1.72003e+09 1.72512e+09 0
000 411 1 0 1.73328e+09 1.73355e+09 1.73468e+09 1.73983e+09 0
001 412 2 1 1.74835e+09 1.7486e+09 1.74994e+09 1.75035e+09 0
001 413 2 0 1.7575e+09 1.75776e+09 1.75916e+09 1.75918e+09 0
000 414 2 0 1.76655e+09 1.76681e+09 1.76821e+09 1.94848e+09 1
000 415 2 1 1.95973e+09 1.96003e+09 1.96143e+09 1.9619e+09 1
001 416 1 0 1.96664e+09 1.96689e+09 1.9678e+09 1.97055e+09 0
001 417 1 0 1.97887e+09 1.97912e+09 1.98001e+09 1.98289e+09 0
001 418 2 0 1.99108e+09 1.99133e+09 1.99211e+09 2.00998e+09 0
000 419 2 0 2.01731e+09 2.01758e+09 2.01836e+09 2.12445e+09 1
000 420 2 0 2.13163e+09 2.13189e+09 2.13267e+09 2.33739e+09 1
000 421 2 0 2.34526e+09 2.34552e+09 2.3463e+09 2.35964e+09 1
000 422 1 0 2.36718e+09 2.36744e+09 2.36861e+09 2.37782e+09 0
001 423 2 0 2.38188e+09 2.38214e+09 2.38297e+09 2.42331e+09 0
000 424 2 0 2.43063e+09 2.4309e+09 2.43173e+09 2.46086e+09 1
000 425 2 0 2.46798e+09 2.46825e+09 2.46908e+09 2.47313e+09 1
000 426 2 0 2.48024e+09 2.48049e+09 2.48133e+09 2.48263e+09 1
000 427 1 0 2.48981e+09 2.49008e+09 2.4913e+09 2.54958e+09 0
001 428 1 0 2.55748e+09 2.55775e+09 2.55904e+09 2.56554e+09 0
001 429 1 1 2.57157e+09 2.57183e+09 2.57284e+09 2.64606e+09 0
000 430 1 0 2.6531e+09 2.65336e+09 2.65437e+09 2.65479e+09 1
001 431 1 0 2.65854e+09 2.6588e+09 2.65988e+09 2.67252e+09 0
001 432 2 0 2.67517e+09 2.67543e+09 2.67646e+09 2.70996e+09 0
000 433 2 0 2.7207e+09 2.72097e+09 2.722e+09 2.72926e+09 1
000 434 2 0 2.73952e+09 2.73978e+09 2.74081e+09 2.8963e+09 1
000 435 2 0 2.90377e+09 2.90402e+09 2.90505e+09 2.90764e+09 1
000 436 2 0 2.91501e+09 2.91527e+09 2.91589e+09 2.9779e+09 0
000 437 2 0 2.98513e+09 2.98538e+09 2.98649e+09 2.98827e+09 0
000 438 1 0 2.99811e+09 2.99837e+09 2.99959e+09 3.04619e+09 0
001 