trial trialType response stillTime stimOnset stimOffset respTime correctionTrial correct
001 1 1 3.13346e+06 3.40052e+06 3.94271e+06 7.32352e+06 0
000 002 1 0 1.46125e+07 1.48749e+07 1.5417e+07 3.54147e+08 1
001 003 1 0 3.63313e+08 3.63572e+08 3.64681e+08 3.64943e+08 0
001 004 2 1 3.68801e+08 3.69054e+08 3.69702e+08 3.76092e+08 0
001 005 2 1 3.78818e+08 3.79077e+08 3.79842e+08 3.87723e+08 0
001 006 1 1 3.91465e+08 3.91731e+08 3.93169e+08 4.3966e+08 0
000 007 1 1 4.47716e+08 4.47977e+08 4.49415e+08 4.49668e+08 1
000 008 1 1 4.57099e+08 4.57362e+08 4.58801e+08 4.62953e+08 1
000 009 1 1 4.81919e+08 4.82187e+08 4.83625e+08 4.86155e+08 1
000 010 1 1 4.9344e+08 4.93698e+08 4.94867e+08 4.95195e+08 0
000 011 1 0 5.03566e+08 5.03832e+08 5.04756e+08 5.08464e+08 0
001 012 1 1 5.1443e+08 5.14695e+08 5.15516e+08 5.57961e+08 0
000 013 1 1 5.65506e+08 5.65772e+08 5.66594e+08 6.00435e+08 1
000 014 1 1 6.08483e+08 6.08751e+08 6.09573e+08 6.11874e+08 1
000 015 1 1 6.19403e+08 6.19672e+08 6.20494e+08 6.26713e+08 1
000 016 1 1 6.34995e+08 6.35261e+08 6.3577e+08 6.40284e+08 0
000 017 1 1 6.47737e+08 6.47998e+08 6.49414e+08 6.52365e+08 0
000 018 2 1 6.74054e+08 6.74319e+08 6.74883e+08 6.75815e+08 0
001 019 2 0 6.80008e+08 6.80283e+08 6.80861e+08 6.81114e+08 0
000 020 2 1 6.9076e+08 6.91034e+08 6.91612e+08 6.99338e+08 1
001 021 1 1 7.01979e+08 7.0225e+08 7.03561e+08 7.05026e+08 0
000 022 1 1 7.12242e+08 7.12501e+08 7.13812e+08 7.14554e+08 1
000 023 1 1 7.21801e+08 7.22066e+08 7.23378e+08 7.33266e+08 1
000 024 1 0 7.4207e+08 7.42326e+08 7.43638e+08 7.86171e+08 1
001 025 1 1 7.88999e+08 7.89271e+08 7.90157e+08 7.93377e+08 0
000 026 1 1 8.03536e+08 8.03794e+08 8.0468e+08 8.1028e+08 1
000 027 1 1 8.17437e+08 8.1771e+08 8.18596e+08 8.27896e+08 1
000 028 1 1 8.3696e+08 8.37227e+08 8.38113e+08 8.40187e+08 1
000 029 1 1 8.49809e+08 8.5007e+08 8.50793e+08 8.51197e+08 0
000 030 1 1 8.59578e+08 8.59851e+08 8.61133e+08 8.61361e+08 0
000 031 1 1 8.70526e+08 8.70784e+08 8.7206e+08 8.74156e+08 0
000 032 1 1 8.82781e+08 8.8305e+08 8.84327e+08 8.8437e+08 0
000 033 1 0 8.94191e+08 8.94459e+08 8.95823e+08 8.9967e+08 0
001 034 2 1 9.06172e+08 9.06435e+08 9.07196e+08 9.11487e+08 0
001 035 2 1 9.14108e+08 9.1437e+08 9.14953e+08 9.17577e+08 0
001 036 1 0 9.20023e+08 9.20284e+08 9.21391e+08 9.21504e+08 0
001 037 2 0 9.25927e+08 9.26193e+08 9.26853e+08 9.2948e+08 0
000 038 2 1 9.36674e+08 9.36941e+08 9.37601e+08 9.38324e+08 1
001 039 2 1 9.42131e+08 9.42388e+08 9.43343e+08 9.44267e+08 0
001 040 1 1 9.47819e+08 9.48091e+08 9.48704e+08 9.49722e+08 0
000 041 1 0 9.57771e+08 9.58041e+08 9.58654e+08 9.58766e+08 1
001 042 2 1 9.64599e+08 9.64856e+08 9.6546e+08 9.66364e+08 0
001 043 1 1 9.73357e+08 9.73623e+08 9.74644e+08 9.75463e+08 0
000 044 1 1 9.82858e+08 9.83122e+08 9.84144e+08 9.92017e+08 1
000 045 1 1 9.99555e+08 9.99837e+08 1.00086e+09 1.0451e+09 1
000 046 1 1 1.0533e+09 1.05358e+09 1.0546e+09 1.06907e+09 1
000 047 2 0 1.07638e+09 1.07664e+09 1.07778e+09 1.09762e+09 0
000 048 2 1 1.10591e+09 1.10616e+09 1.1075e+09 1.10857e+09 0
001 049 2 1 1.11176e+09 1.11203e+09 1.11263e+09 1.11767e+09 0
001 050 2 1 1.12035e+09 1.12061e+09 1.12152e+09 1.12608e+09 0
001 051 1 0 1.1284e+09 1.12867e+09 1.12991e+09 1.13195e+09 0
001 052 2 1 1.13568e+09 1.13593e+09 1.13656e+09 1.14002e+09 0
001 053 2 1 1.14401e+09 1.14428e+09 1.14505e+09 1.14631e+09 0
001 054 2 1 1.15682e+09 1.15708e+09 1.15774e+09 1.16158e+09 0
001 055 1 1 1.16407e+09 1.16434e+09 1.1654e+09 1.16747e+09 0
000 056 1 1 1.18448e+09 1.18474e+09 1.18579e+09 1.18802e+09 1
000 057 1 1 1.19648e+09 1.19674e+09 1.1978e+09 1.19821e+09 1
000 058 1 1 1.20545e+09 1.20571e+09 1.20677e+09 1.23919e+09 1
000 059 1 1 1.2507e+09 1.25097e+09 1.25236e+09 1.25251e+09 0
000 060 1 1 1.31543e+09 1.31569e+09 1.31696e+09 1.32422e+09 0
000 061 2 1 1.33167e+09 1.33193e+09 1.3331e+09 1.33321e+09 0
001 062 2 1 1.33722e+09 1.33748e+09 1.33818e+09 1.34212e+09 0
001 063 2 1 1.34449e+09 1.34475e+09 1.34584e+09 1.35977e+09 0
001 064 1 1 1.36228e+09 1.36255e+09 1.36384e+09 1.36871e+09 0
000 065 1 1 1.38018e+09 1.38044e+09 1.38173e+09 1.38184e+09 1
000 066 1 1 1.393e+09 1.39326e+09 1.39455e+09 1.40009e+09 1
000 067 1 1 1.40788e+09 1.40815e+09 1.40944e+09 1.41477e+09 1
000 068 2 1 1.42226e+09 1.42254e+09 1.4237e+09 1.42404e+09 0
001 069 2 1 1.43009e+09 1.43036e+09 1.4315e+09 1.43391e+09 0
001 070 1 0 1.43665e+09 1.43692e+09 1.43821e+09 1.44083e+09 0
001 071 2 1 1.44419e+09 1.44446e+09 1.44556e+09 1.44741e+09 0
001 072 2 1 1.45021e+09 1.45047e+09 1.45177e+09 1.4794e+09 0
001 073 2 1 1.48252e+09 1.4828e+09 1.48386e+09 1.48986e+09 0
001 074 1 1 1.49219e+09 1.49246e+09 1.49365e+09 1.50846e+09 0
000 075 1 1 1.51587e+09 1.51614e+09 1.51732e+09 1.56044e+09 1
000 076 1 1 1.56996e+09 1.57023e+09 1.57141e+09 1.57576e+09 1
000 077 1 1 1.58563e+09 1.5859e+09 1.58708e+09 1.58769e+09 1
000 078 2 0 1.59539e+09 1.59567e+09 1.59648e+09 1.59879e+09 0
000 079 1 1 1.6063e+09 1.60657e+09 1.60772e+09 1.60875e+09 0
000 080 1 1 1.62306e+09 1.62333e+09 1.62403e+09 1.62611e+09 0
000 081 2 1 1.63331e+09 1.63358e+09 1.63478e+09 1.64381e+09 0
001 082 2 1 1.6503e+09 1.65056e+09 1.65165e+09 1.66263e+09 0
001 083 1 0 1.6652e+09 1.66545e+09 1.66667e+09 1.67086e+09 0
001 084 1 1 1.67318e+09 1.67344e+09 1.67489e+09 1.68503e+09 0
000 085 1 1 1.69326e+09 1.69353e+09 1.69498e+09 1.72218e+09 1
000 086 1 0 1.74747e+09 1.74773e+09 1.74919e+09 1.75009e+09 1
001 087 2 1 1.75293e+09 1.75319e+09 1.75443e+09 1.76272e+09 0
001 088 1 0 1.76544e+09 1.7657e+09 1.7666e+09 1.77272e+09 0
001 089 2 0 1.77549e+09 1.77576e+09 1.77704e+09 1.78122e+09 0
000 090 2 0 1.78857e+09 1.78883e+09 1.79011e+09 1.82201e+09 1
000 091 2 0 1.82924e+09 1.8295e+09 1.83078e+09 1.84314e+09 1
000 092 2 1 1.85032e+09 1.8506e+09 1.85187e+09 1.89197e+09 1
001 093 2 0 1.89451e+09 1.89478e+09 1.89609e+09 1.89892e+09 0
000 094 2 1 1.90634e+09 1.90662e+09 1.90793e+09 1.91412e+09 1
001 095 2 1 1.91701e+09 1.91728e+09 1.91807e+09 1.92207e+09 0
001 096 1 0 1.92447e+09 1.92472e+09 1.92577e+09 1.92959e+09 0
001 097 2 0 1.93212e+09 1.93239e+09 1.93317e+09 1.93322e+09 0
000 098 2 1 1.94061e+09 1.94087e+09 1.94166e+09 1.94688e+09 1
001 099 2 1 1.94963e+09 1.9499e+09 1.9511e+09 1.97924e+09 0
001 100 1 1 1.9817e+09 1.982e+09 1.98284e+09 1.98588e+09 0
000 101 1 1 1.99307e+09 1.99334e+09 1.99418e+09 1.9982e+09 1
000 102 1 1 2.01609e+09 2.01635e+09 2.0172e+09 2.01741e+09 1
000 103 1 1 2.02539e+09 2.02566e+09 2.0265e+09 2.07092e+09 1
000 104 1 1 2.07832e+09 2.07858e+09 2.07936e+09 2.16133e+09 0
000 105 1 1 2.16897e+09 2.16923e+09 2.1705e+09 2.17145e+09 0
000 106 1 1 2.17943e+09 2.1797e+09 2.18118e+09 2.18887e+09 0
000 107 1 1 2.19707e+09 2.19732e+09 2.19852e+09 2.22994e+09 0
000 108 1 1 2.23928e+09 2.23954e+09 2.24048e+09 2.2687e+09 0
000 109 2 1 2.27719e+09 2.27745e+09 2.2789e+09 2.29692e+09 0
001 110 1 1 2.30181e+09 2.30207e+09 2.30269e+09 2.30578e+09 0
000 111 1 1 2.31417e+09 2.31443e+09 2.31505e+09 2.32367e+09 1
000 112 1 1 2.33109e+09 2.33136e+09 2.33198e+09 2.34914e+09 1
000 113 1 0 2.35642e+09 2.35669e+09 2.35731e+09 2.36451e+09 1
001 114 2 1 2.36921e+09 2.36948e+09 2.37022e+09 2.3824e+09 0
001 115 1 1 2.38491e+09 2.38516e+09 2.38581e+09 2.39445e+09 0
000 116 1 1 2.40285e+09 2.40312e+09 2.40377e+09 2.41885e+09 1
000 117 1 0 2.42605e+09 2.4263e+09 2.42695e+09 2.43373e+09 1
001 118 1 1 2.4371e+09 2.43735e+09 2.43843e+09 2.44023e+09 0
000 119 1 1 2.45234e+09 2.45261e+09 2.45369e+09 2.45436e+09 1
000 120 1 1 2.46531e+09 2.46558e+09 2.46666e+09 2.46742e+09 1
000 121 1 1 2.47473e+09 2.47498e+09 2.47606e+09 2.4899e+09 1
000 122 2 1 2.49704e+09 2.49729e+09 2.49854e+09 2.50473e+09 0
001 123 2 1 2.50716e+09 2.50742e+09 2.50865e+09 2.51119e+09 0
001 124 2 1 2.51352e+09 2.51379e+09 2.51462e+09 2.52349e+09 0
001 125 2 1 2.5265e+09 2.52675e+09 2.52738e+09 2.53066e+09 0
001 126 1 1 2.53858e+09 2.53884e+09 2.53937e+09 2.54131e+09 0
000 127 1 1 2.54846e+09 2.54872e+09 2.54926e+09 2.62988e+09 1
000 128 1 1 2.63786e+09 2.63812e+09 2.63866e+09 2.67865e+09 1
000 129 1 1 2.6909e+09 2.69116e+09 2.6917e+09 2.69344e+09 1
000 130 1 1 2.70098e+09 2.70124e+09 2.70177e+09 2.70831e+09 0
000 131 2 1 2.718e+09 2.71827e+09 2.7191e+09 2.71923e+09 0
001 132 1 1 2.73666e+09 2.73691e+09 2.73793e+09 2.73809e+09 0
000 133 1 1 2.74562e+09 2.74588e+09 2.7469e+09 2.75537e+09 1
000 134 1 1 2.76339e+09 2.76365e+09 2.76466e+09 2.76957e+09 1
000 135 1 1 2.77688e+09 2.77714e+09 2.77816e+09 2.78355e+09 1
000 136 2 1 2.79161e+09 2.79187e+09 2.79333e+09 2.7951e+09 0
001 137 2 1 2.79762e+09 2.79789e+09 2.7984e+09 2.80282e+09 0
001 138 1 1 2.80544e+09 2.8057e+09 2.80682e+09 2.80814e+09 0
000 139 1 1 2.81641e+09 2.81667e+09 2.8178e+09 2.83401e+09 1
000 140 1 1 2.84323e+09 2.84349e+09 2.84461e+09 2.87676e+09 1
000 141 1 1 2.88652e+09 2.88678e+09 2.8879e+09 2.88805e+09 1
000 142 2 0 2.89972e+09 2.89998e+09 2.90077e+09 2.90185e+09 0
000 143 1 0 2.91343e+09 2.9137e+09 2.91442e+09 2.91651e+09 0
001 144 2 1 2.92114e+09 2.9214e+09 2.9223e+09 2.93416e+09 0
001 145 1 0 2.93713e+09 2.93739e+09 2.93809e+09 2.93831e+09 0
001 146 2 1 2.94448e+09 2.94476e+09 2.9462e+09 2.95448e+09 0
001 147 2 1 2.95694e+09 2.9572e+09 2.95816e+09 2.96004e+09 0
001 148 1 1 2.96254e+09 2.9628e+09 2.96361e+09 2.96416e+09 0
000 149 1 1 2.97593e+09 2.97619e+09 2.977e+09 2.97732e+09 1
000 150 1 1 2.98437e+09 2.98463e+09 2.98544e+09 2.98786e+09 1
000 151 1 1 2.99538e+09 2.99564e+09 2.99645e+09 3.03022e+09 1
000 152 1 1 3.0405e+09 3.04077e+09 3.04135e+09 3.04965e+09 0
000 153 2 1 3.05687e+09 3.05714e+09 3.05775e+09 3.05805e+09 0
001 154 1 1 3.06252e+09 3.06278e+09 3.06367e+09 3.07417e+09 0
000 155 1 0 3.08167e+09 3.08193e+09 3.08282e+09 3.09318e+09 1
001 156 2 1 3.09638e+09 3.09665e+09 3.09775e+09 3.10339e+09 0
001 157 2 1 3.10601e+09 3.10627e+09 3.10688e+09 3.10992e+09 0
001 158 1 0 3.1125e+09 3.11277e+09 3.11409e+09 3.11902e+09 0
001 159 2 1 3.12628e+09 3.12654e+09 3.12731e+09 3.13229e+09 0
001 160 1 1 3.13475e+09 3.13501e+09 3.13643e+09 3.13974e+09 0
000 161 1 1 3.16075e+09 3.161e+09 3.16243e+09 3.16272e+09 1
000 162 1 1 3.17301e+09 3.17327e+09 3.1747e+09 3.17498e+09 1
000 163 1 0 3.1868e+09 3.18706e+09 3.18849e+09 3.19343e+09 1
001 164 2 1 3.19811e+09 3.19838e+09 3.19937e+09 3.20561e+09 0
001 165 2 1 3.20818e+09 3.20845e+09 3.20982e+09 3.21368e+09 0
001 166 1 0 3.21611e+09 3.21636e+09 3.21753e+09 3.21781e+09 0
001 167 2 1 3.22167e+09 3.22193e+09 3.22294e+09 3.23019e+09 0
001 168 1 1 3.23287e+09 3.23312e+09 3.23401e+09 3.23858e+09 0
000 169 1 1 3.25681e+09 3.25708e+09 3.25797e+09 3.25814e+09 1
000 170 1 1 3.26523e+09 3.2655e+09 3.26639e+09 3.28382e+09 1
000 171 1 1 3.29109e+09 3.29137e+09 3.29226e+09 3.32513e+09 1
000 172 1 0 3.34459e+09 3.34485e+09 3.34577e+09 3.34857e+09 0
001 173 1 1 3.35536e+09 3.35563e+09 3.35684e+09 3.36157e+09 0
000 174 1 1 3.37093e+09 3.37119e+09 3.3724e+09 3.37796e+09 1
000 175 1 1 3.38618e+09 3.38644e+09 3.38765e+09 3.39681e+09 1
000 176 1 1 3.40893e+09 3.40918e+09 3.41039e+09 3.41057e+09 1
000 177 2 0 3.42346e+09 3.42372e+09 3.42498e+09 3.42549e+09 0
000 178 2 1 3.44766e+09 3.44792e+09 3.44908e+09 3.45316e+09 0
001 179 2 1 3.4556e+09 3.45586e+09 3.45675e+09 3.45722e+09 0
001 180 1 1 3.46142e+09 3.46169e+09 3.46246e+09 3.4635e+09 0
000 181 1 0 3.47142e+09 3.47168e+09 3.47245e+09 3.47267e+09 1
001 182 1 0 3.47704e+09 3.47729e+09 3.47796e+09 3.4793e+09 0
001 183 1 1 3.48272e+09 3.48298e+09 3.48417e+09 3.48521e+09 0
000 184 1 1 3.49458e+09 3.49483e+09 3.49602e+09 3.49895e+09 1
000 185 1 1 3.52783e+09 3.52808e+09 3.52927e+09 3.52993e+09 1
000 186 1 1 3.54152e+09 3.54178e+09 3.54297e+09 3.54727e+09 1
000 187 1 1 3.55845e+09 3.55871e+09 3.55988e+09 3.56112e+09 0
000 188 1 0 3.5818e+09 3.58206e+09 3.58323e+09 3.58357e+09 0
001 189 2 1 3.58806e+09 3.58832e+09 3.58972e+09 3.58976e+09 0
001 190 2 1 3.59524e+09 3.59551e+09 3.59686e+09 3.60013e+09 0
001 191 1 1 3.60301e+09 3.60328e+09 3.60434e+09 3.60829e+09 0
000 192 1 0 3.6158e+09 3.61607e+09 3.61712e+09 3.61879e+09 1
001 193 2 1 3.62149e+09 3.62175e+09 3.62282e+09 3.62564e+09 0
001 194 2 1 3.62838e+09 3.62865e+09 3.62969e+09 3.63354e+09 0
001 195 1 1 3.63601e+09 3.63626e+09 3.63769e+09 3.6423e+09 0
000 196 1 1 3.64939e+09 3.64966e+09 3.65108e+09 3.65159e+09 1
000 197 1 1 3.67529e+09 3.67556e+09 3.67699e+09 3.67839e+09 1
000 198 1 1 3.68743e+09 3.68768e+09 3.68911e+09 3.69006e+09 1
000 199 1 1 3.70477e+09 3.70502e+09 3.70606e+09 3.70639e+09 0
000 200 2 1 3.71816e+09 3.71842e+09 3.71982e+09 3.72079e+09 0
001 201 1 0 3.72713e+09 3.72739e+09 3.72801e+09 3.73468e+09 0
001 202 2 0 3.73731e+09 3.73757e+09 3.73895e+09 3.7456e+09 0
000 203 2 1 3.75298e+09 3.75324e+09 3.75462e+09 3.75506e+09 1
001 204 2 1 3.75871e+09 3.75898e+09 3.76018e+09 3.76587e+09 0
001 205 1 1 3.76839e+09 3.76865e+09 3.76933e+09 3.77242e+09 0
000 206 1 1 3.77979e+09 3.78005e+09 3.78073e+09 3.78169e+09 1
000 207 1 1 3.81758e+09 3.81785e+09 3.81852e+09 3.81904e+09 1
000 208 1 1 3.82985e+09 3.83012e+09 3.8308e+09 3.83082e+09 1
000 209 1 1 3.8384e+09 3.83866e+09 3.83939e+09 3.84033e+09 0
000 210 2 1 3.85524e+09 3.8555e+09 3.85643e+09 3.85872e+09 0
001 211 1 1 3.86342e+09 3.86369e+09 3.86441e+09 3.86647e+09 0
000 212 1 1 3.87357e+09 3.87384e+09 3.87456e+09 3.87809e+09 1
000 213 1 1 3.88546e+09 3.88572e+09 3.88644e+09 3.8907e+09 1
000 214 1 1 3.89854e+09 3.89879e+09 3.89951e+09 3.89992e+09 1
000 215 2 1 3.90717e+09 3.90743e+09 3.90847e+09 3.92339e+09 0
001 216 2 1 3.92593e+09 3.92619e+09 3.92723e+09 3.93363e+09 0
001 217 1 1 3.93627e+09 3.93653e+09 3.93747e+09 3.94766e+09 0
000 218 1 1 3.95817e+09 3.95843e+09 3.95938e+09 3.96261e+09 1
000 219 1 1 3.96992e+09 3.97019e+09 3.97114e+09 3.97205e+09 1
000 220 1 1 3.97923e+09 3.9795e+09 3.98045e+09 3.98472e+09 1
000 221 2 1 3.99215e+09 3.99242e+09 3.9937e+09 3.99678e+09 0
001 222 2 1 4.00068e+09 4.00093e+09 4.00212e+09 4.00886e+09 0
001 223 1 1 4.01335e+09 4.01361e+09 4.01434e+09 4.01787e+09 0
000 224 1 1 4.02519e+09 4.02545e+09 4.02618e+09 4.03862e+09 1
000 225 1 1 4.04628e+09 4.04653e+09 4.04726e+09 4.05681e+09 1
000 226 1 1 4.06861e+09 4.06887e+09 4.0696e+09 4.0739e+09 1
000 227 2 0 4.10511e+09 4.10536e+09 4.1066e+09 4.11293e+09 0
000 228 1 1 4.12034e+09 4.12059e+09 4.12183e+09 4.12198e+09 0
000 229 1 1 4.13384e+09 4.1341e+09 4.1347e+09 4.14599e+09 0
000 230 1 0 4.17814e+09 4.1784e+09 4.17942e+09 4.21117e+09 0
001 231 1 1 4.21453e+09 4.21478e+09 4.21608e+09 4.21731e+09 0
000 232 1 1 4.22442e+09 4.22468e+09 4.22599e+09 4.26367e+09 1
000 233 1 1 4.27105e+09 4.27131e+09 4.27261e+09 4.28258e+09 1
000 234 1 1 4.29135e+09 4.29165e+09 4.29295e+09 4.29296e+09 1
000 235 2 1 8.4132e+06 8.67916e+06 9.6178e+06 9.90928e+06 0
001 236 1 1 1.5699e+07 1.59507e+07 1.7206e+07 1.41254e+08 0
000 237 1 1 1.49174e+08 1.49427e+08 1.50683e+08 1.55015e+08 1
000 238 1 1 1.62081e+08 1.62343e+08 1.63598e+08 1.82035e+08 1
000 239 1 1 1.89711e+08 1.89974e+08 1.9123e+08 1.92685e+08 1
000 240 2 1 2.00036e+08 2.00297e+08 2.00869e+08 2.4719e+08 0
001 241 1 1 2.49708e+08 2.4997e+08 2.50702e+08 2.54358e+08 0
000 242 1 1 2.61867e+08 2.62129e+08 2.62861e+08 2.65041e+08 1
000 243 1 1 2.77626e+08 2.77893e+08 2.78625e+08 2.79265e+08 1
000 244 1 0 2.88164e+08 2.88429e+08 2.89161e+08 3.09182e+08 1
001 245 2 1 3.14484e+08 3.14746e+08 3.16019e+08 3.55708e+08 0
001 246 2 1 3.59538e+08 3.59808e+08 3.6097e+08 3.70328e+08 0
001 247 1 1 3.72837e+08 3.73101e+08 3.73874e+08 3.75313e+08 0
000 248 1 1 3.82463e+08 3.82727e+08 3.835e+08 3.83529e+08 1
000 249 1 1 3.90832e+08 3.91099e+08 3.91872e+08 4.18266e+08 1
000 250 1 1 4.2579e+08 4.26051e+08 4.26824e+08 4.33035e+08 1
000 251 1 1 4.40566e+08 4.40822e+08 4.42229e+08 4.91888e+08 0
000 252 2 1 5.00263e+08 5.00523e+08 5.01965e+08 5.03056e+08 0
001 253 2 0 5.07516e+08 5.07769e+08 5.08989e+08 5.15363e+08 0
000 254 2 1 5.30327e+08 5.30599e+08 5.31819e+08 5.3226e+08 1
001 255 2 1 5.3807e+08 5.38325e+08 5.38944e+08 5.54103e+08 0
001 256 2 0 5.5679e+08 5.57046e+08 5.57575e+08 5.61858e+08 0
000 257 2 1 5.69107e+08 5.69378e+08 5.69908e+08 5.70455e+08 1
001 258 2 1 5.76433e+08 5.76703e+08 5.78023e+08 5.9053e+08 0
001 259 2 1 5.92906e+08 5.93166e+08 5.94461e+08 6.19155e+08 0
001 260 1 1 6.21517e+08 6.21788e+08 6.2264e+08 6.37492e+08 0
000 261 1 1 6.46409e+08 6.46667e+08 6.47518e+08 6.50725e+08 1
000 262 1 0 6.60521e+08 6.60784e+08 6.61636e+08 6.84492e+08 1
001 263 1 1 6.86837e+08 6.87096e+08 6.88167e+08 7.05588e+08 0
000 264 1 1 7.14664e+08 7.14931e+08 7.16001e+08 7.16474e+08 1
000 265 1 0 7.23999e+08 7.24266e+08 7.25337e+08 7.25962e+08 1
001 266 2 1 7.29553e+08 7.29817e+08 7.30862e+08 7.43235e+08 0
001 267 1 0 7.45805e+08 7.46074e+08 7.46928e+08 7.54125e+08 0
001 268 1 1 7.57756e+08 7.58011e+08 7.5859e+08 7.58926e+08 0
000 269 1 1 7.66737e+08 7.6699e+08 7.67569e+08 7.68621e+08 1
000 270 1 1 7.80404e+08 7.80671e+08 7.8125e+08 7.81469e+08 1
000 271 1 1 7.88831e+08 7.89091e+08 7.8967e+08 7.89732e+08 1
000 272 2 0 7.98887e+08 7.99146e+08 8.00546e+08 8.00718e+08 0
000 273 1 1 8.08293e+08 8.08553e+08 8.09207e+08 8.13066e+08 0
000 274 1 0 8.20408e+08 8.20668e+08 8.21207e+08 8.25224e+08 0
001 275 1 1 8.28035e+08 8.28288e+08 8.29345e+08 8.3218e+08 0
000 276 1 1 8.40089e+08 8.40356e+08 8.41413e+08 8.45996e+08 1
000 277 1 1 8.62857e+08 8.63113e+08 8.6417e+08 8.95393e+08 1
000 278 1 1 9.02648e+08 9.02912e+08 9.03969e+08 9.10065e+08 1
000 279 1 1 9.17251e+08 9.17505e+08 9.18763e+08 9.25586e+08 0
000 280 2 1 9.33743e+08 9.34012e+08 9.35042e+08 9.35458e+08 0
001 281 1 1 9.41877e+08 9.42143e+08 9.42676e+08 9.45722e+08 0
000 282 1 1 9.57215e+08 9.57479e+08 9.58012e+08 9.63702e+08 1
000 283 1 1 9.70874e+08 9.71139e+08 9.71672e+08 9.72003e+08 1
000 284 1 0 9.82606e+08 9.82856e+08 9.83389e+08 9.84047e+08 1
001 285 2 1 9.89976e+08 9.90234e+08 9.91148e+08 9.9304e+08 0
001 286 2 1 9.95874e+08 9.96129e+08 9.97213e+08 1.00313e+09 0
001 287 1 1 1.00572e+09 1.00599e+09 1.00681e+09 1.01031e+09 0
000 288 1 1 1.01742e+09 1.01768e+09 1.0185e+09 1.02044e+09 1
000 289 1 1 1.02961e+09 1.02988e+09 1.0307e+09 1.03083e+09 1
000 290 1 1 1.04248e+09 1.04273e+09 1.04355e+09 1.04472e+09 1
000 291 2 1 1.05429e+09 1.05455e+09 1.05564e+09 1.05813e+09 0
001 292 1 1 1.06135e+09 1.0616e+09 1.06289e+09 1.06647e+09 0
000 293 1 1 1.07488e+09 1.07513e+09 1.07642e+09 1.07712e+09 1
000 294 1 1 1.09135e+09 1.09161e+09 1.0929e+09 1.0932e+09 1
000 295 1 0 1.13701e+09 1.13728e+09 1.13857e+09 1.1433e+09 1
001 296 1 1 1.14754e+09 1.14779e+09 1.14846e+09 1.14984e+09 0
000 297 1 0 1.15717e+09 1.15743e+09 1.15809e+09 1.18827e+09 1
001 298 2 0 1.19097e+09 1.19123e+09 1.19188e+09 1.2068e+09 0
000 299 2 1 1.21417e+09 1.21444e+09 1.21509e+09 1.2552e+09 1
001 300 1 1 1.25782e+09 1.25808e+09 1.25859e+09 1.27169e+09 0
000 301 1 1 1.27879e+09 1.27905e+09 1.27956e+09 1.28067e+09 1
000 302 1 0 1.29131e+09 1.29157e+09 1.29208e+09 1.29652e+09 1
001 303 2 1 1.29955e+09 1.29981e+09 1.30101e+09 1.37052e+09 0
001 304 2 1 1.376e+09 1.37627e+09 1.37758e+09 1.37761e+09 0
001 305 1 1 1.38208e+09 1.38235e+09 1.38337e+09 1.38651e+09 0
000 306 1 1 1.394e+09 1.39428e+09 1.3953e+09 1.403e+09 1
000 307 1 1 1.41151e+09 1.41179e+09 1.41281e+09 1.42422e+09 1
000 308 1 1 1.43155e+09 1.43182e+09 1.43284e+09 1.49102e+09 1
000 309 1 1 1.50847e+09 1.50873e+09 1.50975e+09 1.53729e+09 0
000 310 1 0 1.54618e+09 1.54646e+09 1.54699e+09 1.55018e+09 0
001 311 2 1 1.55457e+09 1.55484e+09 1.55609e+09 1.60826e+09 0
001 312 1 1 1.61098e+09 1.61125e+09 1.6118e+09 1.61301e+09 0
000 313 1 1 1.62012e+09 1.62039e+09 1.62094e+09 1.62795e+09 1
000 314 1 1 1.63532e+09 1.63558e+09 1.63614e+09 1.64552e+09 1
000 315 1 1 1.65273e+09 1.653e+09 1.65355e+09 1.66952e+09 1
000 316 2 1 1.67713e+09 1.6774e+09 1.67866e+09 1.69579e+09 0
001 317 2 1 1.69849e+09 1.69877e+09 1.69991e+09 1.74174e+09 0
001 318 2 1 1.74431e+09 1.74458e+09 1.74563e+09 1.75508e+09 0
001 319 2 1 1.7578e+09 1.75807e+09 1.7592e+09 1.76946e+09 0
001 320 2 1 1.77625e+09 1.77652e+09 1.77751e+09 1.84313e+09 0
001 321 1 1 1.84581e+09 1.84609e+09 1.84748e+09 1.85257e+09 0
000 322 1 1 1.86705e+09 1.86731e+09 1.8687e+09 1.87167e+09 1
000 323 1 1 1.88133e+09 1.88161e+09 1.883e+09 1.88374e+09 1
000 324 1 1 1.89087e+09 1.89113e+09 1.89252e+09 1.89627e+09 1
000 325 2 1 1.90356e+09 1.90384e+09 1.90444e+09 1.91269e+09 0
001 326 1 1 1.91622e+09 1.91649e+09 1.91757e+09 1.92505e+09 0
000 327 1 0 1.93514e+09 1.9354e+09 1.93648e+09 1.93708e+09 1
001 328 2 1 1.94174e+09 1.942e+09 1.9429e+09 1.95359e+09 0
001 329 2 1 1.95596e+09 1.95622e+09 1.95698e+09 1.96437e+09 0
001 330 1 0 1.96682e+09 1.96709e+09 1.96853e+09 1.96856e+09 0
001 331 2 1 1.97525e+09 1.97552e+09 1.97671e+09 1.97935e+09 0
001 332 1 0 1.98208e+09 1.98235e+09 1.98326e+09 1.98344e+09 0
001 333 1 1 1.99471e+09 1.99497e+09 1.99635e+09 2.00661e+09 0
000 334 1 1 2.01398e+09 2.01426e+09 2.01564e+09 2.02426e+09 1
000 335 1 1 2.03166e+09 2.03192e+09 2.0333e+09 2.03657e+09 1
000 336 1 1 2.04382e+09 2.04408e+09 2.04546e+09 2.10553e+09 1
000 337 2 1 2.11427e+09 2.11454e+09 2.11542e+09 2.11634e+09 0
001 338 2 1 2.12008e+09 2.12035e+09 2.12095e+09 2.12286e+09 0
001 339 1 1 2.12585e+09 2.12611e+09 2.12729e+09 2.14165e+09 0
000 340 1 1 2.14914e+09 2.14941e+09 2.1506e+09 2.15406e+09 1
000 341 1 1 2.16159e+09 2.16186e+09 2.16305e+09 2.16489e+09 1
000 342 1 1 2.17366e+09 2.17393e+09 2.17511e+09 2.18089e+09 1
000 343 2 0 2.19735e+09 2.19762e+09 2.19883e+09 2.20086e+09 0
000 344 1 0 2.21583e+09 2.2161e+09 2.21726e+09 2.22266e+09 0
001 345 2 1 2.22771e+09 2.22798e+09 2.22903e+09 2.23423e+09 0
001 346 2 0 2.23683e+09 2.2371e+09 2.23799e+09 2.24239e+09 0
000 347 2 1 2.24943e+09 2.2497e+09 2.25059e+09 2.25271e+09 1
001 348 2 1 2.25549e+09 2.25576e+09 2.2568e+09 2.26312e+09 0
001 349 2 0 2.26552e+09 2.26579e+09 2.26701e+09 2.26704e+09 0
000 350 2 1 2.27444e+09 2.2747e+09 2.27592e+09 2.30554e+09 1
001 351 1 1 2.30802e+09 2.30829e+09 2.30925e+09 2.32354e+09 0
000 352 1 1 2.33132e+09 2.3316e+09 2.33256e+09 2.33318e+09 1
000 353 1 1 2.34046e+09 2.34072e+09 2.34168e+09 2.34324e+09 1
000 354 1 1 2.35331e+09 2.35357e+09 2.35453e+09 2.36041e+09 1
000 355 2 0 2.37182e+09 2.37209e+09 2.37344e+09 2.37499e+09 0
000 356 1 1 2.39305e+09 2.39331e+09 2.39477e+09 2.39501e+09 0
000 357 1 1 2.403e+09 2.40327e+09 2.40421e+09 2.40622e+09 0
000 358 1 0 2.4149e+09 2.41516e+09 2.41614e+09 2.41649e+09 0
001 359 2 1 2.42052e+09 2.42083e+09 2.42221e+09 2.4389e+09 0
001 360 1 1 2.44767e+09 2.44793e+09 2.44857e+09 2.44874e+09 0
000 361 1 1 2.45586e+09 2.45613e+09 2.45677e+09 2.4577e+09 1
000 362 1 1 2.48105e+09 2.48131e+09 2.48195e+09 2.48232e+09 1
000 363 1 1 2.50068e+09 2.50094e+09 2.50158e+09 2.52143e+09 1
000 364 2 1 2.52865e+09 2.52891e+09 2.52995e+09 2.55216e+09 0
001 365 1 0 2.55633e+09 2.55659e+09 2.55769e+09 2.57316e+09 0
001 366 1 1 2.5828e+09 2.58307e+09 2.58452e+09 2.59057e+09 0
000 367 1 0 2.59826e+09 2.59852e+09 2.59998e+09 2.6111e+09 1
001 368 1 0 2.61373e+09 2.61401e+09 2.61508e+09 2.62657e+09 0
001 369 2 0 2.63087e+09 2.63114e+09 2.63182e+09 2.64005e+09 0
000 370 2 0 2.64792e+09 2.64818e+09 2.64886e+09 2.64919e+09 1
000 371 2 0 2.65671e+09 2.65698e+09 2.65766e+09 2.66475e+09 1
000 372 2 1 2.67224e+09 2.67252e+09 2.6732e+09 2.71797e+09 1
001 373 2 1 2.72895e+09 2.72922e+09 2.73005e+09 2.78656e+09 0
001 374 2 0 2.79481e+09 2.79508e+09 2.79646e+09 2.84328e+09 0
000 375 2 1 2.85048e+09 2.85074e+09 2.85213e+09 2.85964e+09 1
001 376 2 0 2.86723e+09 2.86749e+09 2.86822e+09 2.9149e+09 0
000 377 2 0 2.92358e+09 2.92385e+09 2.92458e+09 2.93752e+09 1
000 378 2 1 2.945e+09 2.94527e+09 2.946e+09 2.96924e+09 1
001 379 2 1 2.98277e+09 2.98304e+09 2.98439e+09 2.98865e+09 0
001 380 1 0 2.99226e+09 2.99254e+09 2.99362e+09 3.07416e+09 0
001 381 2 0 3.07713e+09 3.07739e+09 3.07857e+09 3.08031e+09 0
000 382 2 1 3.08747e+09 3.08774e+09 3.08892e+09 3.09271e+09 1
001 383 1 0 3.09716e+09 3.09742e+09 3.09819e+09 3.17399e+09 0
001 384 1 0 3.18194e+09 3.1822e+09 3.18313e+09 3.24938e+09 0
001 385 1 1 3.26306e+09 3.26334e+09 3.26409e+09 3.27146e+09 0
000 386 1 1 3.27955e+09 3.27981e+09 3.28057e+09 3.28551e+09 1
000 387 1 1 3.29406e+09 3.29431e+09 3.29507e+09 3.33883e+09 1
000 388 1 1 3.34825e+09 3.34852e+09 3.34927e+09 3.36646e+09 1
000 389 1 0 3.37658e+09 3.37685e+09 3.37759e+09 3.40314e+09 0
001 390 1 0 3.40739e+09 3.40766e+09 3.40908e+09 3.40916e+09 0
001 391 2 1 3.41277e+09 3.41303e+09 3.41436e+09 3.41633e+09 0
001 392 1 0 3.42634e+09 3.42661e+09 3.42764e+09 3.42852e+09 0
001 393 1 0 3.43367e+09 3.43394e+09 3.43488e+09 3.43495e+09 0
001 394 1 0 3.45024e+09 3.45051e+09 3.45133e+09 3.45192e+09 0
001 395 2 1 3.45723e+09 3.4575e+09 3.45888e+09 3.48294e+09 0
001 396 2 1 3.48709e+09 3.48739e+09 3.48813e+09 3.4891e+09 0
001 397 2 1 3.49975e+09 3.50006e+09 3.50142e+09 3.50274e+09 0
001 398 1 1 3.51726e+09 3.51752e+09 3.51849e+09 3.57978e+09 0
000 399 1 0 3.58717e+09 3.58744e+09 3.5884e+09 3.59013e+09 1
001 400 2 0 3.5956e+09 3