trial trialType response stillTime stimOnset stimOffset respTime correctionTrial correct
001 1 0 3.05768e+06 3.3203e+06 3.83601e+06 6.90425e+06 0
001 002 2 0 9.47304e+06 9.74584e+06 1.09809e+07 3.8979e+08 0
000 003 2 0 3.9691e+08 3.97171e+08 3.98406e+08 4.02351e+08 1
000 004 2 1 4.14971e+08 4.15249e+08 4.16484e+08 4.18151e+08 1
001 005 2 0 4.21784e+08 4.22054e+08 4.22735e+08 4.27926e+08 0
000 006 2 0 4.35241e+08 4.35502e+08 4.36183e+08 4.391e+08 1
000 007 2 0 4.46187e+08 4.46451e+08 4.47132e+08 4.50682e+08 1
000 008 2 0 4.58485e+08 4.58745e+08 4.59426e+08 4.61644e+08 1
000 009 1 0 4.69159e+08 4.69419e+08 4.70371e+08 4.73204e+08 0
001 010 1 1 4.79144e+08 4.79412e+08 4.8061e+08 4.81269e+08 0
000 011 1 0 4.88759e+08 4.89033e+08 4.90231e+08 4.92418e+08 1
001 012 2 0 4.95901e+08 4.96158e+08 4.96683e+08 5.00156e+08 0
000 013 2 0 5.09382e+08 5.09649e+08 5.10174e+08 5.11911e+08 1
000 014 2 0 5.18999e+08 5.19259e+08 5.19784e+08 5.22778e+08 1
000 015 2 0 5.31318e+08 5.31577e+08 5.32102e+08 5.45464e+08 1
000 016 1 1 5.52548e+08 5.5281e+08 5.53733e+08 5.5491e+08 0
000 017 2 0 5.77309e+08 5.77576e+08 5.78277e+08 5.84035e+08 0
000 018 1 0 5.92638e+08 5.92901e+08 5.93959e+08 5.9854e+08 0
001 019 1 1 6.14311e+08 6.14572e+08 6.16017e+08 6.19609e+08 0
000 020 1 1 6.26767e+08 6.27031e+08 6.28476e+08 6.35855e+08 1
000 021 1 0 6.44659e+08 6.44926e+08 6.46371e+08 6.48734e+08 1
001 022 2 0 6.52594e+08 6.52856e+08 6.53446e+08 6.62821e+08 0
000 023 2 0 6.70081e+08 6.70341e+08 6.70931e+08 6.78179e+08 1
000 024 2 1 6.85622e+08 6.85881e+08 6.86472e+08 6.87096e+08 1
001 025 1 1 7.04114e+08 7.04381e+08 7.05554e+08 7.14119e+08 0
000 026 1 1 7.24619e+08 7.24888e+08 7.26061e+08 7.51433e+08 1
000 027 1 0 7.58583e+08 7.58842e+08 7.60016e+08 7.60888e+08 1
001 028 1 1 7.68221e+08 7.68498e+08 7.69012e+08 7.83428e+08 0
000 029 1 1 7.91186e+08 7.91449e+08 7.91964e+08 7.98911e+08 1
000 030 1 0 8.06286e+08 8.06546e+08 8.0706e+08 8.27982e+08 1
001 031 1 0 8.33151e+08 8.33409e+08 8.34026e+08 8.34322e+08 0
001 032 2 1 8.38867e+08 8.39138e+08 8.40179e+08 8.44229e+08 0
001 033 2 1 8.46915e+08 8.47182e+08 8.47989e+08 8.4869e+08 0
001 034 1 0 8.52617e+08 8.52892e+08 8.54172e+08 8.88694e+08 0
001 035 2 0 8.91442e+08 8.91695e+08 8.92684e+08 8.97445e+08 0
000 036 2 0 9.04697e+08 9.04969e+08 9.05958e+08 9.07964e+08 1
000 037 2 1 9.43688e+08 9.43956e+08 9.44945e+08 9.45823e+08 1
001 038 2 0 9.49841e+08 9.50107e+08 9.50812e+08 9.51664e+08 0
000 039 2 0 9.58791e+08 9.59048e+08 9.59754e+08 9.72301e+08 1
000 040 2 0 9.80029e+08 9.80299e+08 9.81005e+08 9.87148e+08 1
000 041 2 0 9.94663e+08 9.94936e+08 9.95642e+08 1.00224e+09 1
000 042 2 1 1.00951e+09 1.00977e+09 1.01046e+09 1.01077e+09 0
001 043 2 0 1.02984e+09 1.03011e+09 1.03091e+09 1.03149e+09 0
000 044 2 0 1.04074e+09 1.04101e+09 1.04181e+09 1.04563e+09 1
000 045 2 0 1.05523e+09 1.0555e+09 1.0563e+09 1.05632e+09 1
000 046 2 0 1.06429e+09 1.06456e+09 1.06535e+09 1.07737e+09 1
000 047 1 0 1.08786e+09 1.08813e+09 1.08892e+09 1.09354e+09 0
001 048 1 1 1.09595e+09 1.09622e+09 1.0971e+09 1.09724e+09 0
000 049 1 1 1.11354e+09 1.11381e+09 1.11469e+09 1.11485e+09 1
000 050 1 0 1.12225e+09 1.12252e+09 1.1234e+09 1.13002e+09 1
001 051 2 0 1.13234e+09 1.1326e+09 1.13379e+09 1.13527e+09 0
000 052 2 0 1.15369e+09 1.15396e+09 1.15515e+09 1.15518e+09 1
000 053 2 1 1.16391e+09 1.16418e+09 1.16537e+09 1.17614e+09 1
001 054 2 0 1.1789e+09 1.17916e+09 1.17968e+09 1.1803e+09 0
000 055 2 1 1.18891e+09 1.18917e+09 1.1897e+09 1.19591e+09 1
001 056 2 1 1.2019e+09 1.20216e+09 1.20287e+09 1.20604e+09 0
001 057 1 0 1.20848e+09 1.20876e+09 1.20977e+09 1.20995e+09 0
001 058 2 1 1.21466e+09 1.21493e+09 1.21552e+09 1.21734e+09 0
001 059 2 1 1.228e+09 1.22827e+09 1.22972e+09 1.23e+09 0
001 060 2 0 1.23376e+09 1.23403e+09 1.23469e+09 1.24278e+09 0
000 061 2 1 1.25208e+09 1.25236e+09 1.25303e+09 1.25602e+09 1
001 062 2 1 1.262e+09 1.26227e+09 1.26287e+09 1.26306e+09 0
001 063 1 1 1.26808e+09 1.26835e+09 1.26959e+09 1.26995e+09 0
000 064 1 0 1.27988e+09 1.28016e+09 1.2814e+09 1.28595e+09 1
001 065 1 0 1.28856e+09 1.28882e+09 1.29002e+09 1.29004e+09 0
001 066 1 0 1.33365e+09 1.33391e+09 1.33538e+09 1.33559e+09 0
001 067 1 1 1.3425e+09 1.34276e+09 1.34368e+09 1.34407e+09 0
000 068 1 0 1.36622e+09 1.36648e+09 1.36741e+09 1.36742e+09 1
001 069 2 0 1.37337e+09 1.37363e+09 1.37437e+09 1.37459e+09 0
000 070 2 0 1.3838e+09 1.38406e+09 1.38479e+09 1.3848e+09 1
000 071 2 0 1.42421e+09 1.42447e+09 1.4252e+09 1.42575e+09 1
000 072 2 0 1.43972e+09 1.43999e+09 1.44072e+09 1.44163e+09 1
000 073 2 1 1.449e+09 1.44926e+09 1.44978e+09 1.45919e+09 0
001 074 1 1 1.46153e+09 1.4618e+09 1.46252e+09 1.46846e+09 0
000 075 1 1 1.47726e+09 1.47752e+09 1.47824e+09 1.47835e+09 1
000 076 1 0 1.48571e+09 1.48598e+09 1.4867e+09 1.48991e+09 1
001 077 1 1 1.49285e+09 1.49311e+09 1.49434e+09 1.49462e+09 0
000 078 1 0 1.50171e+09 1.50198e+09 1.50321e+09 1.50504e+09 1
001 079 1 0 1.50778e+09 1.50806e+09 1.50894e+09 1.51076e+09 0
001 080 1 0 1.51337e+09 1.51363e+09 1.51481e+09 1.51491e+09 0
001 081 2 0 1.52518e+09 1.52546e+09 1.52654e+09 1.52692e+09 0
000 082 2 0 1.54752e+09 1.54779e+09 1.54888e+09 1.54944e+09 1
000 083 2 0 1.55661e+09 1.55688e+09 1.55797e+09 1.563e+09 1
000 084 2 0 1.57043e+09 1.5707e+09 1.57179e+09 1.59931e+09 1
000 085 1 0 1.60977e+09 1.61004e+09 1.6109e+09 1.61105e+09 0
001 086 2 0 1.61691e+09 1.61716e+09 1.61767e+09 1.62218e+09 0
000 087 2 0 1.62934e+09 1.62963e+09 1.63013e+09 1.63023e+09 1
000 088 2 0 1.63768e+09 1.63795e+09 1.63845e+09 1.64863e+09 1
000 089 2 0 1.65613e+09 1.65639e+09 1.6569e+09 1.6572e+09 1
000 090 2 0 1.6727e+09 1.67297e+09 1.67369e+09 1.6737e+09 0
000 091 2 0 1.68108e+09 1.68134e+09 1.68254e+09 1.68305e+09 0
000 092 1 0 1.69025e+09 1.69051e+09 1.69146e+09 1.70824e+09 0
001 093 1 0 1.71056e+09 1.71082e+09 1.71225e+09 1.73609e+09 0
001 094 2 0 1.7388e+09 1.73907e+09 1.73985e+09 1.74423e+09 0
000 095 2 0 1.75255e+09 1.75282e+09 1.7536e+09 1.75422e+09 1
000 096 2 0 1.76894e+09 1.76921e+09 1.76999e+09 1.78404e+09 1
000 097 2 0 1.7913e+09 1.79157e+09 1.79235e+09 1.80097e+09 1
000 098 1 0 1.80839e+09 1.80866e+09 1.8101e+09 1.81537e+09 0
001 099 1 0 1.81835e+09 1.81862e+09 1.81919e+09 1.82308e+09 0
001 100 2 0 1.82555e+09 1.82581e+09 1.82645e+09 1.82816e+09 0
000 101 2 1 1.83519e+09 1.83547e+09 1.83611e+09 1.83654e+09 1
001 102 2 0 1.84099e+09 1.84126e+09 1.84274e+09 1.84319e+09 0
000 103 2 0 1.85065e+09 1.85093e+09 1.85241e+09 1.86362e+09 1
000 104 2 0 1.87099e+09 1.87125e+09 1.87273e+09 1.90837e+09 1
000 105 2 0 1.91786e+09 1.91813e+09 1.9196e+09 1.92024e+09 1
000 106 1 0 1.92769e+09 1.92796e+09 1.9291e+09 1.93393e+09 0
001 107 1 1 1.93643e+09 1.93669e+09 1.93757e+09 1.93767e+09 0
000 108 1 0 1.96092e+09 1.96118e+09 1.96206e+09 1.97052e+09 1
001 109 2 0 1.97313e+09 1.9734e+09 1.97419e+09 1.9746e+09 0
000 110 2 0 1.98974e+09 1.99001e+09 1.99081e+09 1.99158e+09 1
000 111 2 0 1.99873e+09 1.99899e+09 1.99979e+09 2.00051e+09 1
000 112 2 0 2.00779e+09 2.00805e+09 2.00885e+09 2.04047e+09 1
000 113 2 0 2.04953e+09 2.0498e+09 2.05101e+09 2.05379e+09 0
000 114 2 1 2.06167e+09 2.06193e+09 2.06332e+09 2.06471e+09 0
001 115 2 0 2.06922e+09 2.0695e+09 2.07096e+09 2.07554e+09 0
000 116 2 1 2.08288e+09 2.08314e+09 2.0846e+09 2.1071e+09 1
001 117 1 1 2.10957e+09 2.10983e+09 2.11095e+09 2.11114e+09 0
000 118 1 0 2.12273e+09 2.12301e+09 2.12413e+09 2.1243e+09 1
001 119 1 0 2.12862e+09 2.12888e+09 2.12968e+09 2.13724e+09 0
001 120 2 0 2.13997e+09 2.14024e+09 2.14159e+09 2.146e+09 0
000 121 2 0 2.16882e+09 2.16908e+09 2.17043e+09 2.17586e+09 1
000 122 2 0 2.18296e+09 2.18322e+09 2.18456e+09 2.18959e+09 1
000 123 2 0 2.19673e+09 2.19699e+09 2.19834e+09 2.2213e+09 1
000 124 1 1 2.2325e+09 2.23276e+09 2.23411e+09 2.23419e+09 0
000 125 2 0 2.24167e+09 2.24194e+09 2.24287e+09 2.25919e+09 0
000 126 1 0 2.26674e+09 2.26701e+09 2.26771e+09 2.2707e+09 0
001 127 1 1 2.28722e+09 2.28747e+09 2.28894e+09 2.28906e+09 0
000 128 1 1 2.29613e+09 2.29639e+09 2.29785e+09 2.30794e+09 1
000 129 1 0 2.31526e+09 2.31552e+09 2.31698e+09 2.33291e+09 1
001 130 2 1 2.33579e+09 2.33606e+09 2.33737e+09 2.33869e+09 0
001 131 2 0 2.35832e+09 2.35859e+09 2.35945e+09 2.35971e+09 0
000 132 2 1 2.3766e+09 2.37687e+09 2.37773e+09 2.39785e+09 1
001 133 1 0 2.40026e+09 2.40052e+09 2.40169e+09 2.41051e+09 0
001 134 2 0 2.41327e+09 2.41353e+09 2.41487e+09 2.41516e+09 0
000 135 2 1 2.42248e+09 2.42275e+09 2.42408e+09 2.42511e+09 1
001 136 1 0 2.43244e+09 2.4327e+09 2.43365e+09 2.43403e+09 0
001 137 1 0 2.43935e+09 2.43961e+09 2.44026e+09 2.45214e+09 0
001 138 1 0 2.45467e+09 2.45494e+09 2.45564e+09 2.47028e+09 0
001 139 1 0 2.47278e+09 2.47305e+09 2.47412e+09 2.47855e+09 0
001 140 1 0 2.48185e+09 2.48212e+09 2.48343e+09 2.48767e+09 0
001 141 2 1 2.49109e+09 2.49136e+09 2.49214e+09 2.49585e+09 0
001 142 2 0 2.49896e+09 2.49923e+09 2.50032e+09 2.51506e+09 0
000 143 2 1 2.52425e+09 2.52451e+09 2.5256e+09 2.53855e+09 1
001 144 2 0 2.5417e+09 2.54196e+09 2.54336e+09 2.55318e+09 0
000 145 2 0 2.57109e+09 2.57136e+09 2.57275e+09 2.57297e+09 1
000 146 2 0 2.58166e+09 2.58194e+09 2.58333e+09 2.5838e+09 1
000 147 2 0 2.591e+09 2.59128e+09 2.59267e+09 2.5936e+09 1
000 148 1 1 2.60086e+09 2.60112e+09 2.60165e+09 2.60166e+09 0
000 149 1 1 2.60908e+09 2.60935e+09 2.6104e+09 2.61275e+09 0
000 150 1 1 2.62047e+09 2.62073e+09 2.62171e+09 2.62475e+09 0
000 151 2 0 2.6323e+09 2.63256e+09 2.63372e+09 2.6578e+09 0
000 152 2 1 2.66981e+09 2.67009e+09 2.67109e+09 2.67114e+09 0
001 153 2 0 2.68211e+09 2.68237e+09 2.68333e+09 2.68378e+09 0
000 154 2 0 2.69115e+09 2.69141e+09 2.69237e+09 2.72296e+09 1
000 155 2 0 2.73208e+09 2.73233e+09 2.7333e+09 2.7356e+09 1
000 156 2 0 2.74527e+09 2.74553e+09 2.7465e+09 2.74682e+09 1
000 157 1 1 2.75419e+09 2.75445e+09 2.75513e+09 2.78928e+09 0
000 158 1 0 2.79801e+09 2.79828e+09 2.79948e+09 2.79979e+09 0
001 159 2 0 2.80376e+09 2.80402e+09 2.80483e+09 2.88702e+09 0
000 160 2 0 2.89419e+09 2.89446e+09 2.89526e+09 2.90773e+09 1
000 161 2 0 2.92514e+09 2.92539e+09 2.92619e+09 2.9262e+09 1
000 162 2 1 2.93617e+09 2.93643e+09 2.93724e+09 2.9382e+09 1
001 163 2 0 2.94186e+09 2.94212e+09 2.94355e+09 2.9439e+09 0
000 164 2 0 2.95121e+09 2.95147e+09 2.9529e+09 2.95546e+09 1
000 165 2 0 2.96274e+09 2.963e+09 2.96443e+09 2.997e+09 1
000 166 2 0 3.00416e+09 3.00442e+09 3.00585e+09 3.00832e+09 1
000 167 1 0 3.01563e+09 3.01589e+09 3.01727e+09 3.01755e+09 0
001 168 1 0 3.02183e+09 3.0221e+09 3.02299e+09 3.02696e+09 0
001 169 1 0 3.0341e+09 3.03437e+09 3.03505e+09 3.06672e+09 0
001 170 1 0 3.07175e+09 3.07201e+09 3.07279e+09 3.07331e+09 0
001 171 2 1 3.07997e+09 3.08025e+09 3.08118e+09 3.08358e+09 0
001 172 2 1 3.08815e+09 3.08841e+09 3.08966e+09 3.09612e+09 0
001 173 2 0 3.10077e+09 3.10103e+09 3.10214e+09 3.13739e+09 0
000 174 2 1 3.14478e+09 3.14505e+09 3.14616e+09 3.15124e+09 1
001 175 2 1 3.15794e+09 3.1582e+09 3.15904e+09 3.16811e+09 0
001 176 1 1 3.17235e+09 3.1726e+09 3.17404e+09 3.19428e+09 0
000 177 1 0 3.20137e+09 3.20163e+09 3.20306e+09 3.20591e+09 1
001 178 2 0 3.20932e+09 3.2096e+09 3.2106e+09 3.21133e+09 0
000 179 2 1 3.21901e+09 3.21926e+09 3.22027e+09 3.25314e+09 1
001 180 1 1 3.25892e+09 3.25918e+09 3.25994e+09 3.26429e+09 0
000 181 1 0 3.27293e+09 3.27319e+09 3.27395e+09 3.28358e+09 1
001 182 2 1 3.28963e+09 3.28989e+09 3.29045e+09 3.29311e+09 0
001 183 1 1 3.29571e+09 3.29597e+09 3.29698e+09 3.29735e+09 0
000 184 1 1 3.3052e+09 3.30547e+09 3.30648e+09 3.31191e+09 1
000 185 1 1 3.31921e+09 3.31948e+09 3.32049e+09 3.32939e+09 1
000 186 1 0 3.33683e+09 3.3371e+09 3.33812e+09 3.39872e+09 1
001 187 2 0 3.40156e+09 3.40182e+09 3.40266e+09 3.40511e+09 0
000 188 2 1 3.41581e+09 3.41607e+09 3.41692e+09 3.45488e+09 1
001 189 2 0 3.45733e+09 3.45759e+09 3.45856e+09 3.45872e+09 0
000 190 2 1 3.4662e+09 3.46645e+09 3.46743e+09 3.46767e+09 1
001 191 2 1 3.48141e+09 3.48166e+09 3.48302e+09 3.48413e+09 0
001 192 2 1 3.49525e+09 3.4955e+09 3.49623e+09 3.49628e+09 0
001 193 1 0 3.54598e+09 3.54624e+09 3.54726e+09 3.54744e+09 0
001 194 1 1 3.55346e+09 3.55371e+09 3.55461e+09 3.55624e+09 0
000 195 1 0 3.56733e+09 3.56759e+09 3.56849e+09 3.5685e+09 1
001 196 2 1 3.58393e+09 3.58418e+09 3.58508e+09 3.58551e+09 0
001 197 2 1 3.59248e+09 3.59275e+09 3.59417e+09 3.59418e+09 0
001 198 1 0 3.60762e+09 3.60788e+09 3.60875e+09 3.60905e+09 0
001 199 2 0 3.64069e+09 3.64095e+09 3.64176e+09 3.64212e+09 0
000 200 2 0 3.66888e+09 3.66915e+09 3.66995e+09 3.67602e+09 1
000 201 2 0 3.68331e+09 3.68358e+09 3.68439e+09 3.69354e+09 1
000 202 2 0 3.70088e+09 3.70114e+09 3.70194e+09 3.76235e+09 1
000 203 1 0 3.78559e+09 3.78585e+09 3.78704e+09 3.78755e+09 0
001 204 2 0 3.7961e+09 3.79636e+09 3.79699e+09 3.8034e+09 0
000 205 2 0 3.81064e+09 3.8109e+09 3.81153e+09 3.81683e+09 1
000 206 2 0 3.8242e+09 3.82446e+09 3.82509e+09 3.83114e+09 1
000 207 2 0 3.83868e+09 3.83894e+09 3.83957e+09 3.85186e+09 1
000 208 1 1 3.86054e+09 3.8608e+09 3.86191e+09 3.86213e+09 0
000 209 2 0 3.86938e+09 3.86964e+09 3.87021e+09 3.88836e+09 0
000 210 1 0 3.89727e+09 3.89754e+09 3.8987e+09 3.90397e+09 0
001 211 2 0 3.91438e+09 3.91463e+09 3.91594e+09 3.91831e+09 0
000 212 2 0 3.92541e+09 3.92567e+09 3.92698e+09 3.95002e+09 1
000 213 2 0 3.95871e+09 3.95898e+09 3.96029e+09 3.96053e+09 1
000 214 2 1 3.97604e+09 3.9763e+09 3.9776e+09 3.97765e+09 1
001 215 2 0 3.99245e+09 3.99272e+09 3.99343e+09 4.0328e+09 0
000 216 2 0 4.04007e+09 4.04032e+09 4.04104e+09 4.06258e+09 1
000 217 2 0 4.07102e+09 4.07129e+09 4.07201e+09 4.07277e+09 1
000 218 2 0 4.08562e+09 4.08589e+09 4.08661e+09 4.12747e+09 1
000 219 1 0 4.13621e+09 4.13646e+09 4.13774e+09 4.15854e+09 0
001 220 2 1 4.16131e+09 4.16158e+09 4.16219e+09 4.17909e+09 0
001 221 2 1 4.19377e+09 4.19403e+09 4.19514e+09 4.22809e+09 0
001 222 1 0 4.23079e+09 4.23104e+09 4.23235e+09 4.24337e+09 0
001 223 2 0 4.24619e+09 4.24645e+09 4.24734e+09 4.25133e+09 0
000 224 2 0 4.25865e+09 4.2589e+09 4.25979e+09 4.27252e+09 1
000 225 2 0 4.28458e+09 4.28484e+09 4.28573e+09 4.29028e+09 1
000 226 2 0 2.80475e+06 3.0558e+06 3.94596e+06 1.78766e+07 1
000 227 2 1 2.66547e+07 2.69118e+07 2.83865e+07 3.02238e+07 0
001 228 2 0 4.3774e+07 4.40347e+07 4.48822e+07 4.59202e+07 0
000 229 2 0 5.72682e+07 5.75256e+07 5.83732e+07 6.95554e+07 1
000 230 2 1 7.72055e+07 7.74641e+07 7.83117e+07 7.87489e+07 1
001 231 2 0 9.40841e+07 9.43401e+07 9.52894e+07 9.55323e+07 0
000 232 2 1 1.02644e+08 1.029e+08 1.03849e+08 1.06243e+08 1
001 233 1 1 1.08673e+08 1.0894e+08 1.09866e+08 1.13359e+08 0
000 234 1 0 1.22057e+08 1.22321e+08 1.23247e+08 1.23739e+08 1
001 235 2 0 1.37704e+08 1.37962e+08 1.39441e+08 1.42527e+08 0
000 236 2 0 1.49864e+08 1.5013e+08 1.51609e+08 1.64641e+08 1
000 237 2 0 1.72101e+08 1.72359e+08 1.73838e+08 1.87387e+08 1
000 238 2 1 1.94452e+08 1.94708e+08 1.96187e+08 2.00045e+08 1
001 239 1 0 2.10441e+08 2.10711e+08 2.12032e+08 2.1224e+08 0
001 240 2 0 2.20154e+08 2.20419e+08 2.20999e+08 2.21178e+08 0
000 241 2 0 2.28411e+08 2.28669e+08 2.2925e+08 2.29879e+08 1
000 242 2 0 2.49116e+08 2.49381e+08 2.49961e+08 2.51086e+08 1
000 243 2 1 2.58725e+08 2.58985e+08 2.59565e+08 2.77598e+08 1
001 244 2 1 2.80256e+08 2.80518e+08 2.81043e+08 2.92136e+08 0
001 245 1 0 3.02921e+08 3.03191e+08 3.04053e+08 3.0416e+08 0
001 246 2 0 3.16203e+08 3.16453e+08 3.17029e+08 3.17275e+08 0
000 247 2 1 3.27784e+08 3.28049e+08 3.28625e+08 3.28676e+08 1
001 248 2 0 3.53871e+08 3.54127e+08 3.55381e+08 3.55759e+08 0
000 249 2 1 3.63347e+08 3.63612e+08 3.64866e+08 3.65122e+08 1
001 250 1 1 3.70254e+08 3.70518e+08 3.71556e+08 3.72954e+08 0
000 251 1 0 3.92436e+08 3.92703e+08 3.9374e+08 3.98604e+08 1
001 252 1 0 4.01079e+08 4.01349e+08 4.02718e+08 4.03844e+08 0
001 253 1 1 4.08986e+08 4.09253e+08 4.09856e+08 4.21375e+08 0
000 254 1 0 4.28927e+08 4.29183e+08 4.29786e+08 4.57199e+08 1
001 255 2 1 4.6997e+08 4.70241e+08 4.70935e+08 4.71436e+08 0
001 256 2 1 4.86993e+08 4.87253e+08 4.88492e+08 4.92324e+08 0
001 257 1 1 5.09763e+08 5.10017e+08 5.10934e+08 5.10959e+08 0
000 258 1 0 5.20164e+08 5.20417e+08 5.21333e+08 5.2182e+08 1
001 259 1 0 5.38043e+08 5.38302e+08 5.39183e+08 5.39461e+08 0
001 260 1 0 5.51561e+08 5.51821e+08 5.52483e+08 5.52685e+08 0
001 261 2 0 5.5737e+08 5.57625e+08 5.58866e+08 5.59341e+08 0
000 262 2 1 5.83007e+08 5.8326e+08 5.84501e+08 5.84888e+08 1
001 263 2 0 5.99326e+08 5.99591e+08 6.00954e+08 6.01205e+08 0
000 264 2 0 6.09099e+08 6.09359e+08 6.10721e+08 6.10975e+08 1
000 265 2 0 6.18672e+08 6.18929e+08 6.20292e+08 6.20503e+08 1
000 266 2 0 6.27773e+08 6.28039e+08 6.29401e+08 6.38741e+08 1
000 267 1 0 6.55942e+08 6.562e+08 6.56816e+08 6.62338e+08 0
001 268 2 0 6.6493e+08 6.65198e+08 6.66285e+08 6.70331e+08 0
000 269 2 1 6.77621e+08 6.77874e+08 6.78961e+08 6.90198e+08 1
001 270 1 1 6.92583e+08 6.92847e+08 6.94109e+08 7.09605e+08 0
000 271 1 0 7.17609e+08 7.17875e+08 7.19136e+08 7.19537e+08 1
001 272 2 1 7.33827e+08 7.34085e+08 7.348e+08 7.63208e+08 0
001 273 2 0 7.65748e+08 7.6601e+08 7.67219e+08 7.69544e+08 0
000 274 2 0 7.83474e+08 7.83738e+08 7.84947e+08 7.8937e+08 1
000 275 2 0 7.96484e+08 7.9675e+08 7.97959e+08 7.98664e+08 1
000 276 2 0 8.0601e+08 8.06285e+08 8.07494e+08 8.10151e+08 1
000 277 2 0 8.17962e+08 8.18214e+08 8.18943e+08 8.25589e+08 0
000 278 2 0 8.35308e+08 8.3557e+08 8.36175e+08 8.37661e+08 0
000 279 1 0 8.44791e+08 8.45053e+08 8.46031e+08 8.50524e+08 0
001 280 1 0 8.53009e+08 8.53267e+08 8.54743e+08 8.89892e+08 0
001 281 1 0 9.05973e+08 9.06227e+08 9.07654e+08 9.07828e+08 0
001 282 1 0 9.26073e+08 9.2633e+08 9.27504e+08 9.2803e+08 0
001 283 1 0 9.31476e+08 9.31736e+08 9.32689e+08 9.64966e+08 0
001 284 1 1 9.77231e+08 9.77503e+08 9.7839e+08 1.01389e+09 0
000 285 1 0 1.02225e+09 1.02251e+09 1.0234e+09 1.04025e+09 1
001 286 1 0 1.04297e+09 1.04323e+09 1.04453e+09 1.05043e+09 0
001 287 2 1 1.05907e+09 1.05934e+09 1.06027e+09 1.06031e+09 0
001 288 2 0 1.06876e+09 1.06902e+09 1.06976e+09 1.10341e+09 0
000 289 2 0 1.11279e+09 1.11304e+09 1.11379e+09 1.11795e+09 1
000 290 2 0 1.1252e+09 1.12547e+09 1.12622e+09 1.14359e+09 1
000 291 2 0 1.15085e+09 1.15112e+09 1.15186e+09 1.15626e+09 1
000 292 2 0 1.16493e+09 1.16519e+09 1.16599e+09 1.18073e+09 0
000 293 2 0 1.18786e+09 1.18811e+09 1.18904e+09 1.20264e+09 0
000 294 1 0 1.21022e+09 1.21047e+09 1.21167e+09 1.21654e+09 0
001 295 1 0 1.22042e+09 1.22068e+09 1.22197e+09 1.2282e+09 0
001 296 1 0 1.23064e+09 1.23091e+09 1.23204e+09 1.24359e+09 0
001 297 2 0 1.2462e+09 1.24646e+09 1.24742e+09 1.27135e+09 0
000 298 2 0 1.27872e+09 1.27897e+09 1.27993e+09 1.28522e+09 1
000 299 2 0 1.29258e+09 1.29283e+09 1.29379e+09 1.29673e+09 1
000 300 2 0 1.30395e+09 1.3042e+09 1.30516e+09 1.30949e+09 1
000 301 2 0 1.31663e+09 1.31688e+09 1.31779e+09 1.33574e+09 0
000 302 2 1 1.34305e+09 1.34336e+09 1.34458e+09 1.3826e+09 0
001 303 2 0 1.39826e+09 1.39853e+09 1.39926e+09 1.39987e+09 0
000 304 2 0 1.4073e+09 1.40756e+09 1.40828e+09 1.44803e+09 1
000 305 2 0 1.45548e+09 1.45573e+09 1.45646e+09 1.47423e+09 1
000 306 2 0 1.48172e+09 1.48199e+09 1.48272e+09 1.5149e+09 1
000 307 2 0 1.52306e+09 1.52332e+09 1.52477e+09 1.53311e+09 0
000 308 1 0 1.55482e+09 1.55507e+09 1.55649e+09 1.56118e+09 0
001 309 1 1 1.5747e+09 1.57497e+09 1.57589e+09 1.57978e+09 0
000 310 1 1 1.58723e+09 1.58749e+09 1.58841e+09 1.58865e+09 1
000 311 1 0 1.59636e+09 1.59663e+09 1.59755e+09 1.6201e+09 1
001 312 2 1 1.62849e+09 1.62875e+09 1.63008e+09 1.68415e+09 0
001 313 1 1 1.68656e+09 1.68682e+09 1.68808e+09 1.68933e+09 0
000 314 1 0 1.69645e+09 1.69671e+09 1.69798e+09 1.74637e+09 1
001 315 1 0 1.74891e+09 1.74918e+09 1.75059e+09 1.75591e+09 0
001 316 1 1 1.76369e+09 1.76395e+09 1.76531e+09 1.76593e+09 0
000 317 1 0 1.77375e+09 1.77402e+09 1.77538e+09 1.78899e+09 1
001 318 2 0 1.80855e+09 1.80881e+09 1.80951e+09 1.81006e+09 0
000 319 2 1 1.81799e+09 1.81825e+09 1.81896e+09 1.8296e+09 1
001 320 2 0 1.83527e+09 1.83552e+09 1.83651e+09 1.84388e+09 0
000 321 2 1 1.85859e+09 1.85886e+09 1.85985e+09 1.86279e+09 1
001 322 1 1 1.87897e+09 1.87922e+09 1.8798e+09 1.87983e+09 0
000 323 1 0 1.89412e+09 1.89439e+09 1.89497e+09 1.89694e+09 1
001 324 2 0 1.91168e+09 1.91195e+09 1.91344e+09 1.97741e+09 0
000 325 2 1 1.98916e+09 1.98942e+09 1.99091e+09 1.99102e+09 1
001 326 1 1 1.99584e+09 1.9961e+09 1.99676e+09 2.01089e+09 0
000 327 1 0 2.01854e+09 2.01881e+09 2.01947e+09 2.02543e+09 1
001 328 1 1 2.0326e+09 2.03286e+09 2.03435e+09 2.03576e+09 0
000 329 1 0 2.04302e+09 2.0433e+09 2.04479e+09 2.04506e+09 1
001 330 1 1 2.05505e+09 2.05532e+09 2.05659e+09 2.05681e+09 0
000 331 1 1 2.06546e+09 2.06572e+09 2.067e+09 2.06726e+09 1
000 332 1 0 2.08441e+09 2.08466e+09 2.08594e+09 2.08747e+09 1
001 333 1 0 2.09349e+09 2.09376e+09 2.09506e+09 2