trial trialType response stillTime stimOnset stimOffset respTime correctionTrial correct
001 1 0 3.1099e+06 3.38106e+06 4.46531e+06 9.39081e+08 0
001 002 2 1 9.41447e+08 9.417e+08 9.42527e+08 9.4322e+08 0
001 003 2 1 9.46364e+08 9.46622e+08 9.47722e+08 9.47783e+08 0
001 004 1 0 9.50205e+08 9.50466e+08 9.51135e+08 9.51395e+08 0
001 005 1 0 9.55686e+08 9.55951e+08 9.56784e+08 9.56805e+08 0
001 006 2 0 1.00332e+09 1.00358e+09 1.00463e+09 1.00697e+09 0
000 007 2 0 1.01447e+09 1.01473e+09 1.01578e+09 1.01621e+09 1
000 008 2 0 1.03693e+09 1.03719e+09 1.03824e+09 1.04127e+09 1
000 009 2 0 1.04932e+09 1.04957e+09 1.05062e+09 1.05064e+09 1
000 010 1 0 1.05912e+09 1.05938e+09 1.06077e+09 1.06313e+09 0
001 011 2 0 1.06587e+09 1.06614e+09 1.06724e+09 1.06763e+09 0
000 012 2 0 1.08465e+09 1.08491e+09 1.08601e+09 1.0865e+09 1
000 013 2 0 1.09873e+09 1.09899e+09 1.10009e+09 1.10563e+09 1
000 014 2 0 1.11272e+09 1.11297e+09 1.11408e+09 1.11711e+09 1
000 015 1 1 1.12469e+09 1.12494e+09 1.12559e+09 1.12714e+09 0
000 016 2 0 1.13489e+09 1.13516e+09 1.13571e+09 1.14295e+09 0
000 017 2 0 1.15121e+09 1.15147e+09 1.15198e+09 1.17663e+09 0
000 018 2 0 1.18394e+09 1.18421e+09 1.1848e+09 1.19596e+09 0
000 019 2 0 1.20339e+09 1.20365e+09 1.20511e+09 1.22554e+09 0
000 020 1 0 1.23273e+09 1.23299e+09 1.23439e+09 1.23453e+09 0
001 021 1 0 1.23891e+09 1.23919e+09 1.24002e+09 1.24063e+09 0
001 022 1 1 1.24751e+09 1.24777e+09 1.2487e+09 1.27718e+09 0
000 023 1 0 1.28443e+09 1.2847e+09 1.28563e+09 1.31597e+09 1
001 024 2 1 1.31972e+09 1.31999e+09 1.32099e+09 1.32403e+09 0
001 025 1 1 1.3262e+09 1.32646e+09 1.32699e+09 1.32917e+09 0
000 026 1 0 1.33665e+09 1.33691e+09 1.33744e+09 1.37501e+09 1
001 027 2 1 1.3774e+09 1.37767e+09 1.37849e+09 1.37884e+09 0
001 028 2 1 1.38138e+09 1.38165e+09 1.38256e+09 1.39075e+09 0
001 029 2 1 1.39318e+09 1.39343e+09 1.39468e+09 1.39566e+09 0
001 030 2 1 1.39826e+09 1.39852e+09 1.39961e+09 1.42572e+09 0
001 031 1 0 1.43075e+09 1.43101e+09 1.4322e+09 1.43278e+09 0
001 032 1 1 1.43537e+09 1.43563e+09 1.43668e+09 1.44024e+09 0
000 033 1 1 1.44731e+09 1.44758e+09 1.44863e+09 1.44953e+09 1
000 034 1 1 1.45686e+09 1.45712e+09 1.45817e+09 1.47443e+09 1
000 035 1 0 1.48411e+09 1.48438e+09 1.48543e+09 1.4873e+09 1
001 036 2 1 1.49073e+09 1.491e+09 1.49231e+09 1.49234e+09 0
001 037 2 1 1.49511e+09 1.49537e+09 1.49636e+09 1.49713e+09 0
001 038 1 1 1.49957e+09 1.49983e+09 1.5007e+09 1.50083e+09 0
000 039 1 1 1.51097e+09 1.51125e+09 1.51212e+09 1.51265e+09 1
000 040 1 0 1.5202e+09 1.52046e+09 1.52133e+09 1.53147e+09 1
001 041 2 1 1.53501e+09 1.53527e+09 1.53593e+09 1.53817e+09 0
001 042 2 1 1.54304e+09 1.54329e+09 1.54452e+09 1.54689e+09 0
001 043 1 1 1.54941e+09 1.54967e+09 1.55099e+09 1.55841e+09 0
000 044 1 1 1.56851e+09 1.56877e+09 1.57009e+09 1.58266e+09 1
000 045 1 0 1.59019e+09 1.59045e+09 1.59177e+09 1.60214e+09 1
001 046 1 1 1.60869e+09 1.60896e+09 1.60999e+09 1.61049e+09 0
000 047 1 1 1.62341e+09 1.62367e+09 1.6247e+09 1.63234e+09 1
000 048 1 0 1.63947e+09 1.63974e+09 1.64077e+09 1.65342e+09 1
001 049 1 1 1.65576e+09 1.65602e+09 1.65693e+09 1.6586e+09 0
000 050 1 1 1.66631e+09 1.66656e+09 1.66748e+09 1.67983e+09 1
000 051 1 0 1.68688e+09 1.68714e+09 1.68806e+09 1.69245e+09 1
001 052 1 1 1.69866e+09 1.69893e+09 1.69955e+09 1.7013e+09 0
000 053 1 0 1.70856e+09 1.70882e+09 1.70944e+09 1.73091e+09 1
001 054 1 1 1.73349e+09 1.73375e+09 1.73495e+09 1.73595e+09 0
000 055 1 0 1.74317e+09 1.74344e+09 1.74464e+09 1.74592e+09 1
001 056 2 1 1.74869e+09 1.74895e+09 1.75036e+09 1.7533e+09 0
001 057 1 1 1.7564e+09 1.75666e+09 1.75753e+09 1.75839e+09 0
000 058 1 0 1.76627e+09 1.76652e+09 1.76739e+09 1.77664e+09 1
001 059 2 1 1.77978e+09 1.78004e+09 1.78058e+09 1.78072e+09 0
001 060 1 0 1.78647e+09 1.78673e+09 1.78805e+09 1.78918e+09 0
001 061 1 0 1.79193e+09 1.79218e+09 1.79319e+09 1.79379e+09 0
001 062 2 1 1.79624e+09 1.7965e+09 1.79731e+09 1.80144e+09 0
001 063 1 0 1.80361e+09 1.80387e+09 1.80528e+09 1.84577e+09 0
001 064 2 0 1.84793e+09 1.8482e+09 1.84967e+09 1.88055e+09 0
000 065 2 0 1.8879e+09 1.88816e+09 1.88963e+09 1.88977e+09 1
000 066 2 0 1.89717e+09 1.89743e+09 1.8989e+09 1.90502e+09 1
000 067 2 0 1.91301e+09 1.91328e+09 1.91475e+09 1.92752e+09 1
000 068 2 0 1.93724e+09 1.93751e+09 1.93818e+09 1.97058e+09 0
000 069 2 0 1.97788e+09 1.97814e+09 1.97867e+09 2.01205e+09 0
000 070 1 0 2.01958e+09 2.01985e+09 2.02061e+09 2.03704e+09 0
001 071 2 1 2.04189e+09 2.04216e+09 2.04311e+09 2.04337e+09 0
001 072 2 1 2.04616e+09 2.04643e+09 2.04737e+09 2.05128e+09 0
001 073 2 1 2.05353e+09 2.05379e+09 2.05507e+09 2.05614e+09 0
001 074 1 1 2.05844e+09 2.0587e+09 2.05983e+09 2.06001e+09 0
000 075 1 0 2.06744e+09 2.06769e+09 2.06881e+09 2.08916e+09 1
001 076 2 1 2.09161e+09 2.09188e+09 2.09336e+09 2.09414e+09 0
001 077 1 1 2.09719e+09 2.09745e+09 2.0989e+09 2.09897e+09 0
000 078 1 0 2.10607e+09 2.10633e+09 2.10777e+09 2.10867e+09 1
001 079 2 1 2.11137e+09 2.11163e+09 2.11223e+09 2.11337e+09 0
001 080 1 1 2.11583e+09 2.11609e+09 2.11698e+09 2.12401e+09 0
000 081 1 0 2.13118e+09 2.13144e+09 2.13234e+09 2.13525e+09 1
001 082 1 1 2.13748e+09 2.13774e+09 2.13871e+09 2.13879e+09 0
000 083 1 0 2.14598e+09 2.14625e+09 2.14722e+09 2.20115e+09 1
001 084 2 1 2.20329e+09 2.20354e+09 2.20494e+09 2.20497e+09 0
001 085 2 0 2.20726e+09 2.20751e+09 2.20884e+09 2.21163e+09 0
000 086 2 1 2.21887e+09 2.21913e+09 2.22046e+09 2.22117e+09 1
001 087 1 1 2.22357e+09 2.22383e+09 2.22467e+09 2.22505e+09 0
000 088 1 0 2.23251e+09 2.23276e+09 2.23361e+09 2.23553e+09 1
001 089 1 1 2.23828e+09 2.23854e+09 2.23972e+09 2.24194e+09 0
000 090 1 0 2.24997e+09 2.25023e+09 2.25141e+09 2.25151e+09 1
001 091 1 0 2.25725e+09 2.25751e+09 2.25847e+09 2.2678e+09 0
001 092 2 0 2.27006e+09 2.27031e+09 2.27099e+09 2.27143e+09 0
000 093 2 1 2.27941e+09 2.27968e+09 2.28035e+09 2.28084e+09 1
001 094 1 1 2.28348e+09 2.28375e+09 2.28496e+09 2.31549e+09 0
000 095 1 0 2.32278e+09 2.32304e+09 2.32426e+09 2.34382e+09 1
001 096 2 0 2.34602e+09 2.34628e+09 2.34692e+09 2.3539e+09 0
000 097 2 0 2.36152e+09 2.36177e+09 2.36241e+09 2.36348e+09 1
000 098 2 0 2.37533e+09 2.37559e+09 2.37624e+09 2.38057e+09 1
000 099 2 1 2.38806e+09 2.38832e+09 2.38896e+09 2.39167e+09 1
001 100 2 0 2.39626e+09 2.39651e+09 2.39764e+09 2.43014e+09 0
000 101 2 1 2.4401e+09 2.44036e+09 2.44148e+09 2.44524e+09 1
001 102 1 1 2.44952e+09 2.44978e+09 2.45051e+09 2.45386e+09 0
000 103 1 0 2.46557e+09 2.46583e+09 2.46656e+09 2.46744e+09 1
001 104 1 1 2.47037e+09 2.47062e+09 2.4721e+09 2.47227e+09 0
000 105 1 1 2.48184e+09 2.4821e+09 2.48357e+09 2.55492e+09 1
000 106 1 0 2.56233e+09 2.56259e+09 2.56407e+09 2.56921e+09 1
001 107 2 0 2.5725e+09 2.57277e+09 2.57406e+09 2.57543e+09 0
000 108 2 0 2.58287e+09 2.58313e+09 2.58442e+09 2.61855e+09 1
000 109 2 1 2.62874e+09 2.62899e+09 2.63028e+09 2.63296e+09 1
001 110 2 0 2.6355e+09 2.63577e+09 2.63727e+09 2.63926e+09 0
000 111 2 0 2.64785e+09 2.64811e+09 2.6496e+09 2.68448e+09 1
000 112 2 1 2.69176e+09 2.69201e+09 2.69351e+09 2.70194e+09 1
001 113 2 0 2.71049e+09 2.71074e+09 2.71173e+09 2.72872e+09 0
000 114 2 0 2.73685e+09 2.73711e+09 2.73809e+09 2.73814e+09 1
000 115 2 1 2.74546e+09 2.74571e+09 2.74669e+09 2.79646e+09 1
001 116 2 1 2.79889e+09 2.79914e+09 2.80006e+09 2.80745e+09 0
001 117 1 1 2.80973e+09 2.80999e+09 2.81084e+09 2.82183e+09 0
000 118 1 1 2.82927e+09 2.82952e+09 2.83038e+09 2.84649e+09 1
000 119 1 0 2.85402e+09 2.85428e+09 2.85514e+09 2.8665e+09 1
001 120 2 0 2.88069e+09 2.88094e+09 2.88226e+09 2.92096e+09 0
000 121 2 1 2.92827e+09 2.92852e+09 2.92985e+09 2.93057e+09 1
001 122 2 0 2.93291e+09 2.93317e+09 2.93388e+09 2.93903e+09 0
000 123 2 0 2.94618e+09 2.94643e+09 2.94714e+09 2.96007e+09 1
000 124 2 1 2.96799e+09 2.96824e+09 2.96895e+09 2.9781e+09 1
001 125 1 0 2.98166e+09 2.98191e+09 2.98246e+09 2.98506e+09 0
001 126 1 1 2.98785e+09 2.98811e+09 2.98923e+09 2.98947e+09 0
000 127 1 0 2.99662e+09 2.99688e+09 2.99801e+09 3.05535e+09 1
001 128 1 1 3.05782e+09 3.05808e+09 3.05936e+09 3.06242e+09 0
000 129 1 1 3.07235e+09 3.07261e+09 3.0739e+09 3.07601e+09 1
000 130 1 1 3.08353e+09 3.08378e+09 3.08507e+09 3.09166e+09 1
000 131 1 1 3.10078e+09 3.10104e+09 3.10233e+09 3.10987e+09 1
000 132 1 0 3.11732e+09 3.11757e+09 3.11876e+09 3.1372e+09 0
001 133 2 1 3.13941e+09 3.13967e+09 3.14081e+09 3.14918e+09 0
001 134 2 0 3.15167e+09 3.15194e+09 3.15288e+09 3.19876e+09 0
000 135 2 1 3.20739e+09 3.20764e+09 3.20858e+09 3.20903e+09 1
001 136 1 1 3.21468e+09 3.21495e+09 3.21588e+09 3.21606e+09 0
000 137 1 1 3.22335e+09 3.22361e+09 3.22455e+09 3.23757e+09 1
000 138 1 0 3.24482e+09 3.24508e+09 3.24601e+09 3.25615e+09 1
001 139 1 0 3.25845e+09 3.25872e+09 3.25961e+09 3.26281e+09 0
001 140 2 1 3.26885e+09 3.26912e+09 3.26975e+09 3.27033e+09 0
001 141 1 0 3.27272e+09 3.27297e+09 3.27361e+09 3.27371e+09 0
001 142 1 1 3.27642e+09 3.27667e+09 3.27763e+09 3.27807e+09 0
000 143 1 1 3.28536e+09 3.28561e+09 3.28657e+09 3.29296e+09 1
000 144 1 0 3.30006e+09 3.30032e+09 3.30128e+09 3.30137e+09 1
001 145 1 1 3.30402e+09 3.30428e+09 3.30552e+09 3.30663e+09 0
000 146 1 1 3.31398e+09 3.31424e+09 3.31548e+09 3.31777e+09 1
000 147 1 1 3.32495e+09 3.32521e+09 3.32645e+09 3.3363e+09 1
000 148 1 0 3.34353e+09 3.34379e+09 3.34504e+09 3.36388e+09 1
001 149 2 0 3.36646e+09 3.36672e+09 3.36754e+09 3.3676e+09 0
000 150 2 0 3.37464e+09 3.3749e+09 3.37572e+09 3.39714e+09 1
000 151 2 1 3.4152e+09 3.41547e+09 3.41629e+09 3.4204e+09 1
001 152 1 1 3.42581e+09 3.42606e+09 3.4268e+09 3.42729e+09 0
000 153 1 0 3.43444e+09 3.4347e+09 3.43544e+09 3.45081e+09 1
001 154 2 0 3.45326e+09 3.45352e+09 3.45419e+09 3.46898e+09 0
000 155 2 0 3.4809e+09 3.48116e+09 3.48183e+09 3.48352e+09 1
000 156 2 1 3.49791e+09 3.49817e+09 3.49884e+09 3.50223e+09 1
001 157 1 1 3.50467e+09 3.50493e+09 3.50564e+09 3.50716e+09 0
000 158 1 0 3.51851e+09 3.51876e+09 3.51947e+09 3.54953e+09 1
001 159 1 1 3.55207e+09 3.55232e+09 3.55353e+09 3.55357e+09 0
000 160 1 1 3.56074e+09 3.56101e+09 3.56221e+09 3.56372e+09 1
000 161 1 0 3.5709e+09 3.57116e+09 3.57237e+09 3.57781e+09 1
001 162 2 1 3.59392e+09 3.59418e+09 3.59509e+09 3.59821e+09 0
001 163 1 1 3.60065e+09 3.60091e+09 3.60145e+09 3.60653e+09 0
000 164 1 0 3.61385e+09 3.61412e+09 3.61466e+09 3.65122e+09 1
001 165 2 1 3.6536e+09 3.65386e+09 3.65525e+09 3.6555e+09 0
001 166 2 0 3.65787e+09 3.65812e+09 3.65895e+09 3.65928e+09 0
000 167 2 1 3.66654e+09 3.6668e+09 3.66762e+09 3.66849e+09 1
001 168 1 1 3.67112e+09 3.67137e+09 3.67282e+09 3.67288e+09 0
000 169 1 0 3.6803e+09 3.68056e+09 3.682e+09 3.70609e+09 1
001 170 2 0 3.70825e+09 3.70852e+09 3.7097e+09 3.72938e+09 0
000 171 2 0 3.73723e+09 3.73748e+09 3.73866e+09 3.73916e+09 1
000 172 2 1 3.7466e+09 3.74686e+09 3.74804e+09 3.75195e+09 1
001 173 1 1 3.75445e+09 3.7547e+09 3.75609e+09 3.75745e+09 0
000 174 1 0 3.7665e+09 3.76676e+09 3.76814e+09 3.76816e+09 1
001 175 1 1 3.77237e+09 3.77263e+09 3.77362e+09 3.77434e+09 0
000 176 1 1 3.78147e+09 3.78173e+09 3.78271e+09 3.78413e+09 1
000 177 1 1 3.79123e+09 3.79149e+09 3.79247e+09 3.79982e+09 1
000 178 1 0 3.80703e+09 3.80729e+09 3.80827e+09 3.83386e+09 1
001 179 1 1 3.83612e+09 3.83638e+09 3.83704e+09 3.83942e+09 0
000 180 1 0 3.84692e+09 3.84718e+09 3.84784e+09 3.87775e+09 1
001 181 2 0 3.88116e+09 3.88143e+09 3.88275e+09 3.88329e+09 0
000 182 2 0 3.89204e+09 3.89235e+09 3.89368e+09 3.89624e+09 1
000 183 2 1 3.90356e+09 3.90382e+09 3.90514e+09 3.91104e+09 1
001 184 2 1 3.91506e+09 3.91532e+09 3.91633e+09 3.91761e+09 0
001 185 1 1 3.92015e+09 3.9204e+09 3.92157e+09 3.92165e+09 0
000 186 1 1 3.92908e+09 3.92935e+09 3.93052e+09 3.94137e+09 1
000 187 1 0 3.94891e+09 3.94917e+09 3.95035e+09 3.9601e+09 1
001 188 1 1 3.96264e+09 3.96291e+09 3.96405e+09 3.96487e+09 0
000 189 1 0 3.97498e+09 3.97524e+09 3.97639e+09 3.97773e+09 1
001 190 2 1 3.98114e+09 3.9814e+09 3.9827e+09 3.98288e+09 0
001 191 2 0 3.98532e+09 3.98559e+09 3.98679e+09 3.98682e+09 0
000 192 2 0 3.99434e+09 3.99459e+09 3.9958e+09 4.03048e+09 1
000 193 2 1 4.03796e+09 4.03823e+09 4.03944e+09 4.04512e+09 1
001 194 1 1 4.04884e+09 4.0491e+09 4.04984e+09 4.05083e+09 0
000 195 1 1 4.05802e+09 4.05827e+09 4.05901e+09 4.05993e+09 1
000 196 1 0 4.06702e+09 4.06728e+09 4.06802e+09 4.06845e+09 1
001 197 1 0 4.07158e+09 4.07184e+09 4.07264e+09 4.0727e+09 0
001 198 1 0 4.08224e+09 4.0825e+09 4.08315e+09 4.08747e+09 0
001 199 1 1 4.09006e+09 4.09032e+09 4.09093e+09 4.09107e+09 0
000 200 1 1 4.09826e+09 4.09852e+09 4.09913e+09 4.10121e+09 1
000 201 1 1 4.1085e+09 4.10876e+09 4.10937e+09 4.14055e+09 1
000 202 1 1 4.1504e+09 4.15066e+09 4.15127e+09 4.15628e+09 1
000 203 1 1 4.16369e+09 4.16395e+09 4.1646e+09 4.1698e+09 0
000 204 2 1 4.18017e+09 4.18044e+09 4.18154e+09 4.18725e+09 0
001 205 2 0 4.19269e+09 4.19295e+09 4.19369e+09 4.22103e+09 0
000 206 2 1 4.22876e+09 4.22901e+09 4.22975e+09 4.23365e+09 1
001 207 1 1 4.23629e+09 4.23656e+09 4.23746e+09 4.24584e+09 0
000 208 1 0 4.25292e+09 4.25318e+09 4.25409e+09 4.25428e+09 1
001 209 2 1 4.25715e+09 4.25741e+09 4.25814e+09 4.26941e+09 0
001 210 2 1 4.27322e+09 4.27348e+09 4.27479e+09 4.28724e+09 0
001 211 1 1 4.28953e+09 4.28978e+09 4.29089e+09 1.54106e+06 0
000 212 1 0 1.75749e+07 1.78473e+07 1.89572e+07 1.91335e+07 1
001 213 1 1 2.17651e+07 2.20167e+07 2.26701e+07 2.38514e+07 0
000 214 1 1 3.11081e+07 3.13745e+07 3.20279e+07 5.13018e+07 1
000 215 1 1 6.09495e+07 6.12202e+07 6.18736e+07 6.29799e+07 1
000 216 1 1 7.24787e+07 7.27324e+07 7.33858e+07 8.00507e+07 1
000 217 2 0 8.74404e+07 8.77088e+07 8.9203e+07 9.34037e+07 0
000 218 1 1 1.0272e+08 1.02983e+08 1.03646e+08 1.07969e+08 0
000 219 1 1 1.18169e+08 1.18431e+08 1.19615e+08 1.2925e+08 0
000 220 2 0 1.36461e+08 1.36722e+08 1.37592e+08 1.40605e+08 0
000 221 1 1 1.54231e+08 1.54483e+08 1.55635e+08 1.57973e+08 0
000 222 1 1 1.66792e+08 1.67046e+08 1.68531e+08 1.71957e+08 0
000 223 2 1 1.79531e+08 1.79795e+08 1.80616e+08 1.85699e+08 0
001 224 1 1 1.95787e+08 1.96042e+08 1.9671e+08 2.07164e+08 0
000 225 1 0 2.15248e+08 2.15512e+08 2.1618e+08 2.22012e+08 1
001 226 2 0 2.24602e+08 2.24858e+08 2.26134e+08 2.26626e+08 0
000 227 2 1 2.34698e+08 2.34956e+08 2.36233e+08 2.42541e+08 1
001 228 2 1 2.48689e+08 2.48945e+08 2.50418e+08 2.86243e+08 0
001 229 2 0 2.90734e+08 2.90992e+08 2.92118e+08 2.96948e+08 0
000 230 2 0 3.04297e+08 3.04563e+08 3.05688e+08 3.17795e+08 1
000 231 2 0 3.25219e+08 3.25481e+08 3.26606e+08 3.46051e+08 1
000 232 2 1 3.54429e+08 3.5468e+08 3.55805e+08 3.60667e+08 1
001 233 2 1 3.62897e+08 3.63163e+08 3.64262e+08 3.64843e+08 0
001 234 1 1 3.69439e+08 3.69698e+08 3.70889e+08 3.72176e+08 0
000 235 1 1 3.7948e+08 3.79733e+08 3.80924e+08 3.89216e+08 1
000 236 1 0 3.96558e+08 3.9682e+08 3.98012e+08 4.20729e+08 1
001 237 1 0 4.23286e+08 4.23536e+08 4.25002e+08 4.47476e+08 0
001 238 2 0 4.53833e+08 4.54084e+08 4.54644e+08 4.84896e+08 0
000 239 2 0 4.92359e+08 4.92661e+08 4.93221e+08 4.96428e+08 1
000 240 2 0 5.03745e+08 5.03999e+08 5.04559e+08 5.17963e+08 1
000 241 2 1 5.25186e+08 5.25454e+08 5.26014e+08 5.2629e+08 1
001 242 1 1 5.29036e+08 5.29291e+08 5.29951e+08 5.32301e+08 0
000 243 1 1 5.39698e+08 5.39955e+08 5.40615e+08 5.4162e+08 1
000 244 1 1 5.48683e+08 5.48936e+08 5.49596e+08 5.60916e+08 1
000 245 1 0 5.6842e+08 5.68685e+08 5.69346e+08 5.73516e+08 1
001 246 2 1 5.75671e+08 5.75927e+08 5.77274e+08 5.82993e+08 0
001 247 1 1 5.85317e+08 5.85569e+08 5.86083e+08 5.86516e+08 0
000 248 1 1 5.93744e+08 5.94018e+08 5.94532e+08 6.29628e+08 1
000 249 1 1 6.37885e+08 6.38145e+08 6.38659e+08 6.38713e+08 1
000 250 1 1 6.46098e+08 6.46362e+08 6.46876e+08 6.47116e+08 1
000 251 2 1 6.54538e+08 6.54792e+08 6.55624e+08 6.70347e+08 0
001 252 2 1 6.73117e+08 6.73381e+08 6.74766e+08 6.7505e+08 0
001 253 1 1 6.77671e+08 6.77934e+08 6.79231e+08 7.04047e+08 0
000 254 1 1 7.22649e+08 7.22901e+08 7.24199e+08 7.36295e+08 1
000 255 1 1 7.43493e+08 7.43755e+08 7.45053e+08 7.5066e+08 1
000 256 1 1 7.58055e+08 7.58321e+08 7.59618e+08 7.8546e+08 1
000 257 2 1 7.92743e+08 7.9301e+08 7.94181e+08 8.00982e+08 0
001 258 1 1 8.05428e+08 8.05698e+08 8.06901e+08 8.19131e+08 0
000 259 1 1 8.26211e+08 8.26473e+08 8.27677e+08 8.59117e+08 1
000 260 1 1 8.66177e+08 8.66437e+08 8.67641e+08 9.25878e+08 1
000 261 1 1 9.33343e+08 9.336e+08 9.34804e+08 9.44673e+08 1
000 262 2 1 9.52027e+08 9.52289e+08 9.53347e+08 9.58943e+08 0
001 263 1 0 9.6109e+08 9.61362e+08 9.628e+08 9.78361e+08 0
001 264 1 0 9.80683e+08 9.80947e+08 9.81763e+08 9.93147e+08 0
001 265 2 1 1.00673e+09 1.00699e+09 1.00774e+09 1.01283e+09 0
001 266 1 1 1.01521e+09 1.01546e+09 1.01679e+09 