trial trialType response stillTime stimOnset stimOffset respTime correctionTrial correct
001 1 1 3.12014e+06 3.39774e+06 4.14029e+06 7.98404e+06 0
000 002 1 0 1.52914e+07 1.555e+07 1.62925e+07 1.39804e+09 1
001 003 2 0 1.40041e+09 1.40067e+09 1.40127e+09 1.40472e+09 0
000 004 2 0 1.41582e+09 1.41608e+09 1.41668e+09 1.41877e+09 1
000 005 2 0 1.43154e+09 1.4318e+09 1.4324e+09 1.43361e+09 1
000 006 2 0 1.44094e+09 1.4412e+09 1.4418e+09 1.4421e+09 1
000 007 1 0 1.44994e+09 1.4502e+09 1.45118e+09 1.4513e+09 0
001 008 2 0 1.46526e+09 1.46552e+09 1.46683e+09 1.468e+09 0
000 009 2 0 1.48377e+09 1.48402e+09 1.48533e+09 1.48685e+09 1
000 010 2 1 1.49585e+09 1.4961e+09 1.49741e+09 1.49767e+09 1
001 011 2 0 1.50449e+09 1.50475e+09 1.50551e+09 1.50581e+09 0
000 012 2 0 1.51321e+09 1.51347e+09 1.51423e+09 1.53045e+09 1
000 013 2 0 1.53799e+09 1.53824e+09 1.53901e+09 1.63731e+09 1
000 014 2 0 1.64543e+09 1.64568e+09 1.64645e+09 1.64879e+09 1
000 015 1 1 1.65641e+09 1.65667e+09 1.65741e+09 1.66028e+09 0
000 016 2 1 1.66737e+09 1.66764e+09 1.66901e+09 1.67854e+09 0
001 017 1 0 1.68878e+09 1.68904e+09 1.6905e+09 1.69759e+09 0
001 018 2 0 1.70012e+09 1.70038e+09 1.70184e+09 1.72856e+09 0
000 019 2 0 1.73614e+09 1.7364e+09 1.73786e+09 1.78605e+09 1
000 020 2 0 1.79321e+09 1.79346e+09 1.79492e+09 1.79872e+09 1
000 021 2 1 1.80773e+09 1.808e+09 1.80946e+09 1.8107e+09 1
001 022 2 1 1.8183e+09 1.81856e+09 1.81923e+09 1.8267e+09 0
001 023 1 0 1.82922e+09 1.82949e+09 1.83054e+09 1.83155e+09 0
001 024 2 0 1.83484e+09 1.83511e+09 1.83571e+09 1.86785e+09 0
000 025 2 1 1.87496e+09 1.87523e+09 1.87583e+09 1.94509e+09 1
001 026 2 0 1.97342e+09 1.97368e+09 1.97429e+09 1.97612e+09 0
000 027 2 0 1.98349e+09 1.98375e+09 1.98436e+09 1.99347e+09 1
000 028 2 0 2.00174e+09 2.00201e+09 2.00262e+09 2.01937e+09 1
000 029 2 0 2.06342e+09 2.06368e+09 2.06429e+09 2.06459e+09 1
000 030 1 0 2.08581e+09 2.08607e+09 2.08715e+09 2.08779e+09 0
001 031 2 0 2.09388e+09 2.09414e+09 2.09516e+09 2.14186e+09 0
000 032 2 0 2.14941e+09 2.14966e+09 2.15068e+09 2.1507e+09 1
000 033 2 0 2.15928e+09 2.15954e+09 2.16056e+09 2.16172e+09 1
000 034 2 1 2.1729e+09 2.17316e+09 2.17419e+09 2.17604e+09 1
001 035 2 1 2.18312e+09 2.18338e+09 2.18422e+09 2.20412e+09 0
001 036 2 1 2.20658e+09 2.20683e+09 2.20747e+09 2.32153e+09 0
001 037 1 0 2.3246e+09 2.32486e+09 2.32562e+09 2.3269e+09 0
001 038 1 1 2.33164e+09 2.3319e+09 2.33277e+09 2.3641e+09 0
000 039 1 0 2.37123e+09 2.37149e+09 2.37236e+09 2.37325e+09 1
001 040 2 1 2.38194e+09 2.38221e+09 2.38299e+09 2.39036e+09 0
001 041 1 1 2.40597e+09 2.40623e+09 2.40751e+09 2.40812e+09 0
000 042 1 1 2.42167e+09 2.42194e+09 2.42321e+09 2.42337e+09 1
000 043 1 0 2.44881e+09 2.44907e+09 2.45034e+09 2.45055e+09 1
001 044 1 1 2.47842e+09 2.47868e+09 2.47954e+09 2.47995e+09 0
000 045 1 1 2.52141e+09 2.52168e+09 2.52253e+09 2.52284e+09 1
000 046 1 1 2.53052e+09 2.53078e+09 2.53164e+09 2.53169e+09 1
000 047 1 0 2.55506e+09 2.55532e+09 2.55618e+09 2.55974e+09 1
001 048 2 1 2.56254e+09 2.56282e+09 2.5639e+09 2.61239e+09 0
001 049 2 1 2.61775e+09 2.61803e+09 2.61926e+09 2.67055e+09 0
001 050 1 0 2.67816e+09 2.67842e+09 2.67989e+09 2.70356e+09 0
001 051 1 0 2.70588e+09 2.70614e+09 2.70758e+09 2.70953e+09 0
001 052 2 0 2.75456e+09 2.75481e+09 2.75553e+09 2.75659e+09 0
000 053 2 0 2.7702e+09 2.77046e+09 2.77117e+09 2.77526e+09 1
000 054 2 0 2.78276e+09 2.78303e+09 2.78374e+09 2.78653e+09 1
000 055 2 0 2.79374e+09 2.79401e+09 2.79472e+09 2.79601e+09 1
000 056 2 0 2.80629e+09 2.80655e+09 2.80789e+09 2.81488e+09 0
000 057 2 1 2.82954e+09 2.8298e+09 2.83128e+09 2.85411e+09 0
001 058 2 1 2.85947e+09 2.85974e+09 2.86088e+09 2.89738e+09 0
001 059 2 1 2.90025e+09 2.90051e+09 2.90175e+09 2.90545e+09 0
001 060 1 0 2.91032e+09 2.91058e+09 2.91203e+09 2.9209e+09 0
001 061 2 0 2.92343e+09 2.9237e+09 2.92427e+09 2.94641e+09 0
000 062 2 1 2.95522e+09 2.95547e+09 2.95604e+09 2.95663e+09 1
001 063 2 0 2.97711e+09 2.97737e+09 2.97868e+09 2.97869e+09 0
000 064 2 0 2.98603e+09 2.98629e+09 2.98761e+09 2.98789e+09 1
000 065 2 1 3.00057e+09 3.00082e+09 3.00213e+09 3.00355e+09 1
001 066 2 0 3.00786e+09 3.00812e+09 3.00946e+09 3.02428e+09 0
000 067 2 0 3.04564e+09 3.0459e+09 3.04723e+09 3.06748e+09 1
000 068 2 0 3.07493e+09 3.07519e+09 3.07653e+09 3.09008e+09 1
000 069 2 0 3.10437e+09 3.10463e+09 3.10596e+09 3.107e+09 1
000 070 2 0 3.1165e+09 3.11677e+09 3.11768e+09 3.17879e+09 0
000 071 2 0 3.18616e+09 3.18642e+09 3.18728e+09 3.19686e+09 0
000 072 1 0 3.20442e+09 3.20468e+09 3.20527e+09 3.22886e+09 0
001 073 1 1 3.23131e+09 3.23157e+09 3.23263e+09 3.30606e+09 0
000 074 1 0 3.31485e+09 3.31512e+09 3.31617e+09 3.33158e+09 1
001 075 2 0 3.3352e+09 3.33545e+09 3.33665e+09 3.35348e+09 0
000 076 2 1 3.36085e+09 3.3611e+09 3.36231e+09 3.44458e+09 1
001 077 1 1 3.44841e+09 3.44867e+09 3.45011e+09 3.48001e+09 0
000 078 1 0 3.48715e+09 3.48741e+09 3.48885e+09 3.48907e+09 1
001 079 2 1 3.49443e+09 3.49469e+09 3.49546e+09 3.49869e+09 0
001 080 2 1 3.50236e+09 3.50262e+09 3.5035e+09 3.51792e+09 0
001 081 1 0 3.53151e+09 3.53178e+09 3.53305e+09 3.53974e+09 0
001 082 2 0 3.55585e+09 3.5561e+09 3.5574e+09 3.56276e+09 0
000 083 2 1 3.57001e+09 3.57027e+09 3.57157e+09 3.57167e+09 1
001 084 1 1 3.59302e+09 3.59328e+09 3.59407e+09 3.596e+09 0
000 085 1 1 3.60586e+09 3.60611e+09 3.6069e+09 3.6104e+09 1
000 086 1 1 3.61818e+09 3.61844e+09 3.61923e+09 3.62127e+09 1
000 087 1 0 3.62942e+09 3.62968e+09 3.63047e+09 3.63157e+09 1
001 088 1 1 3.64442e+09 3.64468e+09 3.64546e+09 3.64568e+09 0
000 089 1 0 3.67402e+09 3.67427e+09 3.67505e+09 3.68823e+09 1
001 090 1 1 3.69085e+09 3.69111e+09 3.69203e+09 3.69213e+09 0
000 091 1 1 3.70411e+09 3.70436e+09 3.70529e+09 3.70531e+09 1
000 092 1 0 3.71258e+09 3.71285e+09 3.71378e+09 3.71513e+09 1
001 093 2 1 3.73015e+09 3.7304e+09 3.73103e+09 3.73362e+09 0
001 094 1 0 3.74004e+09 3.74029e+09 3.74091e+09 3.74157e+09 0
001 095 1 0 3.74637e+09 3.74664e+09 3.74743e+09 3.76468e+09 0
001 096 2 1 3.77682e+09 3.77708e+09 3.77834e+09 3.77851e+09 0
001 097 2 0 3.78362e+09 3.78388e+09 3.785e+09 3.79441e+09 0
000 098 2 0 3.80231e+09 3.80257e+09 3.80368e+09 3.80416e+09 1
000 099 2 0 3.8146e+09 3.81485e+09 3.81597e+09 3.81615e+09 1
000 100 2 0 3.82734e+09 3.8276e+09 3.82871e+09 3.83009e+09 1
000 101 1 0 3.83716e+09 3.83743e+09 3.83814e+09 3.84564e+09 0
001 102 1 1 3.84835e+09 3.84861e+09 3.84911e+09 3.92903e+09 0
000 103 1 0 3.93774e+09 3.938e+09 3.9385e+09 3.93889e+09 1
001 104 1 0 3.94406e+09 3.94432e+09 3.94526e+09 3.94635e+09 0
001 105 1 1 3.95994e+09 3.9602e+09 3.96113e+09 3.96124e+09 0
000 106 1 1 3.97132e+09 3.97158e+09 3.9725e+09 3.97308e+09 1
000 107 1 0 3.98294e+09 3.98319e+09 3.98411e+09 3.98793e+09 1
001 108 2 1 4.00109e+09 4.00135e+09 4.00244e+09 4.00274e+09 0
001 109 2 1 4.03016e+09 4.03043e+09 4.03095e+09 4.03147e+09 0
001 110 1 1 4.04008e+09 4.04036e+09 4.04116e+09 4.04361e+09 0
000 111 1 0 4.0564e+09 4.05665e+09 4.05746e+09 4.06307e+09 1
001 112 1 1 4.06562e+09 4.06589e+09 4.06727e+09 4.13804e+09 0
000 113 1 0 4.14648e+09 4.14673e+09 4.14812e+09 4.14877e+09 1
001 114 2 1 4.15199e+09 4.15225e+09 4.15321e+09 4.16775e+09 0
001 115 1 1 4.17228e+09 4.17255e+09 4.17308e+09 4.17309e+09 0
000 116 1 0 4.18096e+09 4.18121e+09 4.18174e+09 4.18277e+09 1
001 117 2 0 4.18775e+09 4.18801e+09 4.18934e+09 4.193e+09 0
000 118 2 1 4.20069e+09 4.20096e+09 4.20228e+09 4.20514e+09 1
001 119 1 0 4.21151e+09 4.21177e+09 4.21268e+09 4.22058e+09 0
001 120 1 0 4.22449e+09 4.22475e+09 4.22558e+09 4.24288e+09 0
001 121 1 0 4.24663e+09 4.24691e+09 4.24771e+09 4.25752e+09 0
001 122 1 0 4.26965e+09 4.26991e+09 4.27135e+09 4.27357e+09 0
001 123 2 0 4.27598e+09 4.27624e+09 4.27768e+09 1.47356e+07 0
000 124 2 1 2.30288e+07 2.3286e+07 2.47293e+07 2.49492e+07 1
001 125 1 0 3.21884e+07 3.24553e+07 3.36962e+07 4.59293e+07 0
001 126 1 1 6.20135e+07 6.22792e+07 6.31855e+07 7.0039e+07 0
000 127 1 0 7.85019e+07 7.87581e+07 7.96644e+07 8.28821e+07 1
001 128 2 0 9.12927e+07 9.15574e+07 9.29919e+07 9.76791e+07 0
000 129 2 0 1.05563e+08 1.05822e+08 1.07256e+08 1.18296e+08 1
000 130 2 0 1.25803e+08 1.26072e+08 1.27507e+08 1.82781e+08 1
000 131 2 0 1.90361e+08 1.90621e+08 1.92055e+08 2.15668e+08 1
000 132 2 1 2.23113e+08 2.2337e+08 2.24688e+08 2.37535e+08 0
001 133 2 0 2.39941e+08 2.40192e+08 2.40889e+08 3.46305e+08 0
000 134 2 0 3.53783e+08 3.54051e+08 3.54748e+08 3.58502e+08 1
000 135 2 0 3.65809e+08 3.66073e+08 3.66769e+08 3.67243e+08 1
000 136 2 1 3.74619e+08 3.7487e+08 3.75567e+08 3.88181e+08 1
001 137 2 1 3.94324e+08 3.94592e+08 3.95701e+08 3.97486e+08 0
001 138 1 0 4.05279e+08 4.0554e+08 4.06073e+08 4.09491e+08 0
001 139 2 1 4.11988e+08 4.12241e+08 4.12984e+08 4.13023e+08 0
001 140 2 0 4.26786e+08 4.27037e+08 4.28387e+08 4.29022e+08 0
000 141 2 0 4.36154e+08 4.36413e+08 4.37763e+08 4.44116e+08 1
000 142 2 0 4.53723e+08 4.53989e+08 4.55339e+08 4.59137e+08 1
000 143 2 0 4.6858e+08 4.68848e+08 4.70198e+08 4.7578e+08 1
000 144 2 1 4.86269e+08 4.86519e+08 4.8771e+08 4.8884e+08 0
001 145 2 0 4.93597e+08 4.9386e+08 4.94632e+08 5.35892e+08 0
000 146 2 0 5.43228e+08 5.43492e+08 5.44264e+08 5.70452e+08 1
000 147 2 0 5.77647e+08 5.77901e+08 5.78673e+08 6.33679e+08 1
000 148 2 0 6.40907e+08 6.41159e+08 6.41931e+08 7.13641e+08 1
000 149 1 0 7.21053e+08 7.21325e+08 7.22547e+08 7.67512e+08 0
001 150 1 0 7.69847e+08 7.70111e+08 7.70894e+08 7.84461e+08 0
001 151 2 0 7.90064e+08 7.90331e+08 7.91181e+08 7.99858e+08 0
000 152 2 0 8.07276e+08 8.0753e+08 8.08381e+08 8.08468e+08 1
000 153 2 0 8.15614e+08 8.15872e+08 8.16722e+08 8.18951e+08 1
000 154 2 0 8.36394e+08 8.36662e+08 8.37512e+08 8.37818e+08 1
000 155 1 0 8.54005e+08 8.54268e+08 8.55453e+08 9.23325e+08 0
001 156 2 1 9.25866e+08 9.26119e+08 9.26738e+08 1.32351e+09 0
001 157 2 0 1.3262e+09 1.32647e+09 1.32749e+09 1.40856e+09 0
000 158 2 0 1.41587e+09 1.41613e+09 1.41715e+09 1.51044e+09 1
000 159 2 0 1.5179e+09 1.51816e+09 1.51918e+09 1.6169e+09 1
000 160 2 1 1.62407e+09 1.62435e+09 1.62537e+09 1.69739e+09 1
001 161 1 0 1.702e+09 1.70225e+09 1.70335e+09 1.73751e+09 0
001 162 2 0 1.73985e+09 1.74011e+09 1.74125e+09 1.74995e+09 0
000 163 2 0 1.75731e+09 1.75756e+09 1.75871e+09 1.77275e+09 1
000 164 2 0 1.78043e+09 1.78069e+09 1.78184e+09 1.80009e+09 1
000 165 2 1 1.80738e+09 1.80765e+09 1.80879e+09 1.85137e+09 1
001 166 1 0 1.85529e+09 1.85555e+09 1.85676e+09 1.9644e+09 0
001 167 1 1 1.96695e+09 1.96721e+09 1.96842e+09 2.00921e+09 0
000 168 1 0 2.01661e+09 2.01688e+09 2.01809e+09 2.01853e+09 1
001 169 1 0 2.02236e+09 2.02263e+09 2.02334e+09 2.03141e+09 0
001 170 1 0 2.03889e+09 2.03915e+09 2.04025e+09 2.09373e+09 0
001 171 1 0 2.09628e+09 2.09654e+09 2.09714e+09 2.18158e+09 0
001 172 1 0 2.1843e+09 2.18457e+09 2.18524e+09 2.28344e+09 0
001 173 1 0 2.29459e+09 2.29486e+09 2.29575e+09 2.30397e+09 0
001 174 1 0 2.30809e+09 2.30836e+09 2.30933e+09 2.32797e+09 0
001 175 2 1 2.33173e+09 2.332e+09 2.3333e+09 2.35363e+09 0
001 176 1 1 2.37142e+09 2.37167e+09 2.37282e+09 2.37323e+09 0
000 177 1 0 2.38084e+09 2.3811e+09 2.38225e+09 2.38233e+09 1
001 178 2 1 2.39518e+09 2.39544e+09 2.39684e+09 2.397e+09 0
001 179 1 1 2.41608e+09 2.41635e+09 2.41726e+09 2.41858e+09 0
000 180 1 0 2.43098e+09 2.43123e+09 2.43214e+09 2.43419e+09 1
001 181 1 1 2.45694e+09 2.45719e+09 2.4584e+09 2.46079e+09 0
000 182 1 0 2.46863e+09 2.46889e+09 2.47009e+09 2.51427e+09 1
001 183 1 0 2.51688e+09 2.51713e+09 2.51783e+09 2.54567e+09 0
001 184 1 1 2.54804e+09 2.54829e+09 2.54945e+09 2.54978e+09 0
000 185 1 0 2.55708e+09 2.55733e+09 2.55849e+09 2.57815e+09 1
001 186 1 1 2.5817e+09 2.58196e+09 2.58287e+09 2.58783e+09 0
000 187 1 0 2.60847e+09 2.60872e+09 2.60962e+09 2.61668e+09 1
001 188 2 0 2.6246e+09 2.62486e+09 2.6262e+09 2.6616e+09 0
000 189 2 1 2.66878e+09 2.66905e+09 2.67038e+09 2.67363e+09 1
001 190 2 0 2.69175e+09 2.69201e+09 2.69304e+09 2.69733e+09 0
000 191 2 0 2.70453e+09 2.7048e+09 2.70582e+09 2.70967e+09 1
000 192 2 0 2.71718e+09 2.71743e+09 2.71846e+09 2.74157e+09 1
000 193 2 0 2.75002e+09 2.75028e+09 2.7513e+09 2.76354e+09 1
000 194 2 0 2.77103e+09 2.77128e+09 2.77199e+09 2.77249e+09 0
000 195 2 0 2.78158e+09 2.78184e+09 2.78324e+09 2.78358e+09 0
000 196 2 0 2.79514e+09 2.7954e+09 2.79591e+09 2.7972e+09 0
000 197 1 0 2.80588e+09 2.80613e+09 2.80698e+09 2.81181e+09 0
001 198 2 0 2.81889e+09 2.81917e+09 2.82043e+09 2.82054e+09 0
000 199 2 0 2.82886e+09 2.82913e+09 2.83039e+09 2.83056e+09 1
000 200 2 0 2.83854e+09 2.83879e+09 2.84005e+09 2.86726e+09 1
000 201 2 1 2.87456e+09 2.87483e+09 2.87609e+09 2.87785e+09 1
001 202 2 0 2.88541e+09 2.88567e+09 2.88716e+09 3.08497e+09 0
000 203 2 0 3.09405e+09 3.09431e+09 3.0958e+09 3.14485e+09 1
000 204 2 0 3.15272e+09 3.15298e+09 3.15447e+09 3.18589e+09 1
000 205 2 1 3.19314e+09 3.1934e+09 3.19488e+09 3.26192e+09 1
001 206 2 1 3.27914e+09 3.2794e+09 3.28043e+09 3.28116e+09 0
001 207 1 0 3.29148e+09 3.29174e+09 3.29304e+09 3.29398e+09 0
001 208 1 0 3.30295e+09 3.30321e+09 3.30442e+09 3.30562e+09 0
001 209 1 0 3.31206e+09 3.31232e+09 3.31336e+09 3.32013e+09 0
001 210 2 0 3.32794e+09 3.32821e+09 3.3289e+09 3.33311e+09 0
000 211 2 1 3.34022e+09 3.34047e+09 3.34116e+09 3.34417e+09 1
001 212 1 1 3.34771e+09 3.34796e+09 3.34897e+09 3.35109e+09 0
000 213 1 1 3.36083e+09 3.36109e+09 3.36209e+09 3.46431e+09 1
000 214 1 0 3.47158e+09 3.47185e+09 3.47285e+09 3.50668e+09 1
001 215 2 0 3.51025e+09 3.51051e+09 3.51156e+09 3.55583e+09 0
000 216 2 0 3.56309e+09 3.56334e+09 3.56439e+09 3.56634e+09 1
000 217 2 0 3.57486e+09 3.57512e+09 3.57616e+09 3.57876e+09 1
000 218 2 0 3.60185e+09 3.60211e+09 3.60316e+09 3.60922e+09 1
000 219 1 0 3.61814e+09 3.6184e+09 3.61923e+09 3.63385e+09 0
001 220 2 1 3.6363e+09 3.63656e+09 3.63789e+09 3.95824e+09 0
001 221 2 0 3.96283e+09 3.96312e+09 3.96413e+09 3.97834e+09 0
000 222 2 1 3.98626e+09 3.98651e+09 3.98752e+09 3.99373e+09 1
001 223 1 0 3.99891e+09 3.99916e+09 4.00037e+09 4.01531e+09 0
001 224 2 0 4.01792e+09 4.01819e+09 4.01895e+09 4.0256e+09 0
000 225 2 0 4.03511e+09 4.03536e+09 4.03613e+09 4.03964e+09 1
000 226 2 0 4.04713e+09 4.04738e+09 4.04815e+09 4.05601e+09 1
000 227 2 1 4.06344e+09 4.0637e+09 4.06447e+09 4.06511e+09 1
001 228 1 0 4.0736e+09 4.07386e+09 4.07489e+09 4.08268e+09 0
001 229 1 0 4.09046e+09 4.09072e+09 4.09169e+09 4.09764e+09 0
001 230 2 0 4.10174e+09 4.102e+09 4.10332e+09 4.12236e+09 0
000 231 2 0 4.13022e+09 4.13048e+09 4.1318e+09 4.13494e+09 1
000 232 2 0 4.14209e+09 4.14235e+09 4.14367e+09 4.14939e+09 1
000 233 2 0 4.15653e+09 4.15679e+09 4.15811e+09 4.17251e+09 1
000 234 2 0 4.18021e+09 4.18047e+09 4.18132e+09 4.18432e+09 0
000 235 1 0 4.19211e+09 4.19237e+09 4.19326e+09 4.19715e+09 0
001 236 2 1 4.20245e+09 4.2027e+09 4.20382e+09 4.2128e+09 0
001 237 2 0 4.21586e+09 4.21612e+09 4.21675e+09 4.2258e+09 0
000 238 2 0 4.23496e+09 4.23522e+09 4.23586e+09 4.24321e+09 1
000 239 2 0 4.25046e+09 4.25071e+09 4.25134e+09 4.29177e+09 1
000 240 2 0 4.11957e+06 4.37936e+06 5.01256e+06 1.2886e+07 1
000 241 2 0 2.01431e+07 2.04017e+07 2.15679e+07 4.97809e+07 0
000 242 1 0 6.03873e+07 6.06469e+07 6.14932e+07 6.77162e+07 0
001 243 1 0 7.28494e+07 7.31e+07 7.44098e+07 7.86146e+07 0
001 244 1 1 8.34949e+07 8.37574e+07 8.45535e+07 9.28335e+07 0
000 245 1 0 1.00965e+08 1.0128e+08 1.02077e+08 1.11684e+08 1
001 246 2 0 1.19481e+08 1.19744e+08 1.20762e+08 1.26134e+08 0
000 247 2 0 1.40956e+08 1.4122e+08 1.42238e+08 1.76999e+08 1
000 248 2 0 1.84161e+08 1.84431e+08 1.85449e+08 2.12149e+08 1
000 249 2 1 2.24334e+08 2.24611e+08 2.2563e+08 2.31934e+08 1
001 250 2 0 2.39821e+08 2.40084e+08 2.41501e+08 2.44007e+08 0
000 251 2 1 2.51743e+08 2.52013e+08 2.5343e+08 2.57457e+08 1
001 252 1 1 2.62558e+08 2.62833e+08 2.64156e+08 2.70774e+08 0
000 253 1 0 2.809e+08 2.81172e+08 2.82495e+08 2.91923e+08 1
001 254 2 0 2.9475e+08 2.95029e+08 2.95997e+08 3.80459e+08 0
000 255 2 1 3.892e+08 3.8946e+08 3.90428e+08 3.91168e+08 1
001 256 2 0 3.96973e+08 3.97237e+08 3.98363e+08 3.99002e+08 0
000 257 2 0 4.07704e+08 4.07973e+08 4.09099e+08 4.25181e+08 1
000 258 2 1 4.32461e+08 4.32723e+08 4.33849e+08 4.4334e+08 1
001 259 1 0 4.48743e+08 4.49024e+08 4.5047e+08 4.78804e+08 0
001 260 1 0 4.8781e+08 4.8807e+08 4.89444e+08 4.99078e+08 0
001 261 1 0 5.08481e+08 5.08751e+08 5.09327e+08 5.46648e+08 0
001 262 2 0 5.5364e+08 5.53911e+08 5.55117e+08 5.61684e+08 0
000 263 2 0 5.68743e+08 5.69018e+08 5.70224e+08 5.75861e+08 1
000 264 2 0 5.85856e+08 5.86124e+08 5.8733e+08 6.28549e+08 1
000 265 2 0 6.38285e+08 6.38556e+08 6.39762e+08 6.46037e+08 1
000 266 1 0 6.57611e+08 6.57879e+08 6.58961e+08 6.59331e+08 0
001 267 1 1 6.67966e+08 6.68226e+08 6.69654e+08 6.77069e+08 0
000 268 1 0 6.84446e+08 6.84712e+08 6.8614e+08 6.86375e+08 1
001 269 1 0 6.90066e+08 6.90349e+08 6.91726e+08 6.93025e+08 0
001 270 1 0 7.00865e+08 7.01132e+08 7.02256e+08 7.09241e+08 0
001 271 2 0 7.16703e+08 7.16986e+08 7.18473e+08 7.28909e+08 0
000 272 2 0 7.35972e+08 7.36252e+08 7.37739e+08 7.42755e+08 1
000 273 2 1 7.50011e+08 7.50269e+08 7.51756e+08 7.59323e+08 1
001 274 2 1 7.64368e+08 7.64639e+08 7.66028e+08 7.70042e+08 0
001 275 2 0 7.72698e+08 7.72963e+08 7.73591e+08 7.73681e+08 0
000 276 2 0 7.80829e+08 7.81088e+08 7.81716e+08 7.86686e+08 1
000 277 2 0 7.95805e+08 7.9607e+08 7.96698e+08 8.02444e+08 1
000 278 2 0 8.09697e+08 8.09965e+08 8.10592e+08 8.1187e+08 1
000 279 1 0 8.19012e+08 8.19281e+08 8.20512e+08 8.26432e+08 0
001 280 1 0 8.34805e+08 8.35068e+08 8.36243e+08 8.43412e+08 0
001 281 1 0 8.47568e+08 8.47837e+08 8.49298e+08 8.50672e+08 0
001 282 2 0 8.57657e+08 8.57929e+08 8.59186e+08 8.78451e+08 0
000 283 2 1 8.86932e+08 8.87199e+08 8.88457e+08 8.88604e+08 1
001 284 2 0 8.92577e+08 8.92846e+08 8.93806e+08 8.94436e+08 0
000 285 2 0 9.0148e+08 9.01748e+08 9.02707e+08 9.23411e+08 1
000 286 2 1 9.30844e+08 9.31117e+08 9.32076e+08 9.32189e+08 1
001 287 1 0 9.39e+08 9.39255e+08 9.39897e+08 9.56786e+08 0
001 288 2 0 9.59426e+08 9.5969e+08 9.60653e+08 9.6068e+08 0
000 289 2 0 9.6812e+08 9.68378e+08 9.69342e+08 9.93408e+08 1
000 290 2 1 1.00065e+09 1.00091e+09 1.00188e+09 1.11366e+09 1
001 291 1 1 1.12418e+09 1.12449e+09 1.12522e+09 1.12618e+09 0
000 292 1 0 1.13362e+09 1.13389e+09 1.13462e+09 1.13894e+09 1
001 293 1 1 1.14315e+09 1.14342e+09 1.14435e+09 1.14471e+09 0
000 294 1 1 1.15303e+09 1.15328e+09 1.15421e+09 1.15786e+09 1
000 295 1 0 1.17165e+09 1.17191e+09 1.17284e+09 1.17422e+09 1
001 296 2 0 1.1771e+09 1.17736e+09 1.17834e+09 1.18288e+09 0
000 297 2 1 1.1911e+09 1.19136e+09 1.19234e+09 1.19252e+09 1
001 298 1 1 1.19984e+09 1.2001e+09 1.20101e+09 1.20556e+09 0
000 299 1 0 1.21299e+09 1.21325e+09 1.21416e+09 1.21991e+09 1
001 300 1 0 1.22284e+09 1.2231e+09 1.2243e+09 1.2381e+09 0
001 301 1 1 1.24187e+09 1.24213e+09 1.24264e+09 1.24265e+09 0
000 302 1 1 1.25042e+09 1.25068e+09 1.25119e+09 1.25314e+09 1
000 303 1 1 1.26118e+09 1.26145e+09 1.26195e+09 1.26419e+09 1
000 304 1 1 1.27168e+09 1.27195e+09 1.27246e+09 1.27848e+09 1
000 305 2 0 1.28686e+09 1.28712e+09 1.28807e+09 1.29891e+09 0
000 306 2 0 1.30755e+09 1.30782e+09 1.30906e+09 1.32688e+09 0
000 307 2 1 1.33809e+09 1.33836e+09 1.33924e+09 1.34134e+09 0
001 308 2 1 1.34575e+09 1.34602e+09 1.34665e+09 1.34667e+09 0
001 309 1 0 1.35625e+09 1.35651e+09 1.35776e+09 1.36808e+09 0
001 310 1 1 1.37331e+09 1.37357e+09 1.37411e+09 1.37922e+09 0
000 311 1 1 1.3866e+09 1.38686e+09 1.3874e+09 1.39469e+09 1
000 312 1 0 1.40187e+09 1.40214e+09 1.40268e+09 1.41575e+09 1
001 313 2 0 1.42018e+09 1.42044e+09 1.42169e+09 1.43274e+09 0
000 314 2 0 1.43987e+09 1.44013e+09 1.44138e+09 1.44943e+09 1
000 315 2 1 1.45667e+09 1.45693e+09 1.45818e+09 1.45834e+09 1
001 316 2 0 1.46335e+09 1.46362e+09 1.46484e+09 1.46858e+09 0
000 317 2 0 1.47681e+09 1.47708e+09 1.4783e+09 1.48555e+09 1
000 318 2 0 1.49408e+09 1.49435e+09 1.49557e+09 1.50312e+09 1
000 319 2 0 1.51055e+09 1.51081e+09 1.51203e+09 1.52124e+09 1
000 320 2 0 1.52843e+09 1.52869e+09 1.52997e+09 1.52998e+09 0
000 321 1 0 1.53737e+09 1.53764e+09 1.53864e+09 1.5421e+09 0
001 322 1 0 1.54542e+09 1.54569e+09 1.54682e+09 1.56242e+09 0
001 323 2 0 1.56548e+09 1.56575e+09 1.56634e+09 1.57319e+09 0
000 324 2 1 1.5829e+09 1.58316e+09 1.58375e+09 1.58689e+09 1
001 325 2 1 1.58953e+09 1.5898e+09 1.59107e+09 1.60361e+09 0
001 326 1 1 1.60623e+09 1.60651e+09 1.60748e+09 1.6138e+09 0
000 327 1 0 1.62097e+09 1.62123e+09 1.62221e+09 1.63487e+09 1
001 328 1 1 1.63752e+09 1.63778e+09 1.63867e+09 1.65433e+09 0
000 329 1 0 1.6614e+09 1.66167e+09 1.66256e+09 1.6629e+09 1
001 330 1 0 1.6717e+09 1.67197e+09 1.67287e+09 1.67632e+09 0
001 331 1 0 1.67895e+09 1.67922e+09 1.67975e+09 1.68551e+09 0
001 332 1 0 1.6939e+09 1.69416e+09 1.69532e+09 1.69849e+09 0
001 333 1 1 1.7018e+09 1.70206e+09 1.7032e+09 1.7051e+09 0
000 334 1 0 1.71262e+09 1.7129e+09 1.71404e+09 1.71557e+09 1
001 335 2 0 1.72414e+09 1.72441e+09 1.72525e+09 1.73006e+09 0
000 336 2 0 1.74312e+09 1.74339e+09 1.74423e+09 1.74883e+09 1
000 337 2 1 1.75612e+09 1.75639e+09 1.75723e+09 1.7691e+09 1
001 338 1 1 1.77522e+09 1.77549e+09 1.77639e+09 1.77942e+09 0
000 339 1 1 1.79111e+09 1.79136e+09 1.79227e+09 1.79435e+09 1
000 340 1 0 1.80653e+09 1.80679e+09 1.80769e+09 1.81359e+09 1
001 341 2 0 1.81643e+09 1.81669e+09 1.81754e+09 1.82637e+09 0
000 342 2 1 1.83364e+09 1.8339e+09 1.83475e+09 1.83476e+09 1
001 343 1 1 1.84072e+09 1.84099e+09 1.84186e+09 1.84193e+09 0
000 344 1 1 1.84902e+09 1.84929e+09 1.85016e+09 1.85802e+09 1
000 345 1 0 1.86518e+09 1.86546e+09 1.86633e+09 1.86633e+09 1
001 346 2 1 1.87076e+09 1.87102e+09 1.87173e+09 1.88783e+09 0
001 347 1 1 1.89189e+09 1.89216e+09 1.8936e+09 1.90206e+09 0
000 348 1 1 1.90952e+09 1.90979e+09 1.91123e+09 1.91411e+09 1
000 349 1 0 1.92525e+09 1.92552e+09 1.92696e+09 1.93277e+09 1
001 350 2 0 1.93611e+09 1.93638e+09 1.93751e+09 1.95465e+09 0
000 351 2 0 1.96254e+09 1.96282e+09 1.96395e+09 1.96839e+09 1
000 352 2 0 1.98034e+09 1.9806e+09 1.98173e+09 1.98965e+09 1
000 353 2 0 1.9968e+09 1.99706e+09 1.99819e+09 1.99965e+09 1
000 354 1 0 2.0072e+09 2.00748e+09 2.00881e+09 2.01111e+09 0
001 355 2 0 2.01546e+09 2.01573e+09 2.01637e+09 2.01656e+09 0
000 356 2 0 2.0275e+09 2.02776e+09 2.02841e+09 2.03253e+09 1
000 357 2 0 2.0437e+09 2.04396e+09 2.0446e+09 2.05128e+09 1
000 358 2 1 2.05842e+09 2.0587e+09 2.05934e+09 2.07559e+09 1
001 359 1 0 2.08135e+09 2.08162e+09 2.08233e+09 2.08614e+09 0
001 360 2 0 2.08849e+09 2.08875e+09 2.08927e+09 2.08928e+09 0
000 361 2 0 2.0964e+09 2.09667e+09 2.09719e+09 2.10615e+09 1
000 362 2 0 2.11753e+09 2.1178e+09 2.11832e+09 2.12783e+09 1
000 363 2 0 2.14032e+09 2.14059e+09 2.14111e+09 2.14694e+09 1
000 364 2 1 2.15415e+09 2.15442e+09 2.15514e+09 2.16278e+09 0
001 365 2 1 2.16644e+09 2.16671e+09 2.16777e+09 2.18628e+09 0
001 366 2 0 2.1912e+09 2.19147e+09 2.1929e+09 2.19955e+09 0
000 367 2 0 2.20684e+09 2.20711e+09 2.20854e+09 2.21419e+09 1
000 368 2 1 2.22224e+09 2.2225e+09 2.22393e+09 2.27263e+09 1
001 369 2 1 2.27539e+09 2.27565e+09 2.27709e+09 2.28414e+09 0
001 370 1 0 2.28837e+09 2.28864e+09 2.29006e+09 2.29726e+09 0
001 371 2 0 2.30378e+09 2.30405e+09 2.30483e+09 2.30811e+09 0
000 372 2 0 2.31606e+09 2.31634e+09 2.31711e+09 2.32107e+09 1
000 373 2 1 2.32835e+09 2.32862e+09 2.32939e+09 2.35383e+09 1
001 374 2 0 2.37163e+09 2.37189e+09 2.37291e+09 2.3761e+09 0
000 375 2 0 2.38479e+09 2.38505e+09 2.38608e+09 2.39304e+09 1
000 376 2 1 2.40118e+09 2.40144e+09 2.40246e+09 2.40252e+09 1
001 377 1 0 2.40889e+09 2.40915e+09 2.40988e+09 2.40995e+09 0
001 378 1 0 2.41466e+09 2.41492e+09 2.41634e+09 2.42108e+09 0
001 379 2 0 2.42846e+09 2.42873e+09 2.42983e+09 2.4333e+09 0
000 380 2 0 2.44049e+09 2.44075e+09 2.44186e+09 2.44471e+09 1
000 381 2 0 2.45522e+09 2.45548e+09 2.45658e+09 2.45659e+09 1
000 382 2 0 2.46548e+09 2.46576e+09 2.46687e+09 2.47196e+09 1
000 383 1 0 2.48044e+09 2.48071e+09 2.48193e+09 2.48533e+09 0
001 384 2 0 2.49265e+09 2.49292e+09 2.49376e+09 2.50799e+09 0
000 385 2 1 2.51548e+09 2.51575e+09 2.5166e+09 2.52056e+09 1
001 386 2 0 2.52481e+09 2.52508e+09 2.52574e+09 2.52938e+09 0
000 387 2 0 2.54126e+09 2.54152e+09 2.54217e+09 2.5476e+09 1
000 388 2 0 2.55485e+09 2.55513e+09 2.55578e+09 2.56479e+09 1
000 389 2 1 2.57222e+09 2.5725e+09 2.57315e+09 2.57962e+09 1
001 390 2 1 2.58199e+09 2.58224e+09 2.58295e+09 2.61665e+09 0
001 391 2 0 2.62162e+09 2.62188e+09 2.62253e+09 2.63466e+09 0
000 392 2 0 2.6433e+09 2.64358e+09 2.64423e+09 2.65765e+09 1
000 393 2 0 2.6647e+09 2.66497e+09 2.66562e+09 2.67008e+09 1
000 394 2 1 2.67783e+09 2.67809e+09 2.67875e+09 2.68845e+09 1
001 395 2 1 2.69246e+09 2.69273e+09 2.69323e+09 2.71575e+09 0
001 396 1 0 2.71853e+09 2.7188e+09 2.71975e+09 2.71978e+09 0
001 397 2 0 2.7276e+09 2.72786e+09 2.72906e+09 2.73154e+09 0
000 398 2 0 2.73943e+09 2.73969e+09 2.74089e+09 2.74773e+09 1
000 399 2 0 2.7623e+09 2.76257e+09 2.76377e+09 2.77465e+09 1
000 400 2 0 2.78204e+09 2.7823e+09 2.7835e+09 2.7943e+09 1
000 401 1 0 2.80244e+09 2.80271e+09 2.80414e+09 2.81098e+09 0
001 402 2 0 2.81427e+09 2.81454e+09 2.81603e+09 2.82062e+09 0
000 403 2 0 2.8279e+09 2.82817e+09 2.82966e+09 2.83552e+09 1
000 404 2 0 2.84285e+09 2.84312e+09 2.8446e+09 2.8459e+09 1
000 405 2 0 2.85531e+09 2.85558e+09 2.85707e+09 2.86211e+09 1
000 406 1 0 2.87028e+09 2.87055e+09 2.87148e+09 2.88357e+09 0
001 407 1 0 2.88761e+09 2.88788e+09 2.88923e+09 2.892e+09 0
001 408 1 0 2.89603e+09 2.8963e+09 2.89696e+09 2.90023e+09 0
001 409 1 0 2.9054e+09 2.90567e+09 2.90659e+09 2.91389e+09 0
001 410 1 0 2.91647e+09 2.91674e+09 2.91782e+09 2.91784e+09 0
001 411 2 0 2.9222e+09 2.92247e+09 2.92379e+09 2.92435e+09 0
000 412 2 0 2.93486e+09 2.93513e+09 2.93644e+09 2.9376e+09 1
000 413 2 0 2.94583e+09 2.9461e+09 2.94741e+09 2.95077e+09 1
000 414 2 0 2.95895e+09 2.95921e+09 2.96052e+09 2.96612e+09 1
000 415 1 0 2.97974e+09 2.98001e+09 2.9815e+09 2.98312e+09 0
001 416 2 0 2.98798e+09 2.98824e+09 2.98904e+09 2.98914e+09 0
000 417 2 0 2.99642e+09 2.99669e+09 2.99749e+09 3.00232e+09 1
000 418 2 0 3.01057e+09 3.01084e+09 3.01165e+09 3.02659e+09 1
000 419 2 0 3.03395e+09 3.03423e+09 3.03503e+09 3.04435e+09 1
000 420 2 1 3.05171e+09 3.05198e+09 3.05306e+09 3.05576e+09 0
001 421 2 1 3.06392e+09 3.06419e+09 3.0654e+09 3.07725e+09 0
001 422 1 0 3.08265e+09 3.08292e+09 3.0836e+09 3.08361e+09 0
001 423 1 0 3.08933e+09 3.08959e+09 3.0905e+09 3.10739e+09 0
001 424 2 0 3.11047e+09 3.11073e+09 3.11219e+09 3.12741e+09 0
000 425 2 0 3.13481e+09 3.13508e+09 3.13653e+09 3.14082e+09 1
000 426 2 0 3.14818e+09 3.14845e+09 3.14991e+09 3.15081e+09 1
000 427 2 0 3.15916e+09 3.15943e+09 3.16088e+09 3.16387e+09 1
000 428 2 0 3.1712e+09 3.17146e+09 3.17248e+09 3.17277e+09 0
000 429 2 0 3.19103e+09 3.1913e+09 3.19228e+09 3.19634e+09 0
000 430 1 0 3.20341e+09 3.20368e+09 3.20472e+09 3.21056e+09 0
001 431 1 0 3.21434e+09 3.21461e+09 3.21558e+09 3.21974e+09 0
001 432 2 0 3.22685e+09 3.22712e+09 3.22861e+09 3.2493e+09 0
000 433 2 0 3.25655e+09 3.25682e+09 3.25831e+09 3.25846e+09 1
000 434 2 0 3.27074e+09 3.271e+09 3.27249e+09 3.27461e+09 1
000 435 2 0 3.28928e+09 3.28956e+09 3.29105e+09 3.29543e+09 1
000 436 1 0 3.30327e+09 3.30354e+09 3.30473e+09 3.32264e+09 0
001 437 1 0 3.32992e+09 3.33018e+09 3.33138e+09 3.33669e+09 0
001 438 2 0 3.34784e+09 3.34811e+09 3.34883e+09 3.35222e+09 0
000 439 2 0 3.36591e+09 3.36618e+09 3.3669e+09 3.36692e+09 1
000 440 2 1 3.37546e+09 3.37572e+09 3.37644e+09 3.38309e+09 1
001 441 2 1 3.38717e+09 3.38744e+09 3.38866e+09 3.41367e+09 0
001 442 2 0 3.42079e+09 3.42106e+09 3.42163e+09 3.42716e+09 0
000 443 2 0 3.43451e+09 3.43478e+09 3.43536e+09 3.45585e+09 1
000 444 2 1 3.463e+09 3.46326e+09 3.46384e+09 3.46621e+09 1
001 445 1 0 3.46889e+09 3.46917e+09 3.4704e+09 3.47648e+09 0
001 446 1 0 3.48704e+09 3.48731e+09 3.48821e+09 3.493e+09 0
001 447 1 0 3.49588e+09 3.49614e+09 3.49731e+09 3.50038e+09 0
001 448 1 0 3.50632e+09 3.50659e+09 3.50785e+09 3.51088e+09 0
001 449 2 0 3.51729e+09 3.51756e+09 3.5183e+09 3.51832e+09 0
000 450 2 0 3.52538e+09 3.52564e+09 3.52639e+09 3.53019e+09 1
000 451 2 1 3.5421e+09 3.54237e+09 3.54312e+09 3.55827e+09 1
001 452 2 0 3.56317e+09 3.56344e+09 3.56414e+09 3.56907e+09 0
000 453 2 0 3.58105e+09 3.58131e+09 3.58201e+09 3.58732e+09 1
000 454 2 1 3.60244e+09 3.60271e+09 3.60341e+09 3.60542e+09 1
001 455 1 0 3.61215e+09 3.61241e+09 3.61332e+09 3.61848e+09 0
001 456 2 0 3.62651e+09 3.62679e+09 3.6282e+09 3.63179e+09 0
000 457 2 0 3.64057e+09 3.64085e+09 3.64227e+09 3.64645e+09 1
000 458 2 1 3.65771e+09 3.65798e+09 3.6594e+09 3.66789e+09 1
001 459 2 0 3.67291e+09 3.67317e+09 3.67425e+09 3.67426e+09 0
000 460 2 0 3.68171e+09 3.68198e+09 3.68306e+09 3.68518e+09 1
000 461 2 0 3.69268e+09 3.69296e+09 3.69404e+09 3.69412e+09 1
000 462 2 1 3.70639e+09 3.70665e+09 3.70772e+09 3.71817e+09 1
001 463 2 1 3.72094e+09 3.72121e+09 3.72172e+09 3.74502e+09 0
001 464 1 0 3.74807e+09 3.74835e+09 3.74926e+09 3.74959e+09 0
001 465 2 0 3.75379e+09 3.75405e+09 3.75524e+09 3.76537e+09 0
000 466 2 0 3.77254e+09 3.77281e+09 3.774e+09 3.77652e+09 1
000 467 2 0 3.78586e+09 3.78612e+09 3.78732e+09 3.79099e+09 1
000 468 2 0 3.80026e+09 3.80052e+09 3.80172e+09 3.81933e+09 1
000 469 1 0 3.82718e+09 3.82745e+09 3.82894e+09 3.82973e+09 0
001 470 2 0 3.83382e+09 3.83409e+09 3.83539e+09 3.83671e+09 0
000 471 2 0 3.84828e+09 3.84854e+09 3.84984e+09 3.85256e+09 1
000 472 2 1 3.86138e+09 3.86164e+09 3.86294e+09 3.86372e+09 1
001 473 1 1 3.87604e+09 3.87632e+09 3.87702e+09 3.87723e+09 0
000 474 1 0 3.88462e+09 3.8849e+09 3.88561e+09 3.88965e+09 1
001 475 2 0 3.89534e+09 3.8956e+09 3.89671e+09 3.89685e+09 0
000 476 2 1 3.90618e+09 3.90645e+09 3.90756e+09 3.9142e+09 1
001 477 1 1 3.91763e+09 3.9179e+09 3.91844e+09 3.93254e+09 0
000 478 1 1 3.94476e+09 3.94503e+09 3.94556e+09 3.94879e+09 1
000 479 1 0 3.95821e+09 3.95848e+09 3.95901e+09 3.96342e+09 1
001 480 2 0 3.96791e+09 3.96817e+09 3.96926e+09 3.97265e+09 0
000 481 2 1 3.97995e+09 3.98021e+09 3.9813e+09 3.98427e+09 1
001 482 1 1 3.98692e+09 3.98719e+09 3.98827e+09 3.9942e+09 0
000 483 1 1 4.00155e+09 4.00183e+09 4.00291e+09 4.00769e+09 1
000 484 1 0 4.03109e+09 4.03135e+09 4.03243e+09 4.05467e+09 1
001 485 1 0 4.05839e+09 4.05867e+09 4.05979e+09 4.06311e+09 0
001 486 2 1 4.06649e+09 4.06677e+09 4.06749e+09 4.06749e+09 0
001 487 1 0 4.07329e+09 4.07355e+09 4.07442e+09 4.07754e+09 0
001 488 1 0 4.08356e+09 4.08383e+09 4.08515e+09 4.08842e+09 0
001 489 2 0 4.09989e+09 4.10015e+09 4.10122e+09 4.24247e+09 0
000 490 2 0 4.25593e+09 4.2562e+09 4.25726e+09 4.26003e+09 1
000 491 2 0 4.27442e+09 4.27469e+09 4.27575e+09 4.28915e+09 1
000 492 2 0 2.36443e+06 2.63214e+06 3.69681e+06 6.25054e+06 1
000 493 2 0 1.35414e+07 1.38178e+07 1.46908e+07 1.96587e+07 0
000 494 1 0 2.68554e+07 2.71373e+07 2.8313e+07 3.72808e+07 0
001 495 2 1 4.59541e+07 4.62211e+07 4.7136e+07 4.82808e+07 0
001 496 1 0 5.31538e+07 5.34372e+07 5.46029e+07 5.49832e+07 0
001 497 2 0 6.65242e+07 6.67815e+07 6.73428e+07 6.87654e+07 0
000 498 2 0 7.62481e+07 7.65239e+07 7.70852e+07 8.89865e+07 1
000 499 2 1 9.83122e+07 9.85945e+07 9.91558e+07 1.06393e+08 1
001 500 1 0 1.12222e+08 1.12493e+08 1.13756e+08 1.28006e+08 0
001 501 1 0 1.35775e+08 1.36051e+08 1.36863e+08 1.404e+08 0
001 502 2 0 1.42905e+08 1.43172e+08 1.43739e+08 1.49908e+08 0
000 503 2 0 1.58241e+08 1.58515e+08 1.59082e+08 1.66057e+08 1
000 504 2 1 1.73276e+08 1.7354e+08 1.74107e+08 1.77306e+08 1
001 505 1 1 1.81674e+08 1.8194e+08 1.83413e+08 1.86572e+08 0
000 506 1 1 1.94696e+08 1.94957e+08 1.9643e+08 1.99927e+08 1
000 507 1 0 2.07145e+08 2.0742e+08 2.08893e+08 2.10358e+08 1
001 508 2 0 2.13159e+08 2.13432e+08 2.14784e+08 2.19481e+08 0
000 509 2 0 2.26652e+08 2.26913e+08 2.28264e+08 2.65513e+08 1
000 510 2 1 2.72807e+08 2.73076e+08 2.74427e+08 2.90956e+08 1
001 511 1 1 2.95259e+08 2.95516e+08 2.96564e+08 3.19985e+08 0
000 512 1 0 3.44715e+08 3.44972e+08 3.4602e+08 3.54056e+08 1
001 513 2 0 3.64278e+08 3.64544e+08 3.65877e+08 3.78525e+08 0
000 514 2 0 3.85923e+08 3.86196e+08 3.87529e+08 3.92471e+08 1
000 515 2 0 4.04087e+08 4.04355e+08 4.05689e+08 4.09494e+08 1
000 516 2 0 4.22457e+08 4.2273e+08 4.24063e+08 4.25918e+08 1
000 517 2 0 4.34533e+08 4.34794e+08 4.3532e+08 4.4215e+08 0
000 518 1 0 4.50584e+08 4.50843e+08 4.51391e+08 4.72691e+08 0
001 519 2 0 4.80632e+08 4.80906e+08 4.82061e+08 4.85001e+08 0
000 520 2 0 4.95704e+08 4.95976e+08 4.97131e+08 5.02466e+08 1
000 521 2 0 5.10046e+08 5.10316e+08 5.11471e+08 5.13805e+08 1
000 522 2 0 5.20875e+08 5.21147e+08 5.22302e+08 5.31694e+08 1
000 523 2 0 5.39749e+08 5.40024e+08 5.41502e+08 5.46387e+08 0
000 524 2 0 5.53478e+08 5.53761e+08 5.54893e+08 5.62499e+08 0
000 525 2 0 5.69586e+08 5.69858e+08 5.71181e+08 5.71277e+08 0
000 526 1 0 5.82674e+08 5.82933e+08 5.83735e+08 5.85845e+08 0
001 527 2 1 5.92716e+08 5.92991e+08 5.94389e+08 5.99154e+08 0
001 528 1 0 6.02373e+08 6.02657e+08 6.03183e+08 6.04321e+08 0
001 529 2 0 6.07921e+08 6.08189e+08 6.09494e+08 6.11604e+08 0
000 530 2 0 6.26897e+08 6.27156e+08 6.28461e+08 6.30781e+08 1
000 531 2 1 6.37944e+08 6.38208e+08 6.39513e+08 6.43438e+08 1
001 532 1 0 6.51418e+08 6.5169e+08 6.52616e+08 6.95257e+08 0
001 533 1 0 6.97744e+08 6.9801e+08 6.98647e+08 7.39451e+08 0
001 534 1 1 7.43126e+08 7.43391e+08 7.44609e+08 7.61403e+08 0
000 535 1 1 7.72561e+08 7.7283e+08 7.74048e+08 7.74052e+08 1
000 536 1 1 7.81106e+08 7.81377e+08 7.82596e+08 7.8264e+08 1
000 537 1 0 7.89905e+08 7.9017e+08 7.91389e+08 7.91597e+08 1
001 538 1 0 8.01448e+08 8.01718e+08 8.0289e+08 8.14413e+08 0
001 539 2 0 8.17195e+08 8.17468e+08 8.18074e+08 8.35665e+08 0
000 540 2 1 8.43631e+08 8.43908e+08 8.44514e+08 9.18512e+08 1
001 541 2 0 9.22507e+08 9.22771e+08 9.24004e+08 9.34889e+08 0
000 542 2 0 9.42608e+08 9.4287e+08 9.44102e+08 9.58448e+08 1
000 543 2 0 9.65777e+08 9.66052e+08 9.67284e+08 9.74171e+08 1
000 544 2 0 9.81393e+08 9.81672e+08 9.82905e+08 9.87832e+08 1
000 545 2 0 9.95285e+08 9.95545e+08 9.9613e+08 1.00489e+09 0
000 546 1 0 1.01228e+09 1.01254e+09 1.01317e+09 1.01324e+09 0
001 547 1 0 1.01874e+09 1.01901e+09 1.01988e+09 1.03272e+09 0
001 548 2 0 1.03541e+09 1.03568e+09 1.03664e+09 1.04046e+09 0
000 549 2 0 1.04763e+09 1.0479e+09 1.04886e+09 1.05414e+09 1
000 550 2 1 1.06427e+09 1.06454e+09 1.0655e+09 1.0768e+09 1
001 551 2 0 1.0828e+09 1.08308e+09 1.08448e+09 1.09918e+09 0
000 552 2 0 1.10668e+09 1.10694e+09 1.10834e+09 1.11585e+09 1
000 553 2 0 1.12551e+09 1.12577e+09 1.12717e+09 1.12943e+09 1
000 554 2 1 1.13735e+09 1.13762e+09 1.13902e+09 1.13953e+09 1
001 555 1 0 1.15394e+09 1.15422e+09 1.15557e+09 1.15613e+09 0
001 556 1 1 1.1595e+09 1.15977e+09 1.16048e+09 1.16049e+09 0
000 557 1 1 1.168e+09 1.16828e+09 1.16899e+09 1.17052e+09 1
000 558 1 0 1.18097e+09 1.18124e+09 1.18195e+09 1.1874e+09 1
001 559 1 0 1.2047e+09 1.20495e+09 1.20625e+09 1.22778e+09 0
001 560 1 0 1.23294e+09 1.2332e+09 1.23424e+09 1.23671e+09 0
001 561 1 0 1.2393e+09 1.23957e+09 1.24087e+09 1.25172e+09 0
001 562 2 0 1.25436e+09 1.25463e+09 1.25579e+09 1.2622e+09 0
000 563 2 0 1.27218e+09 1.27244e+09 1.2736e+09 1.28015e+09 1
000 564 2 0 1.28852e+09 1.28879e+09 1.28995e+09 1.29235e+09 1
000 565 2 0 1.2994e+09 1.29968e+09 1.30084e+09 1.30637e+09 1
000 566 2 0 1.31571e+09 1.31599e+09 1.31715e+09 1.33702e+09 0
000 567 1 0 1.34683e+09 1.3471e+09 1.34833e+09 1.34863e+09 0
001 568 1 0 1.35482e+09 1.35509e+09 1.35606e+09 1.35607e+09 0
001 569 2 0 1.36129e+09 1.36158e+09 1.36233e+09 1.36748e+09 0
000 570 2 0 1.3748e+09 1.37506e+09 1.37582e+09 1.3774e+09 1
000 571 2 1 1.3853e+09 1.38557e+09 1.38632e+09 1.38634e+09 1
001 572 2 0 1.39098e+09 1.39124e+09 1.39227e+09 1.39894e+09 0
000 573 2 1 1.40846e+09 1.40872e+09 1.40974e+09 1.41736e+09 1
001 574 2 0 1.42148e+09 1.42175e+09 1.42284e+09 1.43053e+09 0
000 575 2 0 1.43759e+09 1.43786e+09 1.43896e+09 1.44375e+09 1
000 576 2 0 1.45082e+09 1.45108e+09 1.45218e+09 1.4524e+09 1
000 577 2 1 1.46741e+09 1.46767e+09 1.46877e+09 1.47042e+09 1
001 578 1 0 1.47493e+09 1.4752e+09 1.47646e+09 1.47964e+09 0
001 579 1 0 1.484e+09 1.48426e+09 1.48484e+09 1.48603e+09 0
001 580 1 1 1.4896e+09 1.48986e+09 1.49102e+09 1.49366e+09 0
000 581 1 1 1.50297e+09 1.50324e+09 1.5044e+09 1.51121e+09 1
000 582 1 0 1.51865e+09 1.51891e+09 1.52008e+09 1.52214e+09 1
001 583 1 1 1.52885e+09 1.52912e+09 1.53042e+09 1.53549e+09 0
000 584 1 0 1.54287e+09 1.54314e+09 1.54445e+09 1.56606e+09 1
001 585 1 0 1.56847e+09 1.56873e+09 1.57019e+09 1.6192e+09 0
001 