trial trialType response stillTime stimOnset stimOffset respTime correctionTrial correct
001 1 1 8.50434e+06 8.83498e+06 9.85459e+06 1.22206e+07 0 0
002 1 1 2.0308e+07 2.05861e+07 2.16057e+07 2.22935e+07 1 0
003 1 0 3.16816e+07 3.19638e+07 3.29834e+07 3.32244e+07 1 1
004 2 0 4.21479e+07 4.24128e+07 4.34325e+07 4.36653e+07 0 0
005 2 0 8.95017e+07 8.97619e+07 9.07815e+07 9.08051e+07 1 0
006 2 0 1.12945e+08 1.13211e+08 1.1423e+08 1.15496e+08 1 0
007 2 1 1.22874e+08 1.2314e+08 1.24159e+08 1.24474e+08 1 1
008 2 0 1.34383e+08 1.34658e+08 1.35677e+08 1.36345e+08 0 0
009 2 1 1.56549e+08 1.56808e+08 1.57827e+08 1.58594e+08 1 1
010 1 0 1.62186e+08 1.62451e+08 1.63471e+08 1.63881e+08 0 1
011 2 0 1.77487e+08 1.77749e+08 1.78769e+08 1.78829e+08 0 0
012 2 0 1.86299e+08 1.86558e+08 1.87577e+08 1.88046e+08 1 0
013 2 0 2.05881e+08 2.06138e+08 2.07158e+08 2.09867e+08 1 0
014 2 0 2.17466e+08 2.17714e+08 2.18734e+08 2.19046e+08 1 0
015 2 0 2.32087e+08 2.32368e+08 2.33387e+08 2.33657e+08 0 0
016 1 0 2.40758e+08 2.41018e+08 2.42037e+08 2.42105e+08 0 1
017 1 1 2.47826e+08 2.48088e+08 2.49107e+08 2.49231e+08 0 0
018 1 0 2.58016e+08 2.58277e+08 2.59297e+08 2.59412e+08 1 1
019 1 1 2.7462e+08 2.7488e+08 2.75899e+08 2.77281e+08 0 0
020 1 1 2.85898e+08 2.86152e+08 2.87171e+08 2.88265e+08 1 0
021 1 0 2.97076e+08 2.97345e+08 2.98365e+08 2.99199e+08 1 1
022 1 0 3.03883e+08 3.04133e+08 3.05152e+08 3.06064e+08 0 1
023 2 1 3.18441e+08 3.18697e+08 3.19716e+08 3.20445e+08 0 1
024 2 1 3.29739e+08 3.29991e+08 3.31011e+08 3.31054e+08 0 1
025 2 0 3.33714e+08 3.33979e+08 3.34998e+08 3.35785e+08 0 0
026 2 0 3.53044e+08 3.53297e+08 3.54316e+08 3.55336e+08 1 0
027 2 0 3.67337e+08 3.676e+08 3.6862e+08 3.68634e+08 1 0
028 2 1 3.86621e+08 3.86871e+08 3.87891e+08 3.87958e+08 1 1
029 2 0 3.95538e+08 3.95803e+08 3.96822e+08 3.97146e+08 0 0
030 2 0 4.05703e+08 4.05954e+08 4.06974e+08 4.08219e+08 1 0
031 2 0 4.15662e+08 4.15904e+08 4.16924e+08 4.17539e+08 1 0
032 2 0 4.26154e+08 4.26423e+08 4.27443e+08 4.28553e+08 1 0
033 2 0 4.35928e+08 4.36189e+08 4.37209e+08 4.38464e+08 0 0
034 1 1 4.48119e+08 4.48383e+08 4.49402e+08 4.50722e+08 0 0
035 2 0 4.59315e+08 4.59559e+08 4.60579e+08 4.61426e+08 0 0
036 2 1 4.71632e+08 4.71896e+08 4.72915e+08 4.72925e+08 0 1
037 1 0 4.77168e+08 4.77423e+08 4.78442e+08 4.78988e+08 0 1
038 1 1 4.84892e+08 4.85149e+08 4.86169e+08 4.87006e+08 0 0
039 1 0 4.95716e+08 4.95972e+08 4.96991e+08 4.99325e+08 1 1
040 2 1 5.15262e+08 5.15509e+08 5.16528e+08 5.16749e+08 0 1
041 1 0 5.33382e+08 5.33642e+08 5.34661e+08 5.35188e+08 0 1
042 1 0 5.422e+08 5.42461e+08 5.43481e+08 5.43565e+08 0 1
043 1 0 5.50241e+08 5.50505e+08 5.51524e+08 5.5181e+08 0 1
044 1 0 5.56871e+08 5.57122e+08 5.58141e+08 5.58559e+08 0 1
045 1 0 5.75546e+08 5.75801e+08 5.7682e+08 5.77673e+08 0 1
046 2 0 5.80613e+08 5.80867e+08 5.81886e+08 5.82975e+08 0 0
047 2 1 5.94593e+08 5.94843e+08 5.95863e+08 5.95935e+08 1 1
048 2 1 5.99006e+08 5.99268e+08 6.00288e+08 6.0083e+08 0 1
049 1 0 6.05107e+08 6.0536e+08 6.0638e+08 6.07688e+08 0 1
050 2 1 6.1716e+08 6.17422e+08 6.18441e+08 6.19463e+08 0 1
051 1 0 6.22267e+08 6.2252e+08 6.2354e+08 6.24307e+08 0 1
052 1 0 6.32619e+08 6.32875e+08 6.33895e+08 6.34312e+08 0 1
053 2 1 6.39755e+08 6.40007e+08 6.41026e+08 6.42105e+08 0 1
054 1 1 6.46035e+08 6.46303e+08 6.47323e+08 6.47463e+08 0 0
055 1 0 6.56587e+08 6.56851e+08 6.57871e+08 6.59487e+08 1 1
056 2 1 6.70072e+08 6.70327e+08 6.71347e+08 6.71405e+08 0 1
057 1 0 6.78244e+08 6.78512e+08 6.79532e+08 6.79911e+08 0 1
058 1 1 6.8329e+08 6.83548e+08 6.84568e+08 6.84584e+08 0 0
059 1 1 6.95961e+08 6.96219e+08 6.97238e+08 6.97997e+08 1 0
060 1 0 7.07181e+08 7.07433e+08 7.08453e+08 7.08782e+08 1 1
061 1 1 7.12235e+08 7.12495e+08 7.13515e+08 7.13522e+08 0 0
062 1 0 7.32028e+08 7.32278e+08 7.33297e+08 7.33325e+08 1 1
063 1 0 7.38255e+08 7.38515e+08 7.39534e+08 7.40468e+08 0 1
064 2 0 7.43255e+08 7.43521e+08 7.4454e+08 7.44553e+08 0 0
065 2 0 7.62291e+08 7.62558e+08 7.63578e+08 7.64345e+08 1 0
066 2 0 7.73764e+08 7.74024e+08 7.75044e+08 7.75049e+08 1 0
067 2 1 7.84808e+08 7.85055e+08 7.86075e+08 7.87079e+08 1 1
068 2 0 8.04393e+08 8.04657e+08 8.05676e+08 8.07027e+08 0 0
069 2 1 8.17814e+08 8.18062e+08 8.19081e+08 8.20235e+08 1 1
070 2 1 8.3361e+08 8.33867e+08 8.34887e+08 8.3532e+08 0 1
071 1 0 8.52755e+08 8.53009e+08 8.54029e+08 8.54051e+08 0 1
072 2 0 8.66657e+08 8.66911e+08 8.6793e+08 8.67939e+08 0 0
073 2 1 8.78356e+08 8.78618e+08 8.79637e+08 8.81054e+08 1 1
074 2 0 8.86363e+08 8.86618e+08 8.87638e+08 8.88479e+08 0 0
075 2 0 8.95866e+08 8.96113e+08 8.97133e+08 8.97236e+08 1 0
076 2 0 9.08566e+08 9.08818e+08 9.09838e+08 9.10508e+08 1 0
077 2 1 9.17598e+08 9.17852e+08 9.18872e+08 9.19681e+08 1 1
078 2 0 9.26336e+08 9.26586e+08 9.27606e+08 9.28226e+08 0 0
079 2 0 9.36988e+08 9.37253e+08 9.38273e+08 9.40348e+08 1 0
080 2 1 9.51436e+08 9.51688e+08 9.52708e+08 9.52736e+08 1 1
081 2 1 9.59522e+08 9.59778e+08 9.60797e+08 9.62e+08 0 1
082 1 0 9.71658e+08 9.71903e+08 9.72923e+08 9.73075e+08 0 1
083 1 0 9.81338e+08 9.81598e+08 9.82618e+08 9.83404e+08 0 1
084 1 1 9.86619e+08 9.86883e+08 9.87902e+08 9.88542e+08 0 0
085 1 0 1.00431e+09 1.00457e+09 1.00559e+09 1.00607e+09 1 1
086 1 0 1.01441e+09 1.01467e+09 1.01569e+09 1.01837e+09 0 1
087 2 1 1.02679e+09 1.02705e+09 1.02807e+09 1.03018e+09 0 1
088 2 1 1.03645e+09 1.03671e+09 1.03773e+09 1.03848e+09 0 1
089 2 0 1.0471e+09 1.04736e+09 1.04838e+09 1.04839e+09 0 0
090 2 1 1.06093e+09 1.06118e+09 1.0622e+09 1.0631e+09 1 1
091 1 0 1.07567e+09 1.07593e+09 1.07695e+09 1.07728e+09 0 1
092 2 0 1.09511e+09 1.09536e+09 1.09638e+09 1.09657e+09 0 0
093 2 0 1.10537e+09 1.10563e+09 1.10665e+09 1.10675e+09 1 0
094 2 0 1.12499e+09 1.12525e+09 1.12627e+09 1.12715e+09 1 0
095 2 0 1.13498e+09 1.13522e+09 1.13624e+09 1.1372e+09 1 0
096 2 0 1.14435e+09 1.14462e+09 1.14564e+09 1.14569e+09 0 0
097 2 0 1.1539e+09 1.15415e+09 1.15517e+09 1.16179e+09 0 0
098 2 1 1.17337e+09 1.17362e+09 1.17464e+09 1.17469e+09 0 1
099 2 1 1.20534e+09 1.2056e+09 1.20662e+09 1.20685e+09 0 1
100 1 1 1.21643e+09 1.21668e+09 1.2177e+09 1.21842e+09 0 0
101 1 0 1.22813e+09 1.22839e+09 1.22941e+09 1.22947e+09 1 1
102 2 0 1.23274e+09 1.233e+09 1.23402e+09 1.23405e+09 0 0
103 2 0 1.24351e+09 1.24378e+09 1.2448e+09 1.24489e+09 1 0
104 2 1 1.25312e+09 1.25337e+09 1.25439e+09 1.25447e+09 1 1
105 1 0 1.25785e+09 1.2581e+09 1.25912e+09 1.25913e+09 0 1
106 1 1 1.2717e+09 1.27195e+09 1.27297e+09 1.27512e+09 0 0
107 1 1 1.28685e+09 1.28712e+09 1.28814e+09 1.29188e+09 1 0
108 1 1 1.30113e+09 1.30139e+09 1.30241e+09 1.30246e+09 1 0
109 1 1 1.31024e+09 1.3105e+09 1.31152e+09 1.3123e+09 1 0
110 2 1 1.32087e+09 1.32112e+09 1.32214e+09 1.32229e+09 0 1
111 2 0 1.32728e+09 1.32752e+09 1.32854e+09 1.32929e+09 0 0
112 2 0 1.33916e+09 1.3394e+09 1.34042e+09 1.34055e+09 1 0
113 2 1 1.3492e+09 1.34946e+09 1.35048e+09 1.35101e+09 1 1
114 1 0 1.35848e+09 1.35874e+09 1.35976e+09 1.35998e+09 0 1
115 2 1 1.37902e+09 1.37928e+09 1.3803e+09 1.3806e+09 0 1
116 2 0 1.38376e+09 1.38401e+09 1.38503e+09 1.38514e+09 0 0
117 2 1 1.40527e+09 1.40553e+09 1.40655e+09 1.40681e+09 1 1
118 2 0 1.42215e+09 1.4224e+09 1.42342e+09 1.42348e+09 0 0
119 2 1 1.43441e+09 1.43468e+09 1.4357e+09 1.43645e+09 1 1
120 1 1 1.4419e+09 1.44215e+09 1.44317e+09 1.44364e+09 0 0
121 1 0 1.45214e+09 1.45242e+09 1.45344e+09 1.45349e+09 1 1
122 2 1 1.4579e+09 1.45816e+09 1.45918e+09 1.4592e+09 0 1
123 1 0 1.464e+09 1.46425e+09 1.46527e+09 1.46626e+09 0 1
124 1 1 1.4688e+09 1.46906e+09 1.47008e+09 1.47014e+09 0 0
125 1 1 1.50098e+09 1.50125e+09 1.50227e+09 1.50243e+09 1 0
126 1 1 1.51778e+09 1.51804e+09 1.51906e+09 1.51908e+09 1 0
127 1 0 1.52663e+09 1.52689e+09 1.52791e+09 1.52914e+09 1 1
128 2 0 1.54116e+09 1.54141e+09 1.54243e+09 1.54245e+09 0 0
129 2 1 1.55021e+09 1.55046e+09 1.55148e+09 1.55171e+09 1 1
130 2 1 1.56421e+09 1.56447e+09 1.56549e+09 1.56552e+09 0 1
131 2 1 1.57921e+09 1.57947e+09 1.58049e+09 1.58059e+09 0 1
132 1 0 1.5887e+09 1.58896e+09 1.58998e+09 1.59017e+09 0 1
133 1 0 1.6048e+09 1.60507e+09 1.60609e+09 1.60633e+09 0 1
134 2 0 1.61301e+09 1.61327e+09 1.61429e+09 1.61433e+09 0 0
135 2 1 1.62608e+09 1.62633e+09 1.62735e+09 1.62739e+09 1 1
136 1 0 1.6389e+09 1.63916e+09 1.64018e+09 1.64183e+09 0 1
137 2 0 1.64502e+09 1.64528e+09 1.6463e+09 1.64631e+09 0 0
138 2 1 1.65558e+09 1.65583e+09 1.65685e+09 1.65717e+09 1 1
139 2 0 1.65981e+09 1.66006e+09 1.66108e+09 1.66175e+09 0 0
140 2 1 1.67269e+09 1.67293e+09 1.67395e+09 1.67422e+09 1 1
141 1 1 1.68968e+09 1.68994e+09 1.69096e+09 1.6919e+09 0 0
142 1 0 1.70097e+09 1.70122e+09 1.70224e+09 1.70404e+09 1 1
143 1 0 1.71264e+09 1.71289e+09 1.71391e+09 1.71394e+09 0 1
144 1 0 1.71751e+09 1.71775e+09 1.71877e+09 1.7195e+09 0 1
145 2 0 1.72687e+09 1.72713e+09 1.72815e+09 1.72818e+09 0 0
146 2 0 1.73846e+09 1.73872e+09 1.73974e+09 1.73975e+09 1 0
147 2 1 1.75206e+09 1.75232e+09 1.75334e+09 1.75444e+09 1 1
148 1 0 1.75926e+09 1.75952e+09 1.76054e+09 1.76169e+09 0 1
149 2 1 1.77908e+09 1.77932e+09 1.78034e+09 1.78036e+09 0 1
150 2 0 1.79382e+09 1.79407e+09 1.79509e+09 1.7961e+09 0 0
151 2 0 1.80375e+09 1.804e+09 1.80502e+09 1.80507e+09 1 0
152 2 1 1.81469e+09 1.81495e+09 1.81597e+09 1.8166e+09 1 1
153 1 1 1.82831e+09 1.82856e+09 1.82958e+09 1.83421e+09 0 0
154 1 1 1.84297e+09 1.84322e+09 1.84424e+09 1.84426e+09 1 0
155 1 1 1.85805e+09 1.85831e+09 1.85933e+09 1.85934e+09 1 0
156 1 1 1.87034e+09 1.87059e+09 1.87161e+09 1.87402e+09 1 0
157 2 0 1.88452e+09 1.88478e+09 1.8858e+09 1.88581e+09 0 0
158 1 0 1.89316e+09 1.89342e+09 1.89444e+09 1.89531e+09 0 1
159 1 0 1.90472e+09 1.90497e+09 1.90599e+09 1.90671e+09 0 1
160 1 1 1.91579e+09 1.91606e+09 1.91708e+09 1.91709e+09 0 0
161 1 0 1.93251e+09 1.93277e+09 1.93379e+09 1.93526e+09 1 1
162 1 0 1.93776e+09 1.93803e+09 1.93905e+09 1.93984e+09 0 1
163 1 0 1.94667e+09 1.94693e+09 1.94795e+09 1.94844e+09 0 1
164 1 0 1.95492e+09 1.95518e+09 1.9562e+09 1.95637e+09 0 1
165 1 1 1.96191e+09 1.96215e+09 1.96317e+09 1.96318e+09 0 0
166 1 0 1.9703e+09 1.97056e+09 1.97158e+09 1.97215e+09 1 1
167 2 0 1.97485e+09 1.9751e+09 1.97612e+09 1.97614e+09 0 0
168 2 1 1.98363e+09 1.98389e+09 1.98491e+09 1.98579e+09 1 1
169 2 0 1.99024e+09 1.99049e+09 1.99151e+09 1.99157e+09 0 0
170 2 0 1.99863e+09 1.99889e+09 1.99991e+09 2.00304e+09 1 0
171 2 0 2.01112e+09 2.01137e+09 2.01239e+09 2.01334e+09 1 0
172 2 0 2.02113e+09 2.0214e+09 2.02242e+09 2.0225e+09 1 0
173 1 0 2.03009e+09 2.03035e+09 2.03137e+09 2.03147e+09 0 1
174 1 1 2.0477e+09 2.04796e+09 2.04898e+09 2.04918e+09 0 0
175 1 1 2.06679e+09 2.06704e+09 2.06806e+09 2.06849e+09 1 0
176 1 1 2.0764e+09 2.07666e+09 2.07768e+09 2.07798e+09 1 0
177 1 1 2.08506e+09 2.08533e+09 2.08635e+09 2.08685e+09 1 0
178 2 1 2.10202e+09 2.10227e+09 2.10329e+09 2.10363e+09 0 1
179 2 0 2.10631e+09 2.10657e+09 2.10759e+09 2.10766e+09 0 0
180 2 0 2.11515e+09 2.1154e+09 2.11642e+09 2.11818e+09 1 0
181 2 0 2.1256e+09 2.12585e+09 2.12687e+09 2.12773e+09 1 0
182 2 0 2.14925e+09 2.1495e+09 2.15052e+09 2.15093e+09 1 0
183 2 0 2.15845e+09 2.15871e+09 2.15973e+09 2.15982e+09 0 0
184 1 0 2.16733e+09 2.16759e+09 2.16861e+09 2.17005e+09 0 1
185 2 0 2.17409e+09 2.17435e+09 2.17537e+09 2.1755e+09 0 0
186 2 0 2.18388e+09 2.18415e+09 2.18517e+09 2.18561e+09 1 0
187 2 1 2.19853e+09 2.19878e+09 2.1998e+09 2.20416e+09 1 1
188 1 0 2.20739e+09 2.20764e+09 2.20866e+09 2.20882e+09 0 1
189 1 0 2.21824e+09 2.2185e+09 2.21952e+09 2.22051e+09 0 1
190 2 1 2.23218e+09 2.23243e+09 2.23345e+09 2.23535e+09 0 1
191 2 1 2.23798e+09 2.23824e+09 2.23926e+09 2.23931e+09 0 1
192 2 1 2.25165e+09 2.2519e+09 2.25292e+09 2.2538e+09 0 1
193 1 1 2.26494e+09 2.26519e+09 2.26621e+09 2.26636e+09 0 0
194 1 1 2.27765e+09 2.2779e+09 2.27892e+09 2.27964e+09 1 0
195 1 1 2.28885e+09 2.28912e+09 2.29014e+09 2.29222e+09 1 0
196 1 0 2.30214e+09 2.30239e+09 2.30341e+09 2.30396e+09 1 1
197 2 0 2.30649e+09 2.30675e+09 2.30777e+09 2.30851e+09 0 0
198 2 0 2.31752e+09 2.31777e+09 2.31879e+09 2.31885e+09 1 0
199 2 0 2.3273e+09 2.32755e+09 2.32857e+09 2.3286e+09 1 0
200 2 0 2.33719e+09 2.33744e+09 2.33846e+09 2.33859e+09 1 0
201 1 1 2.35081e+09 2.35107e+09 2.35209e+09 2.35212e+09 0 0
202 1 0 2.36332e+09 2.36357e+09 2.36459e+09 2.36481e+09 0 1
203 1 0 2.37168e+09 2.37193e+09 2.37295e+09 2.37375e+09 0 1
204 1 1 2.39334e+09 2.3936e+09 2.39462e+09 2.39606e+09 0 0
205 1 1 2.40374e+09 2.404e+09 2.40502e+09 2.40856e+09 1 0
206 1 0 2.41945e+09 2.41972e+09 2.42074e+09 2.42111e+09 1 1
207 1 1 2.43027e+09 2.43052e+09 2.43154e+09 2.43156e+09 0 0
208 1 0 2.43919e+09 2.43945e+09 2.44047e+09 2.44213e+09 1 1
209 2 1 2.44701e+09 2.44727e+09 2.44829e+09 2.44971e+09 0 1
210 1 1 2.46438e+09 2.46463e+09 2.46565e+09 2.46683e+09 0 0
211 1 0 2.47971e+09 2.47996e+09 2.48098e+09 2.48341e+09 1 1
212 1 1 2.48688e+09 2.48715e+09 2.48817e+09 2.4906e+09 0 0
213 1 0 2.50021e+09 2.50046e+09 2.50148e+09 2.50171e+09 1 1
214 2 1 2.5069e+09 2.50715e+09 2.50817e+09 2.5108e+09 0 1
215 1 0 2.52258e+09 2.52283e+09 2.52385e+09 2.52394e+09 0 1
216 1 0 2.53816e+09 2.53841e+09 2.53943e+09 2.5399e+09 0 1
217 1 1 2.55236e+09 2.55262e+09 2.55364e+09 2.55371e+09 0 0
218 1 1 2.56205e+09 2.56232e+09 2.56334e+09 2.5644e+09 1 0
219 1 0 2.57382e+09 2.57407e+09 2.57509e+09 2.57549e+09 1 1
220 2 1 2.57848e+09 2.57874e+09 2.57976e+09 2.58191e+09 0 1
221 2 0 2.58672e+09 2.58697e+09 2.58799e+09 2.5882e+09 0 0
222 2 0 2.5972e+09 2.59745e+09 2.59847e+09 2.59876e+09 1 0
223 2 1 2.60745e+09 2.60771e+09 2.60873e+09 2.60892e+09 1 1
224 1 0 2.61168e+09 2.61193e+09 2.61295e+09 2.61354e+09 0 1
225 1 0 2.62584e+09 2.62609e+09 2.62711e+09 2.62769e+09 0 1
226 2 1 2.64107e+09 2.64133e+09 2.64235e+09 2.64246e+09 0 1
227 1 0 2.65221e+09 2.65246e+09 2.65348e+09 2.6542e+09 0 1
228 1 1 2.66004e+09 2.66029e+09 2.66131e+09 2.66367e+09 0 0
229 1 1 2.67194e+09 2.6722e+09 2.67322e+09 2.67389e+09 1 0
230 1 1 2.68123e+09 2.68148e+09 2.6825e+09 2.68464e+09 1 0
231 1 1 2.69585e+09 2.69611e+09 2.69713e+09 2.69722e+09 1 0
232 1 0 2.70439e+09 2.70465e+09 2.70567e+09 2.70604e+09 0 1
233 1 0 2.71988e+09 2.72014e+09 2.72116e+09 2.72378e+09 0 1
234 2 1 2.72706e+09 2.72731e+09 2.72833e+09 2.73165e+09 0 1
235 1 1 2.73622e+09 2.73647e+09 2.73749e+09 2.73947e+09 0 0
236 1 1 2.74859e+09 2.74883e+09 2.74985e+09 2.75324e+09 1 0
237 1 1 2.76067e+09 2.76092e+09 2.76194e+09 2.76197e+09 1 0
238 1 0 2.77176e+09 2.772e+09 2.77302e+09 2.77368e+09 1 1
239 2 0 2.77897e+09 2.77923e+09 2.78025e+09 2.78421e+09 0 0
240 2 0 2.79152e+09 2.79177e+09 2.79279e+09 2.79312e+09 1 0
241 2 1 2.80041e+09 2.80066e+09 2.80168e+09 2.80194e+09 1 1
242 1 0 2.81046e+09 2.81073e+09 2.81175e+09 2.81214e+09 0 1
243 1 0 2.81917e+09 2.81943e+09 2.82045e+09 2.82139e+09 0 1
244 2 1 2.82651e+09 2.82677e+09 2.82779e+09 2.82782e+09 0 1
245 1 0 2.84382e+09 2.84409e+09 2.84511e+09 2.8461e+09 0 1
246 1 1 2.85066e+09 2.85092e+09 2.85194e+09 2.85197e+09 0 0
247 1 0 2.85964e+09 2.85989e+09 2.86091e+09 2.86103e+09 1 1
248 2 1 2.86374e+09 2.864e+09 2.86502e+09 2.86735e+09 0 1
249 2 1 2.87428e+09 2.87455e+09 2.87557e+09 2.8764e+09 0 1
250 2 1 2.8871e+09 2.88735e+09 2.88837e+09 2.88854e+09 0 1
251 2 1 2.89633e+09 2.89659e+09 2.89761e+09 2.89762e+09 0 1
252 1 1 2.90061e+09 2.90086e+09 2.90188e+09 2.90226e+09 0 0
253 1 1 2.91433e+09 2.91459e+09 2.91561e+09 2.91602e+09 1 0
254 1 1 2.93459e+09 2.93484e+09 2.93586e+09 2.9371e+09 1 0
255 1 1 2.95358e+09 2.95384e+09 2.95486e+09 2.95545e+09 1 0
256 2 0 2.96292e+09 2.96318e+09 2.9642e+09 2.96437e+09 0 0
257 2 1 2.97297e+09 2.97322e+09 2.97424e+09 2.97606e+09 0 1
258 1 1 2.98179e+09 2.98204e+09 2.98306e+09 2.98532e+09 0 0
259 1 0 2.99243e+09 2.99268e+09 2.9937e+09 2.99454e+09 1 1
260 2 0 2.99977e+09 3.00002e+09 3.00104e+09 3.00106e+09 0 0
261 2 1 3.02393e+09 3.02418e+09 3.0252e+09 3.02528e+09 1 1
262 1 0 3.0369e+09 3.03715e+09 3.03817e+09 3.03819e+09 0 1
263 2 0 3.04787e+09 3.04813e+09 3.04915e+09 3.0492e+09 0 0
264 2 1 3.05989e+09 3.06015e+09 3.06117e+09 3.06364e+09 1 1
265 2 0 3.07165e+09 3.07191e+09 3.07293e+09 3.07298e+09 0 0
266 2 1 3.08191e+09 3.08216e+09 3.08318e+09 3.08355e+09 1 1
267 1 1 3.08675e+09 3.087e+09 3.08802e+09 3.08804e+09 0 0
268 1 1 3.10034e+09 3.1006e+09 3.10162e+09 3.10164e+09 1 0
269 1 1 3.10973e+09 3.10998e+09 3.111e+09 3.11648e+09 1 0
270 1 1 3.12642e+09 3.12667e+09 3.12769e+09 3.12862e+09 1 0
271 1 0 3.1393e+09 3.13956e+09 3.14058e+09 3.14061e+09 0 1
272 1 1 3.14381e+09 3.1441e+09 3.14512e+09 3.14653e+09 0 0
273 1 1 3.15997e+09 3.16024e+09 3.16126e+09 3.16233e+09 1 0
274 1 1 3.16961e+09 3.16987e+09 3.17089e+09 3.17304e+09 1 0
275 1 0 3.18059e+09 3.18084e+09 3.18186e+09 3.18381e+09 1 1
276 2 1 3.18641e+09 3.18667e+09 3.18769e+09 3.18889e+09 0 1
277 2 0 3.19469e+09 3.19495e+09 3.19597e+09 3.19718e+09 0 0
278 2 1 3.2052e+09 3.20545e+09 3.20647e+09 3.21131e+09 1 1
279 2 0 3.21512e+09 3.21537e+09 3.21639e+09 3.21655e+09 0 0
280 2 1 3.22459e+09 3.22484e+09 3.22586e+09 3.22598e+09 1 1
281 2 0 3.23122e+09 3.23148e+09 3.2325e+09 3.23292e+09 0 0
282 2 0 3.24037e+09 3.24063e+09 3.24165e+09 3.24611e+09 1 0
283 2 1 3.25475e+09 3.25501e+09 3.25603e+09 3.25667e+09 1 1
284 2 0 3.25981e+09 3.26006e+09 3.26108e+09 3.26146e+09 0 0
285 2 1 3.2722e+09 3.27245e+09 3.27347e+09 3.27349e+09 1 1
286 1 0 3.28275e+09 3.28301e+09 3.28403e+09 3.28415e+09 0 1
287 1 0 3.29427e+09 3.29452e+09 3.29554e+09 3.29755e+09 0 1
288 1 0 3.30167e+09 3.30192e+09 3.30294e+09 3.30308e+09 0 1
289 2 1 3.31734e+09 3.31759e+09 3.31861e+09 3.319e+09 0 1
290 1 0 3.3234e+09 3.32365e+09 3.32467e+09 3.32468e+09 0 1
291 1 0 3.32926e+09 3.32951e+09 3.33053e+09 3.33055e+09 0 1
292 2 1 3.33477e+09 3.33502e+09 3.33604e+09 3.33611e+09 0 1
293 1 1 3.339e+09 3.33925e+09 3.34027e+09 3.3405e+09 0 0
294 1 1 3.34961e+09 3.34986e+09 3.35088e+09 3.3512e+09 1 0
295 1 0 3.36031e+09 3.36057e+09 3.36159e+09 3.36207e+09 1 1
296 2 0 3.36913e+09 3.36938e+09 3.3704e+09 3.37043e+09 0 0
297 2 1 3.38009e+09 3.38034e+09 3.38136e+09 3.38361e+09 1 1
298 2 1 3.3895e+09 3.38975e+09 3.39077e+09 3.39087e+09 0 1
299 1 1 3.40579e+09 3.40604e+09 3.40706e+09 3.40766e+09 0 0
300 1 1 3.41612e+09 3.41637e+09 3.41739e+09 3.41796e+09 1 0
301 1 0 3.42529e+09 3.42555e+09 3.42657e+09 3.43148e+09 1 1
302 1 1 3.44389e+09 3.44416e+09 3.44518e+09 3.44533e+09 0 0
303 1 1 3.45293e+09 3.45317e+09 3.45419e+09 3.45478e+09 1 0
304 1 0 3.46597e+09 3.46622e+09 3.46724e+09 3.47049e+09 1 1
305 1 0 3.48117e+09 3.48142e+09 3.48244e+09 3.48286e+09 0 1
306 2 1 3.49264e+09 3.49289e+09 3.4939e+09 3.49395e+09 0 1
307 2 1 3.50031e+09 3.50057e+09 3.50159e+09 3.50365e+09 0 1
308 1 0 3.50771e+09 3.50797e+09 3.50899e+09 3.50901e+09 0 1
309 2 1 3.51179e+09 3.51204e+09 3.51306e+09 3.5131e+09 0 1
310 1 0 3.527e+09 3.52725e+09 3.52827e+09 3.52851e+09 0 1
311 2 0 3.53429e+09 3.53456e+09 3.53558e+09 3.53646e+09 0 0
312 2 0 3.54631e+09 3.54657e+09 3.54759e+09 3.5476e+09 1 0
313 2 1 3.55699e+09 3.55723e+09 3.55825e+09 3.56084e+09 1 1
314 1 0 3.56342e+09 3.56368e+09 3.5647e+09 3.56481e+09 0 1
315 2 0 3.56899e+09 3.56925e+09 3.57027e+09 3.57064e+09 0 0
316 2 0 3.58103e+09 3.58129e+09 3.58231e+09 3.58383e+09 1 0
317 2 0 3.59151e+09 3.59176e+09 3.59278e+09 3.59327e+09 1 0
318 2 0 3.60289e+09 3.60314e+09 3.60416e+09 3.6074e+09 1 0
319 1 1 3.62385e+09 3.6241e+09 3.62512e+09 3.62554e+09 0 0
320 2 0 3.63275e+09 3.633e+09 3.63402e+09 3.6341e+09 0 0
321 2 0 3.64211e+09 3.64236e+09 3.64338e+09 3.64414e+09 0 0
322 2 0 3.65568e+09 3.65594e+09 3.65696e+09 3.65761e+09 0 0
323 2 0 3.66563e+09 3.66589e+09 3.66691e+09 3.667e+09 0 0
324 1 0 3.67792e+09 3.67818e+09 3.6792e+09 3.68072e+09 0 1
325 2 0 3.68344e+09 3.6837e+09 3.68472e+09 3.68596e+09 0 0
326 2 1 3.69449e+09 3.69476e+09 3.69578e+09 3.69605e+09 1 1
327 2 0 3.69909e+09 3.69934e+09 3.70036e+09 3.70037e+09 0 0
328 2 0 3.70849e+09 3.70874e+09 3.70976e+09 3.70977e+09 1 0
329 2 0 3.71684e+09 3.71709e+09 3.71811e+09 3.71815e+09 1 0
330 2 1 3.72734e+09 3.72761e+09 3.72862e+09 3.72991e+09 1 1
331 2 1 3.73423e+09 3.73449e+09 3.73551e+09 3.73622e+09 0 1
332 2 1 3.74552e+09 3.74578e+09 3.7468e+09 3.74703e+09 0 1
333 2 0 3.75535e+09 3.75561e+09 3.75663e+09 3.75775e+09 0 0
334 2 0 3.76508e+09 3.76534e+09 3.76636e+09 3.76739e+09 1 0
335 2 0 3.77478e+09 3.77505e+09 3.77607e+09 3.7774e+09 1 0
336 2 1 3.78463e+09 3.78489e+09 3.78591e+09 3.78906e+09 1 1
337 1 1 3.79951e+09 3.79976e+09 3.80078e+09 3.80323e+09 0 0
338 1 0 3.81355e+09 3.81381e+09 3.81483e+09 3.81616e+09 1 1
339 2 1 3.82669e+09 3.82696e+09 3.82798e+09 3.82836e+09 0 1
340 1 0 3.83165e+09 3.8319e+09 3.83292e+09 3.83311e+09 0 1
341 1 0 3.84059e+09 3.84084e+09 3.84186e+09 3.84256e+09 0 1
342 2 0 3.84529e+09 3.84555e+09 3.84657e+09 3.84658e+09 0 0
343 2 1 3.85427e+09 3.85453e+09 3.85555e+09 3.85894e+09 1 1
344 2 1 3.86149e+09 3.86175e+09 3.86277e+09 3.86285e+09 0 1
345 1 1 3.86546e+09 3.86572e+09 3.86674e+09 3.86689e+09 0 0
346 1 0 3.87464e+09 3.87489e+09 3.87591e+09 3.88107e+09 1 1
347 2 1 3.88482e+09 3.88508e+09 3.8861e+09 3.88616e+09 0 1
348 2 1 3.88975e+09 3.89001e+09 3.89103e+09 3.89168e+09 0 1
349 1 1 3.89556e+09 3.89582e+09 3.89683e+09 3.89792e+09 0 0
350 1 1 3.90778e+09 3.90805e+09 3.90907e+09 3.91506e+09 1 0
351 1 1 3.9222e+09 3.92246e+09 3.92348e+09 3.92393e+09 1 0
352 1 0 3.93109e+09 3.93133e+09 3.93235e+09 3.93237e+09 1 1
353 1 1 3.93845e+09 3.9387e+09 3.93972e+09 3.93983e+09 0 0
354 1 1 3.94914e+09 3.9494e+09 3.95042e+09 3.951e+09 1 0
355 1 0 3.96003e+09 3.9603e+09 3.96132e+09 3.9614e+09 1 1
356 1 0 3.96685e+09 3.9671e+09 3.96812e+09 3.96816e+09 0 1
357 1 0 3.97739e+09 3.97765e+09 3.97867e+09 3.97988e+09 0 1
358 2 0 3.98389e+09 3.98414e+09 3.98516e+09 3.98536e+09 0 0
359 2 1 3.99263e+09 3.99289e+09 3.99391e+09 3.99402e+09 1 1
360 1 0 3.99656e+09 3.99682e+09 3.99784e+09 3.99841e+09 0 1
361 1 0 4.00257e+09 4.00283e+09 4.00384e+09 4.00419e+09 0 1
362 1 1 4.00783e+09 4.00808e+09 4.0091e+09 4.00991e+09 0 0
363 1 1 4.02057e+09 4.02081e+09 4.02183e+09 4.02301e+09 1 0
364 1 1 4.03052e+09 4.03077e+09 4.03179e+09 4.03282e+09 1 0
365 1 1 4.04027e+09 4.04053e+09 4.04155e+09 4.04237e+09 1 0
366 1 0 4.05095e+09 4.05121e+09 4.05223e+09 4.05382e+09 0 1
367 2 1 4.05773e+09 4.05799e+09 4.05901e+09 4.05901e+09 0 1
368 2 1 4.06441e+09 4.06467e+09 4.06569e+09 4.0658e+09 0 1
369 1 1 4.07314e+09 4.07339e+09 4.07441e+09 4.07609e+09 0 0
370 1 1 4.08475e+09 4.08501e+09 4.08603e+09 4.08644e+09 1 0
371 1 1 4.09496e+09 4.09521e+09 4.09623e+09 4.09714e+09 1 0
372 1 1 4.10428e+09 4.10454e+09 4.10556e+09 4.10557e+09 1 0
373 1 0 4.11414e+09 4.1144e+09 4.11542e+09 4.11661e+09 0 1
374 2 1 4.12518e+09 4.12544e+09 4.12646e+09 4.12684e+09 0 1
375 2 0 4.13084e+09 4.1311e+09 4.13212e+09 4.13325e+09 0 0
376 2 1 4.14531e+09 4.14557e+09 4.14659e+09 4.15167e+09 1 1
377 1 0 4.15946e+09 4.15972e+09 4.16074e+09 4.16081e+09 0 1
378 1 0 4.16461e+09 4.16486e+09 4.16587e+09 4.16702e+09 0 1
379 2 0 4.17706e+09 4.17731e+09 4.17833e+09 4.17833e+09 0 0
380 2 0 4.18551e+09 4.18576e+09 4.18678e+09 4.18706e+09 1 0
381 2 0 4.19523e+09 4.19549e+09 4.19651e+09 4.19993e+09 1 0
382 2 1 4.2087e+09 4.20895e+09 4.20997e+09 4.21401e+09 1 1
383 2 1 4.21731e+09 4.21756e+09 4.21858e+09 4.21876e+09 0 1
384 1 1 4.22242e+09 4.22267e+09 4.22369e+09 4.22512e+09 0 0
385 1 1 4.23378e+09 4.23402e+09 4.23504e+09 4.23671e+09 1 0
386 1 1 4.24396e+09 4.24422e+09 4.24524e+09 4.25258e+09 1 0
387 1 1 4.2676e+09 4.26786e+09 4.26888e+09 4.2698e+09 1 0
388 1 0 4.27962e+09 4.27988e+09 4.2809e+09 4.29261e+09 0 1
389 2 0 4.75752e+06 5.00065e+06 6.02026e+06 6.64011e+06 0 0
390 2 0 1.43852e+07 1.46411e+07 1.56607e+07 2.46212e+07 1 0
391 2 1 3.20359e+07 3.22879e+07 3.33075e+07 3.77511e+07 1 1
392 1 1 4.6377e+07 4.66401e+07 4.76597e+07 5.01709e+07 0 0
393 1 1 6.19879e+07 6.22451e+07 6.32647e+07 6.44134e+07 1 0
394 1 0 7.40403e+07 7.43031e+07 7.53227e+07 8.01244e+07 1 1
395 2 0 8.55081e+07 8.57667e+07 8.67864e+07 8.72229e+07 0 0
396 2 1 9.71674e+07 9.74279e+07 9.84475e+07 1.02533e+08 1 1
397 2 1 1.05906e+08 1.06153e+08 1.07172e+08 1.08263e+08 0 1
398 2 0 1.17722e+08 1.17974e+08 1.18994e+08 1.19081e+08 0 0
399 2 1 1.26452e+08 1.26714e+08 1.27734e+08 1.28361e+08 1 1
400 2 1 1.31176e+08 1.31433e+08 1.32452e+08 1.34224e+08 0 1
401 2 0 1.40728e+08 1.40978e+08 1.41998e+08 1.45268e+08 0 0
402 2 1 1.52333e+08 1.52588e+08 1.53608e+08 1.5427e+08 1 1
403 2 1 1.58382e+08 1.58639e+08 1.59659e+08 1.59665e+08 0 1
404 1 1 1.74572e+08 1.7482e+08 1.7584e+08 1.76415e+08 0 0
405 1 1 1.8375e+08 1.84016e+08 1.85035e+08 1.86328e+08 1 0
406 1 1 1.94371e+08 1.94628e+08 1.95647e+08 1.96704e+08 1 0
407 1 1 2.04853e+08 2.05117e+08 2.06136e+08 2.06874e+08 1 0
408 2 0 2.1455e+08 2.14806e+08 2.15825e+08 2.17481e+08 0 0
409 1 1 2.24629e+08 2.24889e+08 2.25908e+08 2.31536e+08 0 0
410 1 0 2.38838e+08 2.39088e+08 2.40108e+08 2.40181e+08 0 1
411 2 0 2.47855e+08 2.48114e+08 2.49133e+08 2.49638e+08 0 0
412 2 1 2.5994e+08 2.60187e+08 2.61206e+08 2.63285e+08 1 1
413 1 0 2.66948e+08 2.67199e+08 2.68219e+08 2.68672e+08 0 1
414 2 0 2.72289e+08 2.72546e+08 2.73566e+08 2.73872e+08 0 0
415 2 1 2.82007e+08 2.82253e+08 2.83272e+08 2.83291e+08 1 1
416 1 0 2.86789e+08 2.87043e+08 2.88062e+08 2.88377e+08 0 1
417 1 1 2.92191e+08 2.92453e+08 2.93473e+08 2.93526e+08 0 0
418 1 0 3.09936e+08 3.10203e+08 3.11222e+08 3.15602e+08 1 1
419 1 1 3.18402e+08 3.18653e+08 3.19672e+08 3.20693e+08 0 0
420 1 0 3.29523e+08 3.29784e+08 3.30804e+08 3.37045e+08 1 1
421 1 1 3.42903e+08 3.43168e+08 3.44188e+08 3.45945e+08 0 0
422 1 0 3.53586e+08 3.53849e+08 3.54869e+08 3.55632e+08 1 1
423 1 0 3.62065e+08 3.62317e+08 3.63337e+08 3.64258e+08 0 1
424 2 0 3.72449e+08 3.72713e+08 3.73733e+08 3.74358e+08 0 0
425 2 0 3.82779e+08 3.83042e+08 3.84062e+08 3.86142e+08 1 0
426 2 1 3.93244e+08 3.93508e+08 3.94528e+08 3.9456e+08 1 1
427 2 1 3.98621e+08 3.98885e+08 3.99905e+08 4.01318e+08 0 1
428 2 1 4.0457e+08 4.04835e+08 4.05854e+08 4.05965e+08 0 1
429 2 0 4.09657e+08 4.09907e+08 4.10927e+08 4.1122e+08 0 0
430 2 0 4.18261e+08 4.18534e+08 4.19553e+08 4.25783e+08 1 0
431 2 1 4.33648e+08 4.33916e+08 4.34936e+08 4.34978e+08 1 1
432 2 1 4.40232e+08 4.40477e+08 4.41496e+08 4.43531e+08 0 1
433 2 0 4.46389e+08 4.46639e+08 4.47659e+08 4.48208e+08 0 0
434 2 0 4.57827e+08 4.58072e+08 4.59092e+08 4.60833e+08 1 0
435 2 0 4.6828e+08 4.68539e+08 4.69558e+08 4.71559e+08 1 0
436 2 0 4.78988e+08 4.79245e+08 4.80264e+08 4.83948e+08 1 0
437 2 1 4.93001e+08 4.93251e+08 4.9427e+08 4.94362e+08 0 1
438 2 1 4.99748e+08 5.00004e+08 5.01024e+08 5.01204e+08 0 1
439 1 0 5.06352e+08 5.06602e+08 5.07622e+08 5.07905e+08 0 1
440 2 0 5.14191e+08 5.14443e+08 5.15462e+08 5.15699e+08 0 0
441 2 0 5.22741e+08 5.22998e+08 5.24017e+08 5.24719e+08 1 0
442 2 1 5.32042e+08 5.32299e+08 5.33319e+08 5.33409e+08 1 1
443 2 0 5.38271e+08 5.3852e+08 5.3954e+08 5.39558e+08 0 0
444 2 0 5.4862e+08 5.4887e+08 5.49889e+08 5.52385e+08 1 0
445 2 0 5.63954e+08 5.64211e+08 5.65231e+08 5.66459e+08 1 0
446 2 0 5.74283e+08 5.74528e+08 5.75547e+08 5.80045e+08 1 0
447 2 1 5.88586e+08 5.88839e+08 5.89859e+08 5.9232e+08 0 1
448 1 1 6.03124e+08 6.03382e+08 6.04401e+08 6.28516e+08 0 0
449 1 0 6.36487e+08 6.36746e+08 6.37766e+08 6.43089e+08 1 1
450 1 1 6.49538e+08 6.49797e+08 6.50816e+08 6.511e+08 0 0
451 1 1 6.58334e+08 6.58594e+08 6.59614e+08 6.59837e+08 1 0
452 1 1 6.71129e+08 6.71382e+08 6.72402e+08 6.74602e+08 1 0
453 1 0 6.82438e+08 6.82684e+08 6.83704e+08 6.85303e+08 1 1
454 2 0 6.88622e+08 6.88879e+08 6.89899e+08 6.90162e+08 0 0
455 2 1 6.97239e+08 6.97501e+08 6.9852e+08 7.11779e+08 1 1
456 2 1 7.14721e+08 7.14975e+08 7.15994e+08 7.18655e+08 0 1
457 1 0 7.29346e+08 7.29598e+08 7.30618e+08 7.35734e+08 0 1
458 2 0 7.39965e+08 7.40225e+08 7.41245e+08 7.41671e+08 0 0
459 2 1 7.4911e+08 7.49364e+08 7.50383e+08 7.52343e+08 1 1
460 1 1 7.55223e+08 7.55477e+08 7.56497e+08 7.63504e+08 0 0
461 1 0 7.71506e+08 7.7175e+08 7.7277e+08 7.8105e+08 1 1
462 1 1 7.85657e+08 7.85914e+08 7.86933e+08 7.89594e+08 0 0
463 1 1 7.97036e+08 7.973e+08 7.98319e+08 8.00037e+08 1 0
464 1 0 8.07265e+08 8.0752e+08 8.08539e+08 8.17348e+08 1 1
465 1 0 8.20165e+08 8.20425e+08 8.21444e+08 8.23745e+08 0 1
466 2 0 8.2814e+08 8.28383e+08 8.29403e+08 8.31279e+08 0 0
467 2 0 8.38492e+08 8.38737e+08 8.39756e+08 8.41005e+08 1 0
468 2 0 8.48326e+08 8.48575e+08 8.49595e+08 8.54703e+08 1 0
469 2 1 8.62161e+08 8.62414e+08 8.63434e+08 8.68509e+08 1 1
470 2 0 8.71156e+08 8.71414e+08 8.72433e+08 8.72654e+08 0 0
471 2 0 8.80473e+08 8.80732e+08 8.81751e+08 8.88209e+08 1 0
472 2 1 8.96208e+08 8.96458e+08 8.97478e+08 8.97497e+08 1 1
473 1 0 9.02365e+08 9.02619e+08 9.03639e+08 9.0382e+08 0 1
474 1 0 9.08062e+08 9.08312e+08 9.09332e+08 9.10166e+08 0 1
475 1 0 9.13626e+08 9.13881e+08 9.149e+08 9.1798e+08 0 1
476 1 1 9.24543e+08 9.24795e+08 9.25815e+08 9.27421e+08 0 0
477 1 0 9.34893e+08 9.35143e+08 9.36163e+08 9.36223e+08 1 1
478 2 0 9.40855e+08 9.41122e+08 9.42142e+08 9.44711e+08 0 0
479 2 0 9.51958e+08 9.52218e+08 9.53237e+08 9.53297e+08 1 0
480 2 1 9.60751e+08 9.61004e+08 9.62024e+08 9.67447e+08 1 1
481 2 0 9.72822e+08 9.73085e+08 9.74104e+08 9.75306e+08 0 0
482 2 0 9.82398e+08 9.82659e+08 9.83678e+08 9.90806e+08 1 0
483 2 1 9.98143e+08 9.98396e+08 9.99415e+08 1.0444e+09 1 1
484 1 0 1.04742e+09 1.04768e+09 1.0487e+09 1.04874e+09 0 1
485 1 1 1.05644e+09 1.05671e+09 1.05773e+09 1.06186e+09 0 0
486 1 1 1.06909e+09 1.06934e+09 1.07036e+09 1.08239e+09 1 0
487 1 1 1.08957e+09 1.08983e+09 1.09085e+09 1.0928e+09 1 0
488 1 1 1.10036e+09 1.10063e+09 1.10165e+09 1.10436e+09 1 0
489 2 0 1.11175e+09 1.11201e+09 1.11303e+09 1.11396e+09 0 0
490 1 0 1.12141e+09 1.12165e+09 1.12267e+09 1.12289e+09 0 1
491 1 1 1.12589e+09 1.12614e+09 1.12716e+09 1.12722e+09 0 0
492 1 0 1.13495e+09 1.1352e+09 1.13622e+09 1.14276e+09 1 1
493 2 0 1.14551e+09 1.14577e+09 1.14679e+09 1.14967e+09 0 0
494 2 1 1.15682e+09 1.15708e+09 1.1581e+09 1.15891e+09 1 1
495 2 0 1.16357e+09 1.16382e+09 1.16484e+09 1.16894e+09 0 0
496 2 1 1.17633e+09 1.17658e+09 1.1776e+09 1.18021e+09 1 1
497 1 0 1.1831e+09 1.18335e+09 1.18437e+09 1.18572e+09 0 1
498 1 0 1.19082e+09 1.19107e+09 1.19209e+09 1.1924e+09 0 1
499 1 1 1.19547e+09 1.19573e+09 1.19675e+09 1.20054e+09 0 0
500 1 0 1.20797e+09 1.20822e+09 1.20924e+09 1.21402e+09 1 1
501 2 1 1.217e+09 1.21726e+09 1.21828e+09 1.22094e+09 0 1
502 2 0 1.22515e+09 1.22542e+09 1.22643e+09 1.23241e+09 0 0
503 2 0 1.23983e+09 1.24009e+09 1.24111e+09 1.24399e+09 1 0
504 2 0 1.25376e+09 1.25402e+09 1.25504e+09 1.27606e+09 1 0
505 2 0 1.28422e+09 1.28447e+09 1.28549e+09 1.29024e+09 1 0
506 2 0 1.29765e+09 1.2979e+09 1.29892e+09 1.30261e+09 0 0
507 1 0 1.31019e+09 1.31044e+09 1.31146e+09 1.32246e+09 0 1
508 1 0 1.32888e+09 1.32914e+09 1.33016e+09 1.33769e+09 0 1
509 1 0 1.34034e+09 1.34061e+09 1.34163e+09 1.34226e+09 0 1
510 2 0 1.34549e+09 1.34575e+09 1.34677e+09 1.34937e+09 0 0
511 2 0 1.35657e+09 1.35683e+09 1.35785e+09 1.36369e+09 1 0
512 2 0 1.37328e+09 1.37353e+09 1.37455e+09 1.3791e+09 1 0
513 2 0 1.38625e+09 1.3865e+09 1.38752e+09 1.3876e+09 1 0
514 1 0 1.39789e+09 1.39815e+09 1.39917e+09 1.44365e+09 0 1
515 2 0 1.44639e+09 1.44665e+09 1.44766e+09 1.44844e+09 0 0
516 2 0 1.45554e+09 1.45579e+09 1.45681e+09 1.45707e+09 1 0
517 2 0 1.46421e+09 1.46445e+09 1.46547e+09 1.46548e+09 1 0
518 2 0 1.47255e+09 1.4728e+09 1.47382e+09 1.50101e+09 1 0
519 2 0 1.51065e+09 1.5109e+09 1.51192e+09 1.51213e+09 0 0
520 1 0 1.5196e+09 1.51986e+09 1.52088e+09 1.53116e+09 0 1
521 1 0 1.53843e+09 1.53867e+09 1.53969e+09 1.54746e+09 0 1
522 2 0 1.55005e+09 1.55029e+09 1.55131e+09 1.55133e+09 0 0
523 2 0 1.55974e+09 1.56e+09 1.56102e+09 1.56885e+09 1 0
524 2 1 1.5759e+09 1.57615e+09 1.57717e+09 1.58039e+09 1 1
525 2 1 1.58379e+09 1.58405e+09 1.58507e+09 1.58912e+09 0 1
526 1 0 1.59167e+09 1.59193e+09 1.59295e+09 1.59344e+09 0 1
527 1 0 1.59702e+09 1.59727e+09 1.59829e+09 1.59851e+09 0 1
528 1 0 1.60163e+09 1.60188e+09 1.6029e+09 1.60417e+09 0 1
529 1 1 1.60753e+09 1.60778e+09 1.6088e+09 1.61061e+09 0 0
530 1 0 1.61782e+09 1.61807e+09 1.61909e+09 1.62207e+09 1 1
531 2 1 1.62486e+09 1.62511e+09 1.62613e+09 1.63253e+09 0 1
532 2 1 1.63538e+09 1.63564e+09 1.63665e+09 1.63716e+09 0 1
533 1 0 1.63981e+09 1.64005e+09 1.64107e+09 1.66312e+09 0 1
534 1 1 1.66821e+09 1.66846e+09 1.66948e+09 1.6797e+09 0 0
535 1 0 1.68701e+09 1.68726e+09 1.68828e+09 1.71059e+09 1 1
536 1 0 1.71467e+09 1.71492e+09 1.71594e+09 1.71624e+09 0 1
537 1 0 1.72338e+09 1.72362e+09 1.72464e+09 1.73466e+09 0 1
538 1 0 1.73741e+09 1.73768e+09 1.7387e+09 1.739e+09 0 1
539 2 0 1.74346e+09 1.74372e+09 1.74474e+09 1.74911e+09 0 0
540 2 1 1.75662e+09 1.75688e+09 1.7579e+09 1.79216e+09 1 1
541 1 0 1.79499e+09 1.79524e+09 1.79626e+09 1.79715e+09 0 1
542 1 0 1.8009e+09 1.80115e+09 1.80217e+09 1.81682e+09 0 1
543 1 0 1.82024e+09 1.8205e+09 1.82152e+09 1.86456e+09 0 1
544 2 0 1.86728e+09 1.86753e+09 1.86855e+09 1.86865e+09 0 0
545 2 1 1.87606e+09 1.87632e+09 1.87734e+09 1.87738e+09 1 1
546 2 1 1.88025e+09 1.8805e+09 1.88152e+09 1.88654e+09 0 1
547 1 0 1.89192e+09 1.89218e+09 1.89319e+09 1.89409e+09 0 1
548 2 1 1.89686e+09 1.8971e+09 1.89812e+09 1.9018e+09 0 1
549 1 0 1.90446e+09 1.90471e+09 1.90573e+09 1.94802e+09 0 1
550 2 0 1.95094e+09 1.95119e+09 1.95221e+09 1.95361e+09 0 0
551 2 0 1.9608e+09 1.96105e+09 1.96207e+09 1.96324e+09 1 0
552 2 0 1.97071e+09 1.97096e+09 1.97198e+09 1.973e+09 1 0
553 2 0 1.98147e+09 1.98171e+09 1.98273e+09 1.98493e+09 1 0
554 2 0 1.99208e+09 1.99234e+09 1.99336e+09 2.00023e+09 0 0
555 1 1 2.00918e+09 2.00943e+09 2.01045e+09 2.02233e+09 0 0
556 2 1 2.02959e+09 2.02985e+09 2.03087e+09 2.03967e+09 0 1
557 1 0 2.04268e+09 2.04292e+09 2.04394e+09 2.04826e+09 0 1
558 2 0 2.05076e+09 2.05101e+09 2.05203e+09 2.05341e+09 0 0
559 2 0 2.061e+09 2.06125e+09 2.06227e+09 2.06604e+09 1 0
560 2 0 2.07663e+09 2.0769e+09 2.07792e+09 2.08389e+09 1 0
561 2 0 2.09113e+09 2.09139e+09 2.09241e+09 2.09248e+09 1 0
562 2 0 2.09982e+09 2.10007e+09 2.10109e+09 2.10361e+09 0 0
563 2 0 2.11091e+09 2.11117e+09 2.11219e+09 2.11493e+09 0 0
564 2 1 2.12227e+09 2.12252e+09 2.12354e+09 2.14007e+09 0 1
565 1 0 2.14262e+09 2.14288e+09 2.1439e+09 2.14431e+09 0 1
566 2 0 2.14814e+09 2.14839e+09 2.14941e+09 2.15506e+09 0 0
567 2 1 2.16254e+09 2.16279e+09 2.16381e+09 2.17184e+09 1 1
568 1 0 2.17614e+09 2.1764e+09 2.17741e+09 2.17777e+09 0 1
569 1 0 2.18058e+09 2.18083e+09 2.18185e+09 2.19336e+09 0 1
570 2 0 2.19609e+09 2.19635e+09 2.19737e+09 2.20603e+09 0 0
571 2 0 2.21338e+09 2.21363e+09 2.21465e+09 2.22419e+09 1 0
572 2 0 2.23166e+09 2.23191e+09 2.23293e+09 2.24413e+09 1 0
573 2 0 2.25149e+09 2.25174e+09 2.25276e+09 2.2614e+09 1 0
574 2 0 2.26891e+09 2.26915e+09 2.27017e+09 2.27281e+09 0 0
575 1 1 2.27994e+09 2.28019e+09 2.28121e+09 2.2813e+09 0 0
576 1 0 2.28842e+09 2.28866e+09 2.28968e+09 2.31676e+09 0 1
577 1 1 2.32307e+09 2.32332e+09 2.32434e+09 2.32835e+09 0 0
578 1 0 2.33562e+09 2.33588e+09 2.3369e+09 2.34875e+09 1 1
579 1 0 2.35154e+09 2.35178e+09 2.3528e+09 2.35716e+09 0 1
580 2 1 2.35996e+09 2.36021e+09 2.36123e+09 2.36186e+09 0 1
581 2 0 2.36485e+09 2.36511e+09 2.36613e+09 2.37089e+09 0 0
582 2 0 2.37832e+09 2.37858e+09 2.3796e+09 2.38562e+09 1 0
583 2 0 2.39308e+09 2.39334e+09 2.39436e+09 2.39728e+09 1 0
584 2 0 2.40493e+09 2.40518e+09 2.4062e+09 2.4463e+09 1 0
585 2 1 2.45344e+09 2.4537e+09 2.45472e+09 2.46507e+09 0 1
586 2 1 2.46871e+09 2.46896e+09 2.46998e+09 2.47157e+09 0 1
587 2 0 2.47432e+09 2.47456e+09 2.47558e+09 2.47826e+09 0 0
588 2 1 2.48554e+09 2.4858e+09 2.48682e+09 2.48848e+09 1 1
589 1 1 2.49188e+09 2.49213e+09 2.49315e+09 2.51707e+09 0 0
590 1 1 2.52447e+09 2.52473e+09 2.52575e+09 2.54529e+09 1 0
591 1 0 2.55257e+09 2.55281e+09 2.55383e+09 2.55484e+09 1 1
592 1 0 2.55756e+09 2.55781e+09 2.55883e+09 2.5892e+09 0 1
593 1 1 2.592e+09 2.59225e+09 2.59327e+09 2.60431e+09 0 0
594 1 0 2.61156e+09 2.61181e+09 2.61283e+09 2.61298e+09 1 1
595 2 0 2.61593e+09 2.61619e+09 2.61721e+09 2.63453e+09 0 0
596 2 0 2.64177e+09 2.64201e+09 2.64303e+09 2.64426e+09 1 0
597 2 0 2.65212e+09 2.65236e+09 2.65338e+09 2.65338e+09 1 0
598 2 0 2.66065e+09 2.6609e+09 2.66192e+09 2.66468e+09 1 0
599 1 0 2.67181e+09 2.67205e+09 2.67307e+09 2.67972e+09 0 1
600 1 1 2.68484e+09 2.68511e+09 2.68613e+09 2.6876e+09 0 0
601 1 1 2.69508e+09 2.69532e+09 2.69634e+09 2.69724e+09 1 0
602 1 0 2.70449e+09 2.70474e+09 2.70576e+09 2.70767e+09 1 1
603 2 1 2.71041e+09 2.71066e+09 2.71168e+09 2.7145e+09 0 1
604 2 1 2.71743e+09 2.71768e+09 2.7187e+09 2.72259e+09 0 1
605 2 1 2.72528e+09 2.72552e+09 2.72654e+09 2.72954e+09 0 1
606 2 1 2.73226e+09 2.73251e+09 2.73353e+09 2.75066e+09 0 1
607 2 1 2.75369e+09 2.75394e+09 2.75496e+09 2.75949e+09 0 1
608 1 0 2.76565e+09 2.76591e+09 2.76693e+09 2.77272e+09 0 1
609 1 1 2.77636e+09 2.77661e+09 2.77763e+09 2.77934e+09 0 0
610 1 1 2.78667e+09 2.78691e+09 2.78793e+09 2.96957e+09 1 0
