trial trialType response stillTime stimOnset stimOffset respTime correctionTrial correct
001 2 1 8.23912e+06 8.56837e+06 9.58796e+06 4.35498e+07 0 1
002 1 1 4.66023e+07 4.68747e+07 4.78943e+07 4.80334e+07 0 0
003 1 1 5.53247e+07 5.56093e+07 5.66289e+07 5.66644e+07 1 0
004 1 0 6.5877e+07 6.61288e+07 6.71483e+07 6.72188e+07 1 1
005 2 1 8.55009e+07 8.57673e+07 8.67869e+07 8.79594e+07 0 1
006 1 0 9.40442e+07 9.43114e+07 9.5331e+07 9.53401e+07 0 1
007 1 0 9.79313e+07 9.8185e+07 9.92046e+07 9.925e+07 0 1
008 2 1 1.22456e+08 1.22701e+08 1.23721e+08 1.25058e+08 0 1
009 1 0 1.30615e+08 1.30872e+08 1.31891e+08 1.31901e+08 0 1
010 1 0 1.34651e+08 1.34906e+08 1.35925e+08 1.36002e+08 0 1
011 2 1 1.38992e+08 1.39246e+08 1.40265e+08 1.42642e+08 0 1
012 2 1 1.45356e+08 1.45615e+08 1.46635e+08 1.47204e+08 0 1
013 1 0 1.58467e+08 1.58734e+08 1.59753e+08 1.59802e+08 0 1
014 1 0 1.63283e+08 1.63547e+08 1.64567e+08 1.64701e+08 0 1
015 2 1 1.74851e+08 1.75118e+08 1.76138e+08 1.76377e+08 0 1
016 1 0 1.78921e+08 1.79174e+08 1.80194e+08 1.81579e+08 0 1
017 1 0 1.84468e+08 1.84729e+08 1.85749e+08 1.85905e+08 0 1
018 1 1 1.88675e+08 1.88931e+08 1.8995e+08 1.89976e+08 0 0
019 1 0 1.97612e+08 1.97866e+08 1.98886e+08 1.99136e+08 1 1
020 2 1 2.01788e+08 2.02041e+08 2.03061e+08 2.04028e+08 0 1
021 2 1 2.06907e+08 2.07166e+08 2.08186e+08 2.08424e+08 0 1
022 2 1 2.11438e+08 2.11696e+08 2.12716e+08 2.15442e+08 0 1
023 1 0 2.19375e+08 2.19632e+08 2.20651e+08 2.20804e+08 0 1
024 2 1 2.25524e+08 2.25792e+08 2.26812e+08 2.27421e+08 0 1
025 1 0 2.30021e+08 2.30277e+08 2.31297e+08 2.31302e+08 0 1
026 1 0 2.47041e+08 2.47297e+08 2.48317e+08 2.48328e+08 0 1
027 2 1 2.5098e+08 2.51232e+08 2.52252e+08 2.5374e+08 0 1
028 1 0 2.56566e+08 2.56824e+08 2.57844e+08 2.57941e+08 0 1
029 2 1 2.6081e+08 2.61058e+08 2.62078e+08 2.621e+08 0 1
030 2 1 2.66826e+08 2.67076e+08 2.68096e+08 2.69027e+08 0 1
031 1 0 2.74351e+08 2.74613e+08 2.75632e+08 2.75905e+08 0 1
032 2 1 2.78772e+08 2.79021e+08 2.80041e+08 2.8022e+08 0 1
033 2 1 2.83777e+08 2.84035e+08 2.85054e+08 2.86457e+08 0 1
034 1 0 2.89233e+08 2.89478e+08 2.90498e+08 2.90757e+08 0 1
035 1 0 2.96056e+08 2.96312e+08 2.97331e+08 2.97399e+08 0 1
036 1 0 3.01676e+08 3.01925e+08 3.02945e+08 3.02979e+08 0 1
037 1 0 3.11064e+08 3.11313e+08 3.12333e+08 3.12556e+08 0 1
038 1 0 3.15168e+08 3.15418e+08 3.16437e+08 3.17018e+08 0 1
039 2 1 3.19674e+08 3.1992e+08 3.20939e+08 3.2227e+08 0 1
040 2 1 3.25156e+08 3.25413e+08 3.26432e+08 3.26646e+08 0 1
041 1 1 3.35955e+08 3.36201e+08 3.3722e+08 3.38724e+08 0 0
042 1 1 3.46451e+08 3.46705e+08 3.47725e+08 3.48246e+08 1 0
043 1 1 3.63065e+08 3.63324e+08 3.64344e+08 3.6435e+08 1 0
044 1 0 3.72101e+08 3.72351e+08 3.73371e+08 3.73384e+08 1 1
045 2 0 3.80005e+08 3.80275e+08 3.81294e+08 3.81438e+08 0 0
046 2 0 3.89912e+08 3.90168e+08 3.91188e+08 3.9122e+08 1 0
047 2 1 3.98491e+08 3.98747e+08 3.99767e+08 4.00664e+08 1 1
048 1 1 4.05925e+08 4.06176e+08 4.07195e+08 4.07681e+08 0 0
049 1 1 4.14913e+08 4.15158e+08 4.16178e+08 4.16192e+08 1 0
050 1 0 4.24233e+08 4.24493e+08 4.25513e+08 4.25517e+08 1 1
051 2 1 4.27991e+08 4.28241e+08 4.29261e+08 4.29847e+08 0 1
052 1 0 4.32569e+08 4.32818e+08 4.33838e+08 4.34332e+08 0 1
053 2 1 4.39102e+08 4.39359e+08 4.40379e+08 4.40987e+08 0 1
054 1 0 4.55531e+08 4.55783e+08 4.56802e+08 4.56807e+08 0 1
055 2 1 4.60875e+08 4.61136e+08 4.62155e+08 4.62304e+08 0 1
056 1 0 4.7557e+08 4.75819e+08 4.76838e+08 4.77112e+08 0 1
057 2 1 4.79789e+08 4.80045e+08 4.81064e+08 4.82681e+08 0 1
058 1 0 4.88728e+08 4.88988e+08 4.90007e+08 4.90382e+08 0 1
059 1 0 4.93264e+08 4.93511e+08 4.9453e+08 4.94687e+08 0 1
060 1 1 4.9767e+08 4.9792e+08 4.98939e+08 5.00514e+08 0 0
061 1 0 5.07768e+08 5.08017e+08 5.09036e+08 5.09216e+08 1 1
062 2 1 5.18674e+08 5.18918e+08 5.19938e+08 5.20704e+08 0 1
063 2 1 5.23314e+08 5.2357e+08 5.2459e+08 5.3414e+08 0 1
064 1 0 5.36745e+08 5.37003e+08 5.38022e+08 5.38165e+08 0 1
065 1 0 5.44314e+08 5.44573e+08 5.45593e+08 5.46309e+08 0 1
066 1 0 5.49231e+08 5.49473e+08 5.50493e+08 5.51453e+08 0 1
067 2 1 5.54504e+08 5.54773e+08 5.55793e+08 5.56217e+08 0 1
068 1 0 5.5919e+08 5.59443e+08 5.60463e+08 5.61255e+08 0 1
069 1 1 5.6534e+08 5.65594e+08 5.66613e+08 5.68169e+08 0 0
070 1 0 5.75666e+08 5.7591e+08 5.7693e+08 5.77429e+08 1 1
071 2 1 5.84064e+08 5.84314e+08 5.85334e+08 5.86817e+08 0 1
072 2 0 6.02712e+08 6.02958e+08 6.03978e+08 6.04007e+08 0 0
073 2 1 6.1456e+08 6.14804e+08 6.15824e+08 6.17649e+08 1 1
074 1 0 6.20228e+08 6.20487e+08 6.21507e+08 6.22307e+08 0 1
075 2 1 6.26934e+08 6.27197e+08 6.28217e+08 6.29219e+08 0 1
076 2 1 6.36199e+08 6.36452e+08 6.37472e+08 6.37953e+08 0 1
077 2 0 6.40596e+08 6.40859e+08 6.41878e+08 6.42042e+08 0 0
078 2 0 6.4911e+08 6.49364e+08 6.50384e+08 6.50755e+08 1 0
079 2 1 6.58219e+08 6.58464e+08 6.59484e+08 6.60036e+08 1 1
080 1 0 6.65021e+08 6.65282e+08 6.66302e+08 6.66372e+08 0 1
081 2 1 6.70181e+08 6.7044e+08 6.71459e+08 6.7343e+08 0 1
082 1 0 6.77042e+08 6.77296e+08 6.78315e+08 6.78864e+08 0 1
083 2 1 6.81496e+08 6.81746e+08 6.82766e+08 6.82778e+08 0 1
084 1 1 6.8899e+08 6.89247e+08 6.90267e+08 6.92104e+08 0 0
085 1 0 6.99156e+08 6.99413e+08 7.00433e+08 7.00488e+08 1 1
086 2 1 7.05468e+08 7.05719e+08 7.06739e+08 7.08303e+08 0 1
087 1 1 7.10999e+08 7.11251e+08 7.12271e+08 7.12392e+08 0 0
088 1 0 7.21405e+08 7.21657e+08 7.22676e+08 7.22752e+08 1 1
089 2 1 7.2569e+08 7.25947e+08 7.26967e+08 7.27305e+08 0 1
090 2 1 7.3605e+08 7.36298e+08 7.37318e+08 7.37846e+08 0 1
091 2 1 7.42466e+08 7.42713e+08 7.43733e+08 7.44562e+08 0 1
092 2 1 7.47172e+08 7.47426e+08 7.48446e+08 7.51149e+08 0 1
093 2 1 7.5375e+08 7.53998e+08 7.55018e+08 7.56558e+08 0 1
094 2 1 7.62258e+08 7.62508e+08 7.63527e+08 7.67353e+08 0 1
095 1 0 7.70187e+08 7.70436e+08 7.71456e+08 7.72818e+08 0 1
096 1 1 7.75353e+08 7.75619e+08 7.76638e+08 7.76655e+08 0 0
097 1 0 7.85645e+08 7.85896e+08 7.86915e+08 7.86923e+08 1 1
098 1 0 7.89741e+08 7.89987e+08 7.91006e+08 7.91803e+08 0 1
099 1 0 7.94714e+08 7.94969e+08 7.95989e+08 7.96125e+08 0 1
100 1 0 8.01397e+08 8.01642e+08 8.02662e+08 8.02718e+08 0 1
101 1 1 8.0519e+08 8.05444e+08 8.06464e+08 8.07211e+08 0 0
102 1 0 8.15674e+08 8.15926e+08 8.16946e+08 8.17432e+08 1 1
103 1 0 8.20279e+08 8.20533e+08 8.21552e+08 8.22437e+08 0 1
104 2 1 8.25266e+08 8.25514e+08 8.26533e+08 8.28306e+08 0 1
105 2 1 8.33248e+08 8.33505e+08 8.34525e+08 8.35201e+08 0 1
106 2 0 8.42311e+08 8.42557e+08 8.43577e+08 8.43595e+08 0 0
107 2 1 8.52262e+08 8.52508e+08 8.53528e+08 8.55486e+08 1 1
108 1 0 8.62554e+08 8.62809e+08 8.63829e+08 8.63987e+08 0 1
109 1 1 8.69743e+08 8.69988e+08 8.71007e+08 8.7194e+08 0 0
110 1 1 8.79894e+08 8.80145e+08 8.81164e+08 8.85514e+08 1 0
111 1 0 8.92938e+08 8.93193e+08 8.94212e+08 8.95149e+08 1 1
112 2 1 8.97843e+08 8.98095e+08 8.99115e+08 8.99433e+08 0 1
113 2 1 9.0216e+08 9.02412e+08 9.03432e+08 9.04403e+08 0 1
114 1 0 9.11653e+08 9.1191e+08 9.1293e+08 9.13901e+08 0 1
115 2 0 9.18005e+08 9.18257e+08 9.19276e+08 9.20571e+08 0 0
116 2 1 9.28799e+08 9.29043e+08 9.30062e+08 9.31075e+08 1 1
117 2 1 9.36153e+08 9.36397e+08 9.37416e+08 9.38464e+08 0 1
118 1 0 9.46157e+08 9.46412e+08 9.47431e+08 9.48253e+08 0 1
119 2 1 9.51651e+08 9.51904e+08 9.52924e+08 9.52935e+08 0 1
120 2 1 9.58134e+08 9.58379e+08 9.59398e+08 9.59908e+08 0 1
121 2 1 9.62732e+08 9.62988e+08 9.64007e+08 9.64165e+08 0 1
122 2 1 9.71547e+08 9.71806e+08 9.72825e+08 9.72837e+08 0 1
123 1 0 9.76734e+08 9.7698e+08 9.77999e+08 9.78779e+08 0 1
124 1 0 9.81281e+08 9.81526e+08 9.82546e+08 9.8297e+08 0 1
125 2 0 9.9145e+08 9.91699e+08 9.92718e+08 9.92783e+08 0 0
126 2 1 1.00148e+09 1.00173e+09 1.00275e+09 1.00377e+09 1 1
127 1 0 1.00821e+09 1.00846e+09 1.00948e+09 1.00966e+09 0 1
128 2 0 1.01219e+09 1.01244e+09 1.01346e+09 1.01391e+09 0 0
129 2 1 1.02591e+09 1.02616e+09 1.02717e+09 1.02776e+09 1 1
130 2 1 1.03632e+09 1.03658e+09 1.0376e+09 1.03975e+09 0 1
131 1 0 1.04267e+09 1.04293e+09 1.04395e+09 1.04473e+09 0 1
132 1 0 1.04759e+09 1.04784e+09 1.04886e+09 1.05024e+09 0 1
133 2 1 1.05281e+09 1.05307e+09 1.05408e+09 1.05496e+09 0 1
134 1 0 1.06162e+09 1.06188e+09 1.0629e+09 1.06358e+09 0 1
135 1 0 1.06811e+09 1.06836e+09 1.06938e+09 1.0694e+09 0 1
136 1 0 1.07607e+09 1.07632e+09 1.07734e+09 1.07736e+09 0 1
137 2 1 1.08103e+09 1.08129e+09 1.08231e+09 1.08239e+09 0 1
138 2 1 1.08785e+09 1.0881e+09 1.08912e+09 1.08978e+09 0 1
139 1 0 1.09243e+09 1.09268e+09 1.0937e+09 1.09376e+09 0 1
140 1 0 1.09664e+09 1.0969e+09 1.09792e+09 1.0987e+09 0 1
141 1 0 1.10153e+09 1.10178e+09 1.1028e+09 1.1041e+09 0 1
142 1 1 1.10691e+09 1.10717e+09 1.10819e+09 1.10931e+09 0 0
143 1 1 1.11858e+09 1.11883e+09 1.11985e+09 1.12088e+09 1 0
144 1 0 1.12888e+09 1.12914e+09 1.13016e+09 1.13046e+09 1 1
145 2 1 1.13307e+09 1.13332e+09 1.13434e+09 1.13437e+09 0 1
146 2 1 1.13932e+09 1.13958e+09 1.1406e+09 1.14063e+09 0 1
147 2 1 1.14496e+09 1.14521e+09 1.14623e+09 1.14821e+09 0 1
148 1 1 1.15197e+09 1.15222e+09 1.15324e+09 1.15337e+09 0 0
149 1 0 1.16074e+09 1.161e+09 1.16201e+09 1.16211e+09 1 1
150 1 0 1.1646e+09 1.16485e+09 1.16587e+09 1.16596e+09 0 1
151 2 1 1.16892e+09 1.16916e+09 1.17018e+09 1.17024e+09 0 1
152 1 0 1.17566e+09 1.17592e+09 1.17694e+09 1.17696e+09 0 1
153 1 0 1.18332e+09 1.18357e+09 1.18459e+09 1.18459e+09 0 1
154 2 0 1.19137e+09 1.19162e+09 1.19264e+09 1.19819e+09 0 0
155 2 0 1.20749e+09 1.20773e+09 1.20875e+09 1.21154e+09 1 0
156 2 1 1.21881e+09 1.21906e+09 1.22008e+09 1.22068e+09 1 1
157 2 1 1.22713e+09 1.22739e+09 1.22841e+09 1.22842e+09 0 1
158 2 0 1.23116e+09 1.23142e+09 1.23244e+09 1.23265e+09 0 0
159 2 1 1.24009e+09 1.24033e+09 1.24135e+09 1.24146e+09 1 1
160 1 0 1.24407e+09 1.24432e+09 1.24534e+09 1.2462e+09 0 1
161 1 0 1.24882e+09 1.24906e+09 1.25008e+09 1.25021e+09 0 1
162 2 0 1.25269e+09 1.25294e+09 1.25396e+09 1.25462e+09 0 0
163 2 1 1.26289e+09 1.26314e+09 1.26415e+09 1.26647e+09 1 1
164 2 1 1.26923e+09 1.26947e+09 1.27049e+09 1.27051e+09 0 1
165 1 1 1.27467e+09 1.27492e+09 1.27594e+09 1.2823e+09 0 0
166 1 1 1.28943e+09 1.28968e+09 1.2907e+09 1.29075e+09 1 0
167 1 1 1.29827e+09 1.29851e+09 1.29953e+09 1.29957e+09 1 0
168 1 1 1.30995e+09 1.3102e+09 1.31122e+09 1.31153e+09 1 0
169 1 0 1.31898e+09 1.31923e+09 1.32025e+09 1.32059e+09 0 1
170 1 0 1.3231e+09 1.32335e+09 1.32437e+09 1.32512e+09 0 1
171 2 0 1.32783e+09 1.32808e+09 1.3291e+09 1.32965e+09 0 0
172 2 1 1.33719e+09 1.33744e+09 1.33846e+09 1.33896e+09 1 1
173 1 1 1.34181e+09 1.34207e+09 1.34309e+09 1.34316e+09 0 0
174 1 0 1.35075e+09 1.35099e+09 1.35201e+09 1.35234e+09 1 1
175 1 0 1.35518e+09 1.35544e+09 1.35646e+09 1.3565e+09 0 1
176 2 1 1.36174e+09 1.362e+09 1.36302e+09 1.36345e+09 0 1
177 1 0 1.36945e+09 1.3697e+09 1.37072e+09 1.37167e+09 0 1
178 2 1 1.37432e+09 1.37458e+09 1.3756e+09 1.3778e+09 0 1
179 2 0 1.38042e+09 1.38068e+09 1.3817e+09 1.38206e+09 0 0
180 2 0 1.39083e+09 1.39108e+09 1.3921e+09 1.39239e+09 1 0
181 2 1 1.40109e+09 1.40133e+09 1.40235e+09 1.40309e+09 1 1
182 1 0 1.40923e+09 1.40947e+09 1.41049e+09 1.4105e+09 0 1
183 1 1 1.41762e+09 1.41787e+09 1.41889e+09 1.41904e+09 0 0
184 1 1 1.42868e+09 1.42893e+09 1.42995e+09 1.43142e+09 1 0
185 1 1 1.44011e+09 1.44035e+09 1.44137e+09 1.44492e+09 1 0
186 1 1 1.45368e+09 1.45393e+09 1.45494e+09 1.45681e+09 1 0
187 1 1 1.4644e+09 1.46464e+09 1.46566e+09 1.46573e+09 0 0
188 1 0 1.47555e+09 1.4758e+09 1.47682e+09 1.47734e+09 0 1
189 2 1 1.47995e+09 1.48019e+09 1.48121e+09 1.48122e+09 0 1
190 2 1 1.48503e+09 1.48527e+09 1.48629e+09 1.48718e+09 0 1
191 1 1 1.48983e+09 1.49008e+09 1.4911e+09 1.49141e+09 0 0
192 1 0 1.49891e+09 1.49916e+09 1.50018e+09 1.50027e+09 1 1
193 2 1 1.50301e+09 1.50326e+09 1.50428e+09 1.50458e+09 0 1
194 2 1 1.50996e+09 1.51022e+09 1.51124e+09 1.51127e+09 0 1
195 2 1 1.51389e+09 1.51415e+09 1.51517e+09 1.51895e+09 0 1
196 2 1 1.52148e+09 1.52173e+09 1.52275e+09 1.52289e+09 0 1
197 1 1 1.52927e+09 1.52953e+09 1.53055e+09 1.53095e+09 0 0
198 1 0 1.53914e+09 1.5394e+09 1.54042e+09 1.54107e+09 1 1
199 2 1 1.54373e+09 1.54399e+09 1.54501e+09 1.5451e+09 0 1
200 1 0 1.55092e+09 1.55116e+09 1.55218e+09 1.55258e+09 0 1
201 2 1 1.55825e+09 1.55851e+09 1.55953e+09 1.56019e+09 0 1
202 2 1 1.56336e+09 1.56362e+09 1.56463e+09 1.56604e+09 0 1
203 2 1 1.57329e+09 1.57355e+09 1.57457e+09 1.57461e+09 0 1
204 1 1 1.5775e+09 1.57774e+09 1.57876e+09 1.57913e+09 0 0
205 1 0 1.58669e+09 1.58694e+09 1.58796e+09 1.58809e+09 1 1
206 1 0 1.59089e+09 1.59115e+09 1.59217e+09 1.59238e+09 0 1
207 2 0 1.59553e+09 1.59578e+09 1.5968e+09 1.59686e+09 0 0
208 2 1 1.6043e+09 1.60456e+09 1.60558e+09 1.60628e+09 1 1
209 2 1 1.60895e+09 1.60921e+09 1.61023e+09 1.61122e+09 0 1
210 1 0 1.61761e+09 1.61785e+09 1.61887e+09 1.61942e+09 0 1
211 1 0 1.6245e+09 1.62475e+09 1.62576e+09 1.62579e+09 0 1
212 2 1 1.62834e+09 1.6286e+09 1.62962e+09 1.63057e+09 0 1
213 1 0 1.63929e+09 1.63954e+09 1.64056e+09 1.64125e+09 0 1
214 2 1 1.64487e+09 1.64511e+09 1.64613e+09 1.64662e+09 0 1
215 2 1 1.65248e+09 1.65272e+09 1.65374e+09 1.65448e+09 0 1
216 1 0 1.66025e+09 1.66049e+09 1.66151e+09 1.66184e+09 0 1
217 2 1 1.66726e+09 1.66752e+09 1.66854e+09 1.66883e+09 0 1
218 2 0 1.67169e+09 1.67194e+09 1.67296e+09 1.67322e+09 0 0
219 2 0 1.68089e+09 1.68113e+09 1.68215e+09 1.68761e+09 1 0
220 2 0 1.69477e+09 1.69501e+09 1.69603e+09 1.69766e+09 1 0
221 2 1 1.70515e+09 1.70539e+09 1.70641e+09 1.70649e+09 1 1
222 2 1 1.7132e+09 1.71344e+09 1.71446e+09 1.74141e+09 0 1
223 2 1 1.74758e+09 1.74783e+09 1.74885e+09 1.75351e+09 0 1
224 2 1 1.75628e+09 1.75653e+09 1.75755e+09 1.76151e+09 0 1
225 2 1 1.76637e+09 1.76663e+09 1.76765e+09 1.76769e+09 0 1
226 1 0 1.77207e+09 1.77231e+09 1.77333e+09 1.77386e+09 0 1
227 2 1 1.78359e+09 1.78385e+09 1.78487e+09 1.78689e+09 0 1
228 2 1 1.79198e+09 1.79223e+09 1.79325e+09 1.79505e+09 0 1
229 1 0 1.80034e+09 1.8006e+09 1.80162e+09 1.80261e+09 0 1
230 1 0 1.80541e+09 1.80566e+09 1.80668e+09 1.80729e+09 0 1
231 2 0 1.81016e+09 1.81041e+09 1.81143e+09 1.81168e+09 0 0
232 2 0 1.81878e+09 1.81902e+09 1.82004e+09 1.82186e+09 1 0
233 2 1 1.82898e+09 1.82924e+09 1.83026e+09 1.83221e+09 1 1
234 1 0 1.83839e+09 1.83864e+09 1.83966e+09 1.84012e+09 0 1
235 2 1 1.84286e+09 1.84311e+09 1.84413e+09 1.84415e+09 0 1
236 1 0 1.85342e+09 1.85367e+09 1.85469e+09 1.85497e+09 0 1
237 2 0 1.85917e+09 1.85941e+09 1.86043e+09 1.86062e+09 0 0
238 2 1 1.86891e+09 1.86915e+09 1.87017e+09 1.87166e+09 1 1
239 2 1 1.87435e+09 1.8746e+09 1.87562e+09 1.87564e+09 0 1
240 2 1 1.88154e+09 1.88181e+09 1.88283e+09 1.88516e+09 0 1
241 1 0 1.89028e+09 1.89053e+09 1.89155e+09 1.8916e+09 0 1
242 2 1 1.89456e+09 1.89481e+09 1.89583e+09 1.89585e+09 0 1
243 1 0 1.90136e+09 1.90162e+09 1.90264e+09 1.90392e+09 0 1
244 1 0 1.90777e+09 1.90801e+09 1.90903e+09 1.911e+09 0 1
245 1 1 1.91758e+09 1.91784e+09 1.91886e+09 1.92204e+09 0 0
246 1 0 1.93078e+09 1.93102e+09 1.93204e+09 1.93215e+09 1 1
247 1 1 1.93483e+09 1.93507e+09 1.93609e+09 1.93615e+09 0 0
248 1 1 1.94501e+09 1.94526e+09 1.94628e+09 1.94981e+09 1 0
249 1 0 1.95709e+09 1.95734e+09 1.95836e+09 1.95855e+09 1 1
250 1 0 1.96139e+09 1.96164e+09 1.96266e+09 1.96267e+09 0 1
251 1 0 1.96553e+09 1.96578e+09 1.9668e+09 1.9678e+09 0 1
252 2 0 1.97045e+09 1.9707e+09 1.97172e+09 1.97175e+09 0 0
253 2 1 1.97998e+09 1.98022e+09 1.98124e+09 1.98128e+09 1 1
254 2 1 1.98428e+09 1.98453e+09 1.98555e+09 1.9857e+09 0 1
255 1 0 1.98834e+09 1.9886e+09 1.98962e+09 1.99e+09 0 1
256 1 0 1.99671e+09 1.99696e+09 1.99798e+09 1.99856e+09 0 1
257 1 0 2.00127e+09 2.00152e+09 2.00254e+09 2.0026e+09 0 1
258 2 1 2.00534e+09 2.00558e+09 2.0066e+09 2.00779e+09 0 1
259 2 0 2.01187e+09 2.01212e+09 2.01314e+09 2.01501e+09 0 0
260 2 1 2.02293e+09 2.02317e+09 2.02419e+09 2.02563e+09 1 1
261 1 0 2.03091e+09 2.03116e+09 2.03218e+09 2.03228e+09 0 1
262 1 0 2.03832e+09 2.03858e+09 2.0396e+09 2.0402e+09 0 1
263 1 0 2.04433e+09 2.04459e+09 2.04561e+09 2.0461e+09 0 1
264 2 1 2.04878e+09 2.04902e+09 2.05004e+09 2.05016e+09 0 1
265 2 0 2.05558e+09 2.05583e+09 2.05685e+09 2.05689e+09 0 0
266 2 1 2.06701e+09 2.06727e+09 2.06829e+09 2.07006e+09 1 1
267 1 0 2.07261e+09 2.07287e+09 2.07388e+09 2.07467e+09 0 1
268 2 1 2.07743e+09 2.07768e+09 2.0787e+09 2.07902e+09 0 1
269 2 1 2.08401e+09 2.08425e+09 2.08527e+09 2.08869e+09 0 1
270 2 1 2.09444e+09 2.0947e+09 2.09572e+09 2.09677e+09 0 1
271 2 1 2.0996e+09 2.09985e+09 2.10087e+09 2.10221e+09 0 1
272 2 1 2.10642e+09 2.10667e+09 2.10769e+09 2.10939e+09 0 1
273 2 1 2.1162e+09 2.11644e+09 2.11746e+09 2.11885e+09 0 1
274 2 1 2.1226e+09 2.12286e+09 2.12388e+09 2.12419e+09 0 1
275 1 0 2.12896e+09 2.12922e+09 2.13024e+09 2.13042e+09 0 1
276 1 0 2.13302e+09 2.13327e+09 2.13429e+09 2.13454e+09 0 1
277 2 1 2.13928e+09 2.13954e+09 2.14056e+09 2.14059e+09 0 1
278 1 0 2.14332e+09 2.14357e+09 2.14459e+09 2.14509e+09 0 1
279 2 1 2.15283e+09 2.15308e+09 2.1541e+09 2.15449e+09 0 1
280 1 0 2.15714e+09 2.1574e+09 2.15842e+09 2.15884e+09 0 1
281 2 0 2.16183e+09 2.16209e+09 2.1631e+09 2.16361e+09 0 0
282 2 1 2.17427e+09 2.17452e+09 2.17554e+09 2.17873e+09 1 1
283 2 1 2.18131e+09 2.18156e+09 2.18258e+09 2.18293e+09 0 1
284 1 0 2.18816e+09 2.18842e+09 2.18944e+09 2.19011e+09 0 1
285 2 0 2.19263e+09 2.19289e+09 2.19391e+09 2.19396e+09 0 0
286 2 1 2.20147e+09 2.20172e+09 2.20274e+09 2.20355e+09 1 1
287 1 0 2.20629e+09 2.20655e+09 2.20757e+09 2.20771e+09 0 1
288 1 0 2.21027e+09 2.21053e+09 2.21155e+09 2.21197e+09 0 1
289 2 1 2.21718e+09 2.21743e+09 2.21845e+09 2.22004e+09 0 1
290 2 0 2.2244e+09 2.22467e+09 2.22568e+09 2.22572e+09 0 0
291 2 1 2.23297e+09 2.23323e+09 2.23425e+09 2.23651e+09 1 1
292 1 0 2.23916e+09 2.23942e+09 2.24044e+09 2.24044e+09 0 1
293 1 1 2.24301e+09 2.24326e+09 2.24428e+09 2.24432e+09 0 0
294 1 0 2.25292e+09 2.25317e+09 2.25419e+09 2.25423e+09 1 1
295 1 0 2.25718e+09 2.25744e+09 2.25846e+09 2.25974e+09 0 1
296 1 0 2.26236e+09 2.26261e+09 2.26363e+09 2.26374e+09 0 1
297 1 0 2.27029e+09 2.27054e+09 2.27156e+09 2.27169e+09 0 1
298 2 1 2.27452e+09 2.27477e+09 2.27579e+09 2.27588e+09 0 1
299 1 0 2.28292e+09 2.28319e+09 2.28421e+09 2.28458e+09 0 1
300 1 0 2.2873e+09 2.28756e+09 2.28858e+09 2.28879e+09 0 1
301 2 1 2.29134e+09 2.29159e+09 2.29261e+09 2.29432e+09 0 1
302 1 0 2.30229e+09 2.30253e+09 2.30355e+09 2.30364e+09 0 1
303 2 1 2.30627e+09 2.30653e+09 2.30755e+09 2.30864e+09 0 1
304 1 0 2.31377e+09 2.31403e+09 2.31505e+09 2.31511e+09 0 1
305 2 1 2.318e+09 2.31825e+09 2.31927e+09 2.32277e+09 0 1
306 2 1 2.32573e+09 2.32598e+09 2.327e+09 2.32897e+09 0 1
307 1 0 2.33186e+09 2.33211e+09 2.33313e+09 2.33314e+09 0 1
308 1 0 2.33594e+09 2.33618e+09 2.3372e+09 2.33737e+09 0 1
309 2 0 2.34203e+09 2.34227e+09 2.34329e+09 2.34331e+09 0 0
310 2 1 2.35083e+09 2.3511e+09 2.35212e+09 2.35324e+09 1 1
311 1 0 2.35593e+09 2.35618e+09 2.3572e+09 2.35734e+09 0 1
312 1 0 2.36467e+09 2.36493e+09 2.36595e+09 2.36598e+09 0 1
313 2 1 2.36856e+09 2.36881e+09 2.36983e+09 2.37118e+09 0 1
314 1 0 2.37501e+09 2.37526e+09 2.37627e+09 2.37665e+09 0 1
315 2 1 2.38354e+09 2.38379e+09 2.38481e+09 2.38542e+09 0 1
316 1 1 2.3893e+09 2.38954e+09 2.39056e+09 2.3925e+09 0 0
317 1 0 2.40121e+09 2.40147e+09 2.40249e+09 2.4025e+09 1 1
318 2 1 2.40523e+09 2.40547e+09 2.40649e+09 2.41813e+09 0 1
319 2 0 2.42103e+09 2.42128e+09 2.4223e+09 2.42983e+09 0 0
320 2 1 2.43696e+09 2.43722e+09 2.43824e+09 2.45474e+09 1 1
321 1 0 2.45758e+09 2.45783e+09 2.45885e+09 2.45906e+09 0 1
322 1 0 2.4618e+09 2.46206e+09 2.46308e+09 2.46328e+09 0 1
323 2 1 2.46593e+09 2.46619e+09 2.46721e+09 2.46856e+09 0 1
324 2 1 2.47287e+09 2.47312e+09 2.47414e+09 2.47429e+09 0 1
325 2 1 2.47702e+09 2.47727e+09 2.47829e+09 2.49264e+09 0 1
326 2 1 2.49544e+09 2.49569e+09 2.49671e+09 2.49976e+09 0 1
327 1 1 2.50243e+09 2.50269e+09 2.50371e+09 2.52091e+09 0 0
328 1 0 2.52815e+09 2.52839e+09 2.52941e+09 2.53032e+09 1 1
329 1 0 2.53287e+09 2.53312e+09 2.53413e+09 2.53416e+09 0 1
330 2 0 2.53677e+09 2.53702e+09 2.53804e+09 2.53816e+09 0 0
331 2 1 2.54528e+09 2.54554e+09 2.54656e+09 2.55041e+09 1 1
332 2 1 2.55332e+09 2.55357e+09 2.55459e+09 2.55555e+09 0 1
333 1 0 2.55843e+09 2.55868e+09 2.5597e+09 2.55984e+09 0 1
334 1 0 2.56437e+09 2.56462e+09 2.56564e+09 2.56576e+09 0 1
335 2 1 2.56863e+09 2.56889e+09 2.56991e+09 2.56994e+09 0 1
336 2 1 2.57266e+09 2.57291e+09 2.57393e+09 2.61471e+09 0 1
337 2 1 2.61749e+09 2.61773e+09 2.61875e+09 2.62309e+09 0 1
338 1 1 2.62799e+09 2.62824e+09 2.62926e+09 2.63027e+09 0 0
339 1 0 2.6391e+09 2.63936e+09 2.64038e+09 2.64039e+09 1 1
340 2 1 2.64335e+09 2.64361e+09 2.64463e+09 2.64825e+09 0 1
341 2 1 2.65124e+09 2.65149e+09 2.65251e+09 2.65305e+09 0 1
342 2 1 2.6571e+09 2.65735e+09 2.65837e+09 2.66162e+09 0 1
343 1 0 2.66459e+09 2.66484e+09 2.66586e+09 2.66697e+09 0 1
344 1 1 2.66954e+09 2.66979e+09 2.6708e+09 2.67125e+09 0 0
345 1 1 2.6784e+09 2.67865e+09 2.67967e+09 2.68205e+09 1 0
346 1 0 2.68936e+09 2.6896e+09 2.69062e+09 2.69174e+09 1 1
347 1 1 2.69555e+09 2.6958e+09 2.69682e+09 2.69705e+09 0 0
348 1 1 2.70451e+09 2.70476e+09 2.70578e+09 2.7058e+09 1 0
349 1 0 2.71287e+09 2.71312e+09 2.71414e+09 2.71997e+09 1 1
350 2 1 2.72357e+09 2.72382e+09 2.72484e+09 2.72788e+09 0 1
351 2 1 2.73053e+09 2.73078e+09 2.7318e+09 2.73182e+09 0 1
352 2 1 2.73446e+09 2.73471e+09 2.73573e+09 2.73577e+09 0 1
353 1 0 2.73838e+09 2.73863e+09 2.73965e+09 2.73974e+09 0 1
354 1 1 2.74262e+09 2.74288e+09 2.7439e+09 2.744e+09 0 0
355 1 0 2.75138e+09 2.75164e+09 2.75266e+09 2.75416e+09 1 1
356 1 0 2.75711e+09 2.75736e+09 2.75838e+09 2.75849e+09 0 1
357 1 0 2.76137e+09 2.76162e+09 2.76264e+09 2.76284e+09 0 1
358 1 1 2.76545e+09 2.7657e+09 2.76672e+09 2.76684e+09 0 0
359 1 0 2.77411e+09 2.77436e+09 2.77538e+09 2.7754e+09 1 1
360 1 1 2.77795e+09 2.7782e+09 2.77922e+09 2.77996e+09 0 0
361 1 0 2.78706e+09 2.78732e+09 2.78834e+09 2.80899e+09 1 1
362 2 1 2.8116e+09 2.81185e+09 2.81287e+09 2.81451e+09 0 1
363 1 0 2.81744e+09 2.8177e+09 2.81872e+09 2.81949e+09 0 1
364 2 1 2.82215e+09 2.82241e+09 2.82343e+09 2.8271e+09 0 1
365 1 1 2.83003e+09 2.83028e+09 2.8313e+09 2.83164e+09 0 0
366 1 1 2.83915e+09 2.8394e+09 2.84042e+09 2.84043e+09 1 0
367 1 0 2.8477e+09 2.84795e+09 2.84897e+09 2.86031e+09 1 1
368 1 0 2.8631e+09 2.86335e+09 2.86437e+09 2.86455e+09 0 1
369 2 1 2.86796e+09 2.86821e+09 2.86923e+09 2.87056e+09 0 1
370 1 1 2.87338e+09 2.87363e+09 2.87465e+09 2.87467e+09 0 0
371 1 0 2.88218e+09 2.88244e+09 2.88346e+09 2.88784e+09 1 1
372 1 0 2.89048e+09 2.89075e+09 2.89176e+09 2.89463e+09 0 1
373 2 0 2.89741e+09 2.89765e+09 2.89867e+09 2.90056e+09 0 0
374 2 0 2.90799e+09 2.90824e+09 2.90926e+09 2.90977e+09 1 0
375 2 0 2.91696e+09 2.91721e+09 2.91823e+09 2.9194e+09 1 0
376 2 0 2.9269e+09 2.92715e+09 2.92817e+09 2.9391e+09 1 0
377 1 0 2.94659e+09 2.94685e+09 2.94787e+09 2.98102e+09 0 1
378 1 0 2.98479e+09 2.98503e+09 2.98605e+09 2.98925e+09 0 1
379 2 1 2.99281e+09 2.99305e+09 2.99407e+09 3.02035e+09 0 1
380 2 0 3.02381e+09 3.02406e+09 3.02508e+09 3.15773e+09 0 0
381 2 0 3.16523e+09 3.1655e+09 3.16652e+09 3.18686e+09 1 0
382 2 0 3.19399e+09 3.19424e+09 3.19526e+09 3.20877e+09 1 0
383 2 0 3.2162e+09 3.21645e+09 3.21747e+09 3.22208e+09 1 0
384 2 0 3.22958e+09 3.22983e+09 3.23085e+09 3.23318e+09 0 0
385 1 0 3.24072e+09 3.24097e+09 3.24199e+09 3.24255e+09 0 1
386 2 0 3.2453e+09 3.24556e+09 3.24657e+09 3.27234e+09 0 0
387 2 0 3.28073e+09 3.28098e+09 3.282e+09 3.28276e+09 1 0
388 2 0 3.29e+09 3.29025e+09 3.29127e+09 3.31385e+09 1 0
389 2 1 3.32128e+09 3.32153e+09 3.32255e+09 3.38483e+09 1 1
390 2 0 3.38738e+09 3.38763e+09 3.38865e+09 3.39674e+09 0 0
391 2 0 3.40381e+09 3.40406e+09 3.40508e+09 3.408e+09 1 0
392 2 0 3.41665e+09 3.4169e+09 3.41792e+09 4.24859e+09 1 0
