trial trialType response stillTime stimOnset stimOffset respTime correctionTrial correct
001 1 1 1.6085e+07 1.64172e+07 1.74368e+07 1.80351e+07 0 0
002 1 1 2.61509e+07 2.6423e+07 2.74426e+07 2.85095e+07 1 0
003 1 0 3.65322e+07 3.68179e+07 3.78375e+07 3.7885e+07 1 1
004 2 1 4.95596e+07 4.98226e+07 5.08422e+07 5.12925e+07 0 1
005 2 1 6.69327e+07 6.71947e+07 6.82143e+07 6.85568e+07 0 1
006 2 1 7.14015e+07 7.16554e+07 7.2675e+07 7.32117e+07 0 1
007 1 1 7.58108e+07 7.60718e+07 7.70914e+07 7.71731e+07 0 0
008 1 0 9.52351e+07 9.54971e+07 9.65167e+07 9.65462e+07 1 1
009 2 0 9.9539e+07 9.97944e+07 1.00814e+08 1.01152e+08 0 0
010 2 1 1.0964e+08 1.09898e+08 1.10918e+08 1.11064e+08 1 1
011 1 1 1.1421e+08 1.14477e+08 1.15497e+08 1.16078e+08 0 0
012 1 0 1.34922e+08 1.35178e+08 1.36197e+08 1.36845e+08 1 1
013 1 0 1.54731e+08 1.54995e+08 1.56014e+08 1.56028e+08 0 1
014 2 1 1.69269e+08 1.69524e+08 1.70543e+08 1.71776e+08 0 1
015 2 1 1.91961e+08 1.92229e+08 1.93249e+08 1.94086e+08 0 1
016 2 1 1.96641e+08 1.96893e+08 1.97913e+08 1.98046e+08 0 1
017 2 1 2.00922e+08 2.01183e+08 2.02202e+08 2.02736e+08 0 1
018 2 0 2.05507e+08 2.05762e+08 2.06782e+08 2.06883e+08 0 0
019 2 1 2.2484e+08 2.25094e+08 2.26114e+08 2.27199e+08 1 1
020 1 0 2.37457e+08 2.37718e+08 2.38738e+08 2.39093e+08 0 1
021 1 0 2.53898e+08 2.5415e+08 2.55169e+08 2.55205e+08 0 1
022 2 1 2.57932e+08 2.5819e+08 2.59209e+08 2.59234e+08 0 1
023 2 1 2.83057e+08 2.83314e+08 2.84334e+08 2.84384e+08 0 1
024 1 0 2.87079e+08 2.87331e+08 2.88351e+08 2.88519e+08 0 1
025 1 0 2.9389e+08 2.94151e+08 2.9517e+08 2.95176e+08 0 1
026 1 0 3.26069e+08 3.26331e+08 3.2735e+08 3.27399e+08 0 1
027 2 1 3.34541e+08 3.34795e+08 3.35815e+08 3.36865e+08 0 1
028 1 0 3.60264e+08 3.60524e+08 3.61543e+08 3.61869e+08 0 1
029 2 1 3.72542e+08 3.72801e+08 3.7382e+08 3.73943e+08 0 1
030 1 0 3.88023e+08 3.88271e+08 3.8929e+08 3.89329e+08 0 1
031 2 0 3.91992e+08 3.9225e+08 3.9327e+08 3.93281e+08 0 0
032 2 1 4.05417e+08 4.05663e+08 4.06682e+08 4.08168e+08 1 1
033 1 1 4.15018e+08 4.15282e+08 4.16302e+08 4.16425e+08 0 0
034 1 0 4.24796e+08 4.2506e+08 4.26079e+08 4.26192e+08 1 1
035 2 1 4.43793e+08 4.44051e+08 4.4507e+08 4.45108e+08 0 1
036 1 0 4.47738e+08 4.47992e+08 4.49012e+08 4.49058e+08 0 1
037 1 1 4.61286e+08 4.61545e+08 4.62564e+08 4.6261e+08 0 0
038 1 0 4.72761e+08 4.73017e+08 4.74037e+08 4.74122e+08 1 1
039 2 0 4.77502e+08 4.77766e+08 4.78786e+08 4.78792e+08 0 0
040 2 1 4.8729e+08 4.87541e+08 4.8856e+08 4.88642e+08 1 1
041 2 0 4.95226e+08 4.9547e+08 4.96489e+08 4.96553e+08 0 0
042 2 1 5.03967e+08 5.04221e+08 5.05241e+08 5.07184e+08 1 1
043 2 1 5.20644e+08 5.20894e+08 5.21914e+08 5.22207e+08 0 1
044 2 1 5.35516e+08 5.35783e+08 5.36802e+08 5.38091e+08 0 1
045 1 1 5.41142e+08 5.41402e+08 5.42421e+08 5.42446e+08 0 0
046 1 0 5.49715e+08 5.49971e+08 5.50991e+08 5.51125e+08 1 1
047 1 1 5.53863e+08 5.54113e+08 5.55132e+08 5.55388e+08 0 0
048 1 0 5.65294e+08 5.65538e+08 5.66557e+08 5.66581e+08 1 1
049 1 0 5.74562e+08 5.7481e+08 5.7583e+08 5.76697e+08 0 1
050 2 1 5.79632e+08 5.79897e+08 5.80917e+08 5.8112e+08 0 1
051 2 1 5.83714e+08 5.83972e+08 5.84992e+08 5.85183e+08 0 1
052 2 0 5.88386e+08 5.88638e+08 5.89658e+08 5.89779e+08 0 0
053 2 1 6.15524e+08 6.15775e+08 6.16795e+08 6.17452e+08 1 1
054 2 0 6.20464e+08 6.20726e+08 6.21745e+08 6.21822e+08 0 0
055 2 0 6.29366e+08 6.29625e+08 6.30644e+08 6.36158e+08 1 0
056 2 1 6.44045e+08 6.44307e+08 6.45327e+08 6.46364e+08 1 1
057 2 0 6.5209e+08 6.52358e+08 6.53377e+08 6.5364e+08 0 0
058 2 1 6.62104e+08 6.62355e+08 6.63374e+08 6.63662e+08 1 1
059 2 1 6.66273e+08 6.66527e+08 6.67547e+08 6.68324e+08 0 1
060 1 0 6.71318e+08 6.71572e+08 6.72592e+08 6.72753e+08 0 1
061 1 1 6.88377e+08 6.88638e+08 6.89657e+08 6.89731e+08 0 0
062 1 0 7.00392e+08 7.00645e+08 7.01664e+08 7.01714e+08 1 1
063 1 1 7.26145e+08 7.26404e+08 7.27424e+08 7.27628e+08 0 0
064 1 0 7.35469e+08 7.35714e+08 7.36734e+08 7.36929e+08 1 1
065 1 0 7.39798e+08 7.40057e+08 7.41076e+08 7.41114e+08 0 1
066 2 0 7.46767e+08 7.4703e+08 7.4805e+08 7.4807e+08 0 0
067 2 1 7.56637e+08 7.56896e+08 7.57915e+08 7.58625e+08 1 1
068 2 1 7.75843e+08 7.76094e+08 7.77114e+08 7.78489e+08 0 1
069 1 0 7.85031e+08 7.85277e+08 7.86297e+08 7.86369e+08 0 1
070 1 0 7.89286e+08 7.89539e+08 7.90558e+08 7.91017e+08 0 1
071 2 0 7.93906e+08 7.94153e+08 7.95172e+08 7.95342e+08 0 0
072 2 1 8.0585e+08 8.06106e+08 8.07126e+08 8.07308e+08 1 1
073 2 0 8.09922e+08 8.1018e+08 8.11199e+08 8.11386e+08 0 0
074 2 0 8.19684e+08 8.19935e+08 8.20955e+08 8.20969e+08 1 0
075 2 1 8.28534e+08 8.28793e+08 8.29813e+08 8.47275e+08 1 1
076 2 1 8.50089e+08 8.50346e+08 8.51365e+08 8.58869e+08 0 1
077 1 1 8.61424e+08 8.6168e+08 8.62699e+08 8.64114e+08 0 0
078 1 1 8.7119e+08 8.71442e+08 8.72461e+08 8.76036e+08 1 0
079 1 0 8.86393e+08 8.86651e+08 8.8767e+08 8.88065e+08 1 1
080 1 0 8.93656e+08 8.93915e+08 8.94935e+08 8.94991e+08 0 1
081 2 1 8.97604e+08 8.97868e+08 8.98888e+08 8.99883e+08 0 1
082 1 0 9.10088e+08 9.10347e+08 9.11366e+08 9.11565e+08 0 1
083 1 0 9.14193e+08 9.14455e+08 9.15474e+08 9.15884e+08 0 1
084 1 1 9.19556e+08 9.19815e+08 9.20835e+08 9.20941e+08 0 0
085 1 0 9.31627e+08 9.31878e+08 9.32898e+08 9.33041e+08 1 1
086 1 0 9.36313e+08 9.36565e+08 9.37585e+08 9.37604e+08 0 1
087 1 0 9.58414e+08 9.58665e+08 9.59685e+08 9.59891e+08 0 1
088 1 0 9.66041e+08 9.66296e+08 9.67316e+08 9.67352e+08 0 1
089 1 0 9.70671e+08 9.70928e+08 9.71947e+08 9.7196e+08 0 1
090 1 0 9.79274e+08 9.7953e+08 9.80549e+08 9.80641e+08 0 1
091 2 1 9.88017e+08 9.88285e+08 9.89304e+08 9.89417e+08 0 1
092 2 1 1.00547e+09 1.00572e+09 1.00674e+09 1.0075e+09 0 1
093 1 0 1.00998e+09 1.01024e+09 1.01126e+09 1.01132e+09 0 1
094 1 0 1.02851e+09 1.02876e+09 1.02978e+09 1.0298e+09 0 1
095 2 0 1.03576e+09 1.03602e+09 1.03704e+09 1.03733e+09 0 0
096 2 0 1.0471e+09 1.04736e+09 1.04838e+09 1.04896e+09 1 0
097 2 1 1.05621e+09 1.05647e+09 1.05749e+09 1.06013e+09 1 1
098 1 0 1.06296e+09 1.06321e+09 1.06423e+09 1.06425e+09 0 1
099 2 0 1.06717e+09 1.06743e+09 1.06845e+09 1.06872e+09 0 0
100 2 1 1.07589e+09 1.07614e+09 1.07716e+09 1.07811e+09 1 1
101 2 0 1.0806e+09 1.08085e+09 1.08187e+09 1.08209e+09 0 0
102 2 1 1.08955e+09 1.08982e+09 1.09084e+09 1.09112e+09 1 1
103 1 0 1.09401e+09 1.09427e+09 1.09529e+09 1.0954e+09 0 1
104 1 0 1.10186e+09 1.10211e+09 1.10313e+09 1.10323e+09 0 1
105 2 0 1.10585e+09 1.10611e+09 1.10713e+09 1.10765e+09 0 0
106 2 1 1.11667e+09 1.11693e+09 1.11795e+09 1.11999e+09 1 1
107 2 1 1.12368e+09 1.12393e+09 1.12495e+09 1.13671e+09 0 1
108 1 0 1.13958e+09 1.13983e+09 1.14085e+09 1.14184e+09 0 1
109 2 1 1.14462e+09 1.14488e+09 1.1459e+09 1.1463e+09 0 1
110 1 0 1.14919e+09 1.14945e+09 1.15047e+09 1.15061e+09 0 1
111 2 1 1.15421e+09 1.15448e+09 1.1555e+09 1.15818e+09 0 1
112 1 1 1.1609e+09 1.16116e+09 1.16218e+09 1.16606e+09 0 0
113 1 1 1.17333e+09 1.17358e+09 1.1746e+09 1.17821e+09 1 0
114 1 1 1.18543e+09 1.18569e+09 1.18671e+09 1.18797e+09 1 0
115 1 0 1.19853e+09 1.19879e+09 1.19981e+09 1.20012e+09 1 1
116 1 1 1.20388e+09 1.20414e+09 1.20515e+09 1.20567e+09 0 0
117 1 0 1.21448e+09 1.21474e+09 1.21576e+09 1.21588e+09 1 1
118 2 1 1.22343e+09 1.22369e+09 1.22471e+09 1.22482e+09 0 1
119 1 0 1.23144e+09 1.23169e+09 1.23271e+09 1.23275e+09 0 1
120 1 0 1.23567e+09 1.23592e+09 1.23694e+09 1.23711e+09 0 1
121 2 1 1.23984e+09 1.2401e+09 1.24112e+09 1.24137e+09 0 1
122 1 0 1.24862e+09 1.24888e+09 1.2499e+09 1.25059e+09 0 1
123 2 1 1.25322e+09 1.25347e+09 1.25449e+09 1.25463e+09 0 1
124 1 1 1.25714e+09 1.25739e+09 1.25841e+09 1.25867e+09 0 0
125 1 1 1.27047e+09 1.27073e+09 1.27175e+09 1.27179e+09 1 0
126 1 0 1.27928e+09 1.27954e+09 1.28056e+09 1.28086e+09 1 1
127 2 1 1.28347e+09 1.28372e+09 1.28474e+09 1.28477e+09 0 1
128 1 0 1.29141e+09 1.29167e+09 1.29269e+09 1.29309e+09 0 1
129 1 1 1.29561e+09 1.29586e+09 1.29688e+09 1.29711e+09 0 0
130 1 1 1.30926e+09 1.30951e+09 1.31053e+09 1.31068e+09 1 0
131 1 0 1.32814e+09 1.3284e+09 1.32942e+09 1.32955e+09 1 1
132 1 0 1.33595e+09 1.33621e+09 1.33723e+09 1.33765e+09 0 1
133 2 1 1.34822e+09 1.34847e+09 1.34949e+09 1.3496e+09 0 1
134 2 1 1.35967e+09 1.35992e+09 1.36094e+09 1.36241e+09 0 1
135 1 0 1.36707e+09 1.36734e+09 1.36836e+09 1.3692e+09 0 1
136 2 1 1.372e+09 1.37226e+09 1.37328e+09 1.37363e+09 0 1
137 2 1 1.37631e+09 1.37658e+09 1.3776e+09 1.37779e+09 0 1
138 2 0 1.3843e+09 1.38456e+09 1.38558e+09 1.38595e+09 0 0
139 2 1 1.39642e+09 1.39667e+09 1.39769e+09 1.39894e+09 1 1
140 2 1 1.41221e+09 1.41246e+09 1.41348e+09 1.41378e+09 0 1
141 2 1 1.42317e+09 1.42343e+09 1.42445e+09 1.42622e+09 0 1
142 1 0 1.43906e+09 1.43933e+09 1.44035e+09 1.44054e+09 0 1
143 1 1 1.46154e+09 1.46182e+09 1.46284e+09 1.4629e+09 0 0
144 1 0 1.47251e+09 1.47277e+09 1.47379e+09 1.47408e+09 1 1
145 1 0 1.47887e+09 1.47913e+09 1.48015e+09 1.48039e+09 0 1
146 2 0 1.48434e+09 1.4846e+09 1.48562e+09 1.48571e+09 0 0
147 2 0 1.493e+09 1.49325e+09 1.49427e+09 1.4943e+09 1 0
148 2 0 1.50242e+09 1.50268e+09 1.5037e+09 1.50411e+09 1 0
149 2 0 1.51195e+09 1.5122e+09 1.51322e+09 1.51643e+09 1 0
150 2 1 1.5244e+09 1.52466e+09 1.52568e+09 1.52636e+09 0 1
151 1 0 1.53767e+09 1.53793e+09 1.53895e+09 1.53941e+09 0 1
152 1 1 1.54483e+09 1.54509e+09 1.5461e+09 1.54613e+09 0 0
153 1 1 1.55335e+09 1.55361e+09 1.55463e+09 1.55465e+09 1 0
154 1 1 1.562e+09 1.56226e+09 1.56327e+09 1.56344e+09 1 0
155 1 0 1.57162e+09 1.57187e+09 1.57289e+09 1.57298e+09 1 1
156 1 0 1.5771e+09 1.57737e+09 1.57838e+09 1.57858e+09 0 1
157 2 1 1.58373e+09 1.58398e+09 1.585e+09 1.58818e+09 0 1
158 2 0 1.59328e+09 1.59354e+09 1.59456e+09 1.59479e+09 0 0
159 2 1 1.60223e+09 1.60249e+09 1.60351e+09 1.60446e+09 1 1
160 2 1 1.6092e+09 1.60946e+09 1.61048e+09 1.61103e+09 0 1
161 1 0 1.61764e+09 1.6179e+09 1.61892e+09 1.61896e+09 0 1
162 1 1 1.62147e+09 1.62172e+09 1.62274e+09 1.62285e+09 0 0
163 1 0 1.63479e+09 1.63504e+09 1.63606e+09 1.63606e+09 1 1
164 1 1 1.63884e+09 1.63909e+09 1.64011e+09 1.64119e+09 0 0
165 1 1 1.64846e+09 1.64872e+09 1.64974e+09 1.64977e+09 1 0
166 1 0 1.65689e+09 1.65714e+09 1.65816e+09 1.65821e+09 1 1
167 2 0 1.66291e+09 1.66318e+09 1.66419e+09 1.66429e+09 0 0
168 2 1 1.67166e+09 1.67191e+09 1.67293e+09 1.67466e+09 1 1
169 1 0 1.68026e+09 1.68052e+09 1.68154e+09 1.6816e+09 0 1
170 2 1 1.68413e+09 1.68438e+09 1.6854e+09 1.68623e+09 0 1
171 2 1 1.69628e+09 1.69653e+09 1.69755e+09 1.69859e+09 0 1
172 2 1 1.70149e+09 1.70175e+09 1.70277e+09 1.7033e+09 0 1
173 1 0 1.71007e+09 1.71033e+09 1.71135e+09 1.71156e+09 0 1
174 1 1 1.71804e+09 1.7183e+09 1.71932e+09 1.71947e+09 0 0
175 1 0 1.7276e+09 1.72786e+09 1.72888e+09 1.72902e+09 1 1
176 2 1 1.74033e+09 1.74058e+09 1.7416e+09 1.74161e+09 0 1
177 1 1 1.74877e+09 1.74903e+09 1.75005e+09 1.75058e+09 0 0
178 1 0 1.75776e+09 1.75801e+09 1.75903e+09 1.75956e+09 1 1
179 1 1 1.76445e+09 1.76471e+09 1.76573e+09 1.76769e+09 0 0
180 1 0 1.77701e+09 1.77726e+09 1.77828e+09 1.77869e+09 1 1
181 1 0 1.78395e+09 1.78421e+09 1.78523e+09 1.78527e+09 0 1
182 2 1 1.78799e+09 1.78825e+09 1.78927e+09 1.78981e+09 0 1
183 2 0 1.79636e+09 1.79662e+09 1.79764e+09 1.79776e+09 0 0
184 2 1 1.80621e+09 1.80647e+09 1.80749e+09 1.80751e+09 1 1
185 1 0 1.81371e+09 1.81397e+09 1.81499e+09 1.81537e+09 0 1
186 2 1 1.82396e+09 1.82421e+09 1.82523e+09 1.82526e+09 0 1
187 1 1 1.8326e+09 1.83285e+09 1.83387e+09 1.83423e+09 0 0
188 1 0 1.84313e+09 1.84338e+09 1.8444e+09 1.84487e+09 1 1
189 2 0 1.8475e+09 1.84776e+09 1.84878e+09 1.84899e+09 0 0
190 2 1 1.86125e+09 1.86153e+09 1.86255e+09 1.86298e+09 1 1
191 2 1 1.86564e+09 1.8659e+09 1.86692e+09 1.86724e+09 0 1
192 1 0 1.88198e+09 1.88223e+09 1.88325e+09 1.88371e+09 0 1
193 2 1 1.88645e+09 1.8867e+09 1.88772e+09 1.88773e+09 0 1
194 1 0 1.8998e+09 1.90005e+09 1.90107e+09 1.90127e+09 0 1
195 1 1 1.90391e+09 1.90416e+09 1.90518e+09 1.90522e+09 0 0
196 1 1 1.91323e+09 1.91349e+09 1.91451e+09 1.91459e+09 1 0
197 1 1 1.923e+09 1.92327e+09 1.92429e+09 1.92441e+09 1 0
198 1 0 1.93147e+09 1.93172e+09 1.93274e+09 1.93279e+09 1 1
199 2 1 1.94212e+09 1.94237e+09 1.94339e+09 1.94352e+09 0 1
200 1 0 1.94618e+09 1.94644e+09 1.94746e+09 1.94787e+09 0 1
201 2 0 1.95254e+09 1.95279e+09 1.95381e+09 1.95403e+09 0 0
202 2 1 1.96181e+09 1.96207e+09 1.96309e+09 1.96455e+09 1 1
203 1 1 1.96737e+09 1.96763e+09 1.96865e+09 1.96906e+09 0 0
204 1 1 1.98393e+09 1.98418e+09 1.9852e+09 1.98522e+09 1 0
205 1 0 1.99578e+09 1.99603e+09 1.99705e+09 1.99722e+09 1 1
206 2 1 2.004e+09 2.00427e+09 2.00529e+09 2.00548e+09 0 1
207 2 1 2.01797e+09 2.01822e+09 2.01924e+09 2.02007e+09 0 1
208 2 1 2.02262e+09 2.02287e+09 2.02389e+09 2.02807e+09 0 1
209 1 0 2.03074e+09 2.031e+09 2.03202e+09 2.0323e+09 0 1
210 1 0 2.04112e+09 2.04138e+09 2.04239e+09 2.04258e+09 0 1
211 1 0 2.04514e+09 2.04539e+09 2.04641e+09 2.04646e+09 0 1
212 1 1 2.05086e+09 2.0511e+09 2.05212e+09 2.05236e+09 0 0
213 1 0 2.05999e+09 2.06025e+09 2.06127e+09 2.0614e+09 1 1
214 1 0 2.07129e+09 2.07155e+09 2.07257e+09 2.07289e+09 0 1
215 1 0 2.08177e+09 2.08202e+09 2.08304e+09 2.08353e+09 0 1
216 1 0 2.08625e+09 2.08652e+09 2.08753e+09 2.08795e+09 0 1
217 2 0 2.09418e+09 2.09444e+09 2.09546e+09 2.09555e+09 0 0
218 2 1 2.10553e+09 2.10579e+09 2.10681e+09 2.10743e+09 1 1
219 2 1 2.11276e+09 2.11302e+09 2.11404e+09 2.11455e+09 0 1
220 2 1 2.11737e+09 2.11764e+09 2.11866e+09 2.12037e+09 0 1
221 1 0 2.12322e+09 2.12347e+09 2.12449e+09 2.12536e+09 0 1
222 1 0 2.13008e+09 2.13033e+09 2.13135e+09 2.13137e+09 0 1
223 1 0 2.1417e+09 2.14196e+09 2.14297e+09 2.14312e+09 0 1
224 1 1 2.14605e+09 2.1463e+09 2.14732e+09 2.14767e+09 0 0
225 1 1 2.15497e+09 2.15522e+09 2.15624e+09 2.15666e+09 1 0
226 1 0 2.16604e+09 2.16628e+09 2.1673e+09 2.16736e+09 1 1
227 2 0 2.17024e+09 2.1705e+09 2.17152e+09 2.17153e+09 0 0
228 2 1 2.18368e+09 2.18394e+09 2.18495e+09 2.18528e+09 1 1
229 1 0 2.18784e+09 2.1881e+09 2.18912e+09 2.18915e+09 0 1
230 2 1 2.192e+09 2.19226e+09 2.19328e+09 2.19344e+09 0 1
231 1 1 2.2036e+09 2.20386e+09 2.20488e+09 2.20536e+09 0 0
232 1 0 2.21246e+09 2.21271e+09 2.21373e+09 2.21382e+09 1 1
233 1 0 2.22391e+09 2.22415e+09 2.22517e+09 2.22521e+09 0 1
234 1 1 2.23117e+09 2.23144e+09 2.23246e+09 2.23579e+09 0 0
235 1 0 2.24474e+09 2.245e+09 2.24602e+09 2.24606e+09 1 1
236 1 0 2.25261e+09 2.25287e+09 2.25389e+09 2.25429e+09 0 1
237 1 0 2.26979e+09 2.27004e+09 2.27106e+09 2.27156e+09 0 1
238 2 0 2.27409e+09 2.27434e+09 2.27536e+09 2.27544e+09 0 0
239 2 0 2.28408e+09 2.28433e+09 2.28535e+09 2.28537e+09 1 0
240 2 1 2.29348e+09 2.29374e+09 2.29476e+09 2.29538e+09 1 1
241 2 0 2.30039e+09 2.30065e+09 2.30167e+09 2.3017e+09 0 0
242 2 1 2.31009e+09 2.31034e+09 2.31136e+09 2.31264e+09 1 1
243 2 0 2.31854e+09 2.3188e+09 2.31982e+09 2.32022e+09 0 0
244 2 1 2.32917e+09 2.32943e+09 2.33045e+09 2.33324e+09 1 1
245 2 1 2.33929e+09 2.33955e+09 2.34057e+09 2.3413e+09 0 1
246 1 1 2.34623e+09 2.34649e+09 2.34751e+09 2.34752e+09 0 0
247 1 1 2.35636e+09 2.35661e+09 2.35763e+09 2.35803e+09 1 0
248 1 1 2.36699e+09 2.36724e+09 2.36826e+09 2.36846e+09 1 0
249 1 0 2.38198e+09 2.38225e+09 2.38327e+09 2.38355e+09 1 1
250 1 0 2.3879e+09 2.38816e+09 2.38917e+09 2.38979e+09 0 1
251 2 1 2.39435e+09 2.39461e+09 2.39563e+09 2.39744e+09 0 1
252 2 0 2.4001e+09 2.40037e+09 2.40139e+09 2.40148e+09 0 0
253 2 0 2.40912e+09 2.40937e+09 2.41039e+09 2.41344e+09 1 0
254 2 1 2.42152e+09 2.42177e+09 2.42279e+09 2.42484e+09 1 1
255 2 1 2.42753e+09 2.42779e+09 2.42881e+09 2.42898e+09 0 1
256 1 0 2.43922e+09 2.43948e+09 2.4405e+09 2.44065e+09 0 1
257 2 1 2.44708e+09 2.44734e+09 2.44836e+09 2.44896e+09 0 1
258 2 1 2.46117e+09 2.46143e+09 2.46244e+09 2.46333e+09 0 1
259 1 1 2.46587e+09 2.46613e+09 2.46715e+09 2.4675e+09 0 0
260 1 0 2.47571e+09 2.47597e+09 2.47699e+09 2.47729e+09 1 1
261 1 1 2.48765e+09 2.48791e+09 2.48893e+09 2.48919e+09 0 0
262 1 1 2.4965e+09 2.49676e+09 2.49778e+09 2.50068e+09 1 0
263 1 1 2.50964e+09 2.50989e+09 2.51091e+09 2.51117e+09 1 0
264 1 1 2.51838e+09 2.51864e+09 2.51966e+09 2.51983e+09 1 0
265 1 1 2.52767e+09 2.52793e+09 2.52895e+09 2.52929e+09 0 0
266 2 1 2.53875e+09 2.539e+09 2.54001e+09 2.54027e+09 0 1
267 1 0 2.54503e+09 2.54528e+09 2.5463e+09 2.54656e+09 0 1
268 2 1 2.54935e+09 2.54961e+09 2.55063e+09 2.55121e+09 0 1
269 2 1 2.55693e+09 2.55718e+09 2.5582e+09 2.55936e+09 0 1
270 2 1 2.56545e+09 2.5657e+09 2.56672e+09 2.5671e+09 0 1
271 2 1 2.56994e+09 2.57019e+09 2.57121e+09 2.57143e+09 0 1
272 2 1 2.57396e+09 2.57422e+09 2.57524e+09 2.57532e+09 0 1
273 2 1 2.58696e+09 2.58723e+09 2.58825e+09 2.58879e+09 0 1
274 2 1 2.6042e+09 2.60446e+09 2.60548e+09 2.60661e+09 0 1
275 2 1 2.61166e+09 2.61191e+09 2.61293e+09 2.61344e+09 0 1
276 2 1 2.61717e+09 2.61742e+09 2.61844e+09 2.61891e+09 0 1
277 2 0 2.6216e+09 2.62185e+09 2.62287e+09 2.62352e+09 0 0
278 2 1 2.63111e+09 2.63137e+09 2.63239e+09 2.63242e+09 1 1
279 2 1 2.63776e+09 2.63802e+09 2.63904e+09 2.63917e+09 0 1
280 1 0 2.64182e+09 2.64207e+09 2.64309e+09 2.64321e+09 0 1
281 1 1 2.64884e+09 2.64909e+09 2.65011e+09 2.65042e+09 0 0
282 1 0 2.65904e+09 2.65928e+09 2.6603e+09 2.66032e+09 1 1
283 1 0 2.6674e+09 2.66765e+09 2.66867e+09 2.66869e+09 0 1
284 1 0 2.67528e+09 2.67554e+09 2.67656e+09 2.67724e+09 0 1
285 2 1 2.6809e+09 2.68117e+09 2.68219e+09 2.68364e+09 0 1
286 2 0 2.68653e+09 2.6868e+09 2.68781e+09 2.68863e+09 0 0
287 2 1 2.69608e+09 2.69634e+09 2.69736e+09 2.69923e+09 1 1
288 1 1 2.70181e+09 2.70207e+09 2.70309e+09 2.70318e+09 0 0
289 1 0 2.71248e+09 2.71274e+09 2.71376e+09 2.71415e+09 1 1
290 2 1 2.72166e+09 2.72192e+09 2.72293e+09 2.72461e+09 0 1
291 2 1 2.73057e+09 2.73082e+09 2.73184e+09 2.73279e+09 0 1
292 2 1 2.73545e+09 2.73572e+09 2.73673e+09 2.73682e+09 0 1
293 1 0 2.74237e+09 2.74263e+09 2.74365e+09 2.74371e+09 0 1
294 2 1 2.76329e+09 2.76354e+09 2.76456e+09 2.76462e+09 0 1
295 2 1 2.77101e+09 2.77126e+09 2.77228e+09 2.77325e+09 0 1
296 2 1 2.78104e+09 2.78131e+09 2.78233e+09 2.78252e+09 0 1
297 1 0 2.78531e+09 2.78557e+09 2.78659e+09 2.78729e+09 0 1
298 1 0 2.79015e+09 2.7904e+09 2.79142e+09 2.79178e+09 0 1
299 2 1 2.79736e+09 2.79762e+09 2.79864e+09 2.79901e+09 0 1
300 2 1 2.80341e+09 2.80366e+09 2.80468e+09 2.80474e+09 0 1
301 1 0 2.80732e+09 2.80757e+09 2.80859e+09 2.80878e+09 0 1
302 2 0 2.81561e+09 2.81587e+09 2.81689e+09 2.81789e+09 0 0
303 2 1 2.82581e+09 2.82606e+09 2.82708e+09 2.8275e+09 1 1
304 1 1 2.8304e+09 2.83066e+09 2.83168e+09 2.8317e+09 0 0
305 1 0 2.84056e+09 2.84082e+09 2.84184e+09 2.84201e+09 1 1
306 2 1 2.85501e+09 2.85527e+09 2.85629e+09 2.8563e+09 0 1
307 2 0 2.86501e+09 2.86527e+09 2.86629e+09 2.86643e+09 0 0
308 2 1 2.87397e+09 2.87423e+09 2.87525e+09 2.876e+09 1 1
309 1 0 2.87853e+09 2.87879e+09 2.87981e+09 2.87986e+09 0 1
310 2 1 2.88279e+09 2.88305e+09 2.88407e+09 2.88444e+09 0 1
311 2 0 2.88711e+09 2.88737e+09 2.88839e+09 2.88846e+09 0 0
312 2 1 2.89563e+09 2.89588e+09 2.8969e+09 2.897e+09 1 1
313 2 1 2.89958e+09 2.89983e+09 2.90085e+09 2.9009e+09 0 1
314 2 1 2.90627e+09 2.90652e+09 2.90754e+09 2.90756e+09 0 1
315 2 1 2.91025e+09 2.9105e+09 2.91152e+09 2.91162e+09 0 1
316 2 1 2.91745e+09 2.91771e+09 2.91873e+09 2.92002e+09 0 1
317 1 0 2.92478e+09 2.92503e+09 2.92605e+09 2.92611e+09 0 1
318 2 1 2.93317e+09 2.93343e+09 2.93445e+09 2.93575e+09 0 1
319 2 0 2.94269e+09 2.94296e+09 2.94398e+09 2.94406e+09 0 0
320 2 1 2.95121e+09 2.95146e+09 2.95248e+09 2.95257e+09 1 1
321 1 0 2.95917e+09 2.95944e+09 2.96046e+09 2.96062e+09 0 1
322 1 1 2.96719e+09 2.96744e+09 2.96846e+09 2.96857e+09 0 0
323 1 1 2.97729e+09 2.97754e+09 2.97856e+09 2.97858e+09 1 0
324 1 0 2.98766e+09 2.98791e+09 2.98893e+09 2.98906e+09 1 1
325 2 1 3.00055e+09 3.0008e+09 3.00182e+09 3.00482e+09 0 1
326 2 1 3.01129e+09 3.01155e+09 3.01257e+09 3.01284e+09 0 1
327 1 0 3.01713e+09 3.01739e+09 3.01841e+09 3.01899e+09 0 1
328 2 0 3.02581e+09 3.02606e+09 3.02708e+09 3.0275e+09 0 0
329 2 1 3.03559e+09 3.03585e+09 3.03687e+09 3.03691e+09 1 1
330 1 0 3.04099e+09 3.04126e+09 3.04228e+09 3.04297e+09 0 1
331 1 1 3.04986e+09 3.05011e+09 3.05113e+09 3.05119e+09 0 0
332 1 0 3.05956e+09 3.05982e+09 3.06084e+09 3.06117e+09 1 1
333 2 1 3.06523e+09 3.06548e+09 3.0665e+09 3.06674e+09 0 1
334 2 1 3.07286e+09 3.07311e+09 3.07413e+09 3.07442e+09 0 1
335 1 0 3.07729e+09 3.07754e+09 3.07856e+09 3.07864e+09 0 1
336 1 0 3.08137e+09 3.08162e+09 3.08264e+09 3.0828e+09 0 1
337 1 0 3.08982e+09 3.09007e+09 3.09109e+09 3.09142e+09 0 1
338 1 0 3.09625e+09 3.09651e+09 3.09753e+09 3.09754e+09 0 1
339 2 1 3.10521e+09 3.10547e+09 3.10649e+09 3.10728e+09 0 1
340 1 0 3.11025e+09 3.11051e+09 3.11153e+09 3.11168e+09 0 1
341 2 1 3.11883e+09 3.11909e+09 3.12011e+09 3.12214e+09 0 1
342 1 1 3.13587e+09 3.13613e+09 3.13715e+09 3.13736e+09 0 0
343 1 0 3.14485e+09 3.14511e+09 3.14613e+09 3.14614e+09 1 1
344 1 0 3.14906e+09 3.14932e+09 3.15033e+09 3.15061e+09 0 1
345 1 0 3.15468e+09 3.15494e+09 3.15596e+09 3.15597e+09 0 1
346 1 0 3.16409e+09 3.16434e+09 3.16536e+09 3.1655e+09 0 1
347 2 1 3.17068e+09 3.17093e+09 3.17195e+09 3.17321e+09 0 1
348 2 1 3.17914e+09 3.1794e+09 3.18042e+09 3.18139e+09 0 1
349 1 1 3.18395e+09 3.1842e+09 3.18522e+09 3.18532e+09 0 0
350 1 1 3.19271e+09 3.19296e+09 3.19398e+09 3.19414e+09 1 0
351 1 0 3.20355e+09 3.20381e+09 3.20483e+09 3.20488e+09 1 1
352 2 0 3.20752e+09 3.20776e+09 3.20878e+09 3.2088e+09 0 0
353 2 0 3.21593e+09 3.21618e+09 3.2172e+09 3.22314e+09 1 0
354 2 1 3.2332e+09 3.23345e+09 3.23447e+09 3.23463e+09 1 1
355 2 1 3.24549e+09 3.24574e+09 3.24676e+09 3.24686e+09 0 1
356 1 0 3.24981e+09 3.25006e+09 3.25108e+09 3.25139e+09 0 1
357 1 0 3.25429e+09 3.25455e+09 3.25557e+09 3.25638e+09 0 1
358 1 0 3.25902e+09 3.25927e+09 3.26029e+09 3.26065e+09 0 1
359 2 0 3.26796e+09 3.2682e+09 3.26922e+09 3.26934e+09 0 0
360 2 1 3.27738e+09 3.27764e+09 3.27866e+09 3.28329e+09 1 1
361 2 1 3.28589e+09 3.28615e+09 3.28717e+09 3.28763e+09 0 1
362 2 1 3.2938e+09 3.29406e+09 3.29508e+09 3.29654e+09 0 1
363 1 0 3.29949e+09 3.29974e+09 3.30076e+09 3.3009e+09 0 1
364 1 0 3.30743e+09 3.30769e+09 3.30871e+09 3.30895e+09 0 1
365 2 1 3.3155e+09 3.31575e+09 3.31677e+09 3.31781e+09 0 1
366 1 1 3.32358e+09 3.32384e+09 3.32486e+09 3.32506e+09 0 0
367 1 0 3.33233e+09 3.33258e+09 3.3336e+09 3.33374e+09 1 1
368 1 0 3.33732e+09 3.33758e+09 3.3386e+09 3.33862e+09 0 1
369 2 0 3.34374e+09 3.344e+09 3.34502e+09 3.34513e+09 0 0
370 2 1 3.35385e+09 3.35411e+09 3.35513e+09 3.35705e+09 1 1
371 1 0 3.36005e+09 3.3603e+09 3.36132e+09 3.36164e+09 0 1
372 1 0 3.37043e+09 3.37068e+09 3.3717e+09 3.37197e+09 0 1
373 1 1 3.37475e+09 3.375e+09 3.37602e+09 3.37618e+09 0 0
374 1 0 3.38362e+09 3.38388e+09 3.3849e+09 3.38506e+09 1 1
375 1 1 3.38863e+09 3.38888e+09 3.3899e+09 3.39004e+09 0 0
376 1 0 3.39872e+09 3.39897e+09 3.39999e+09 3.40019e+09 1 1
377 1 1 3.40313e+09 3.40339e+09 3.40441e+09 3.4045e+09 0 0
378 1 1 3.41309e+09 3.41335e+09 3.41437e+09 3.41521e+09 1 0
379 1 1 3.42283e+09 3.42308e+09 3.4241e+09 3.42599e+09 1 0
380 1 0 3.43974e+09 3.44e+09 3.44102e+09 3.44104e+09 1 1
381 1 1 3.44406e+09 3.44432e+09 3.44534e+09 3.446e+09 0 0
382 1 1 3.45369e+09 3.45393e+09 3.45495e+09 3.46578e+09 1 0
383 1 1 3.47321e+09 3.47347e+09 3.47449e+09 3.478e+09 1 0
384 1 0 3.48545e+09 3.48571e+09 3.48673e+09 3.48823e+09 1 1
385 1 1 3.4948e+09 3.49506e+09 3.49608e+09 3.49908e+09 0 0
386 1 0 3.50679e+09 3.50704e+09 3.50806e+09 3.56601e+09 1 1
387 1 0 3.57279e+09 3.57303e+09 3.57405e+09 3.58261e+09 0 1
388 1 0 3.58537e+09 3.58562e+09 3.58664e+09 3.58665e+09 0 1
389 2 0 3.58969e+09 3.58993e+09 3.59095e+09 3.59103e+09 0 0
390 2 1 3.59808e+09 3.59833e+09 3.59935e+09 3.59997e+09 1 1
391 2 1 3.60341e+09 3.60365e+09 3.60467e+09 3.60771e+09 0 1
392 2 1 3.61051e+09 3.61076e+09 3.61178e+09 3.61182e+09 0 1
393 2 1 3.61801e+09 3.61826e+09 3.61928e+09 3.62234e+09 0 1
394 1 1 3.62767e+09 3.62793e+09 3.62895e+09 3.63086e+09 0 0
395 1 1 3.63836e+09 3.63861e+09 3.63963e+09 3.64192e+09 1 0
396 1 0 3.6494e+09 3.64965e+09 3.65067e+09 3.65389e+09 1 1
397 1 1 3.65714e+09 3.65739e+09 3.65841e+09 3.66128e+09 0 0
398 1 0 3.66869e+09 3.66895e+09 3.66997e+09 3.67021e+09 1 1
399 2 0 3.67363e+09 3.67388e+09 3.6749e+09 3.67661e+09 0 0
400 2 0 3.68371e+09 3.68396e+09 3.68498e+09 3.70889e+09 1 0
401 2 0 3.71597e+09 3.71622e+09 3.71724e+09 3.72139e+09 1 0
402 2 0 3.73066e+09 3.73092e+09 3.73194e+09 3.77633e+09 1 0
403 1 0 3.78369e+09 3.78394e+09 3.78496e+09 3.7861e+09 0 1
404 2 0 3.7889e+09 3.78915e+09 3.79017e+09 3.81823e+09 0 0
405 2 0 3.82558e+09 3.82583e+09 3.82685e+09 3.83658e+09 1 0
406 2 0 3.844e+09 3.84424e+09 3.84526e+09 3.85599e+09 1 0
407 2 0 3.86666e+09 3.86691e+09 3.86793e+09 3.87714e+09 1 0
408 1 0 3.88471e+09 3.88497e+09 3.88599e+09 3.89284e+09 0 1
409 1 0 3.89593e+09 3.89619e+09 3.89721e+09 3.90838e+09 0 1
410 2 0 3.91215e+09 3.91239e+09 3.91341e+09 3.94896e+09 0 0
411 2 0 3.95615e+09 3.9564e+09 3.95742e+09 3.95847e+09 1 0
412 2 0 3.96598e+09 3.96624e+09 3.96726e+09 3.96816e+09 1 0
413 2 0 3.97543e+09 3.97568e+09 3.9767e+09 3.97682e+09 1 0
414 1 0 3.98425e+09 3.9845e+09 3.98552e+09 3.98984e+09 0 1
415 1 0 3.99265e+09 3.9929e+09 3.99392e+09 4.00902e+09 0 1
416 1 0 4.01186e+09 4.01212e+09 4.01314e+09 4.01538e+09 0 1
417 1 0 4.01816e+09 4.01841e+09 4.01943e+09 4.03999e+09 0 1
418 1 0 4.04265e+09 4.04291e+09 4.04393e+09 4.04436e+09 0 1
419 2 0 4.04718e+09 4.04743e+09 4.04845e+09 4.0531e+09 0 0
420 2 0 4.06026e+09 4.06051e+09 4.06153e+09 4.06328e+09 1 0
421 2 0 4.07055e+09 4.0708e+09 4.07182e+09 4.08273e+09 1 0
422 2 0 4.09021e+09 4.09046e+09 4.09148e+09 4.0918e+09 1 0
423 2 0 4.09907e+09 4.09933e+09 4.10035e+09 4.10892e+09 0 0
424 2 0 4.11628e+09 4.11654e+09 4.11756e+09 4.13953e+09 0 0
425 2 0 4.14667e+09 4.14692e+09 4.14794e+09 4.15528e+09 0 0
426 2 0 4.16242e+09 4.16267e+09 4.16369e+09 4.16969e+09 0 0
427 1 0 4.17689e+09 4.17714e+09 4.17816e+09 4.18003e+09 0 1
428 2 1 4.18383e+09 4.18408e+09 4.1851e+09 4.18525e+09 0 1
429 2 0 4.18823e+09 4.18848e+09 4.1895e+09 4.28916e+09 0 0
