trial trialType response stillTime stimOnset stimOffset respTime correctionTrial correct
001 1 0 7.28885e+06 7.5844e+06 8.60398e+06 3.73889e+07 0 1
002 1 0 4.04081e+07 4.06724e+07 4.16919e+07 4.37803e+07 0 1
003 1 1 4.64661e+07 4.67494e+07 4.7769e+07 5.2354e+07 0 0
004 1 1 5.95425e+07 5.97883e+07 6.08079e+07 6.19993e+07 1 0
005 1 0 6.94579e+07 6.97062e+07 7.07258e+07 1.48185e+08 1 1
006 2 0 1.51015e+08 1.51271e+08 1.52291e+08 1.54313e+08 0 0
007 2 1 1.61395e+08 1.61649e+08 1.62669e+08 1.6376e+08 1 1
008 3 1 1.71256e+08 1.71517e+08 1.72536e+08 1.78403e+08 0 1
009 3 1 1.81379e+08 1.81632e+08 1.82652e+08 1.83644e+08 0 1
010 1 1 1.86395e+08 1.8664e+08 1.87659e+08 1.88737e+08 0 0
011 1 1 1.96206e+08 1.96466e+08 1.97486e+08 1.98009e+08 1 0
012 1 1 2.05201e+08 2.05454e+08 2.06474e+08 2.09661e+08 1 0
013 1 0 2.17176e+08 2.17429e+08 2.18449e+08 2.40767e+08 1 1
014 1 1 2.46655e+08 2.46915e+08 2.47935e+08 2.48012e+08 0 0
015 1 1 2.56997e+08 2.57253e+08 2.58273e+08 2.87687e+08 1 0
016 1 1 2.94722e+08 2.94967e+08 2.95987e+08 3.48646e+08 1 0
017 1 0 3.56011e+08 3.56265e+08 3.57285e+08 3.93217e+08 1 1
018 2 0 3.96026e+08 3.96285e+08 3.97305e+08 4.35366e+08 0 0
019 2 1 4.42745e+08 4.42991e+08 4.4401e+08 5.24521e+08 1 1
020 1 1 5.27183e+08 5.27446e+08 5.28465e+08 5.36379e+08 0 0
021 1 1 5.45238e+08 5.45482e+08 5.46502e+08 5.46675e+08 1 0
022 1 1 5.53881e+08 5.54126e+08 5.55145e+08 5.87878e+08 1 0
023 1 0 5.95115e+08 5.95366e+08 5.96386e+08 6.07228e+08 1 1
024 3 1 6.09937e+08 6.10186e+08 6.11206e+08 6.25079e+08 0 1
025 2 1 6.27689e+08 6.27936e+08 6.28955e+08 6.31579e+08 0 1
026 1 0 6.34545e+08 6.34802e+08 6.35822e+08 6.35832e+08 0 1
027 1 1 6.41371e+08 6.41617e+08 6.42636e+08 6.43796e+08 0 0
028 1 1 6.51101e+08 6.51353e+08 6.52372e+08 6.52438e+08 1 0
029 1 0 6.59796e+08 6.60041e+08 6.6106e+08 6.63226e+08 1 1
030 1 1 6.68347e+08 6.68612e+08 6.69632e+08 6.70147e+08 0 0
031 1 1 6.77286e+08 6.77546e+08 6.78566e+08 6.81736e+08 1 0
032 1 1 6.89103e+08 6.89354e+08 6.90374e+08 6.92137e+08 1 0
033 1 1 7.00224e+08 7.00473e+08 7.01493e+08 7.0676e+08 1 0
034 1 1 7.1411e+08 7.14354e+08 7.15374e+08 7.22561e+08 0 0
035 3 1 7.30212e+08 7.3046e+08 7.3148e+08 7.31507e+08 0 1
036 2 0 7.36768e+08 7.37015e+08 7.38034e+08 7.38833e+08 0 0
037 2 0 7.47535e+08 7.47799e+08 7.48819e+08 7.50015e+08 1 0
038 2 0 7.60096e+08 7.60351e+08 7.61371e+08 7.62363e+08 1 0
039 2 0 7.69477e+08 7.69728e+08 7.70747e+08 7.77582e+08 1 0
040 3 0 7.84989e+08 7.85235e+08 7.86255e+08 7.86584e+08 0 0
041 3 1 7.94145e+08 7.94402e+08 7.95422e+08 7.99106e+08 0 1
042 1 1 8.0175e+08 8.02e+08 8.0302e+08 8.03102e+08 0 0
043 1 1 8.1054e+08 8.10788e+08 8.11807e+08 8.12625e+08 1 0
044 1 1 8.19993e+08 8.20246e+08 8.21266e+08 8.21283e+08 1 0
045 1 0 8.28806e+08 8.29057e+08 8.30076e+08 8.30251e+08 1 1
046 2 1 8.33988e+08 8.3424e+08 8.3526e+08 8.36862e+08 0 1
047 1 1 8.40813e+08 8.41067e+08 8.42087e+08 8.43255e+08 0 0
048 1 1 8.50387e+08 8.50634e+08 8.51653e+08 8.54945e+08 1 0
049 1 1 8.62171e+08 8.62417e+08 8.63436e+08 8.6347e+08 1 0
050 1 0 8.71688e+08 8.71935e+08 8.72954e+08 8.79427e+08 1 1
051 1 1 8.85261e+08 8.85515e+08 8.86534e+08 8.88017e+08 0 0
052 1 0 8.95202e+08 8.95462e+08 8.96481e+08 8.96533e+08 1 1
053 1 1 9.03689e+08 9.03948e+08 9.04967e+08 9.04978e+08 0 0
054 1 1 9.12458e+08 9.12712e+08 9.13731e+08 9.16048e+08 1 0
055 1 0 9.2326e+08 9.23513e+08 9.24532e+08 9.28387e+08 1 1
056 2 1 9.34701e+08 9.34957e+08 9.35977e+08 9.36093e+08 0 1
057 1 1 9.46323e+08 9.46577e+08 9.47597e+08 9.48917e+08 0 0
058 1 1 9.56597e+08 9.56843e+08 9.57862e+08 9.58811e+08 1 0
059 1 0 9.65882e+08 9.66134e+08 9.67154e+08 9.73831e+08 1 1
060 1 0 9.7863e+08 9.78876e+08 9.79896e+08 9.79995e+08 0 1
061 1 1 9.84845e+08 9.85105e+08 9.86124e+08 9.86316e+08 0 0
062 1 0 9.93525e+08 9.93773e+08 9.94793e+08 9.94865e+08 1 1
063 1 1 9.98689e+08 9.98935e+08 9.99955e+08 9.99964e+08 0 0
064 1 1 1.0072e+09 1.00745e+09 1.00847e+09 1.01201e+09 1 0
065 1 1 1.02083e+09 1.02109e+09 1.02211e+09 1.0275e+09 1 0
066 1 0 1.0349e+09 1.03515e+09 1.03617e+09 1.03618e+09 1 1
067 1 0 1.0393e+09 1.03955e+09 1.04057e+09 1.04059e+09 0 1
068 2 1 1.04655e+09 1.0468e+09 1.04782e+09 1.04787e+09 0 1
069 1 1 1.05398e+09 1.05423e+09 1.05525e+09 1.05558e+09 0 0
070 1 1 1.06304e+09 1.06329e+09 1.06431e+09 1.06455e+09 1 0
071 1 0 1.07189e+09 1.07214e+09 1.07316e+09 1.07455e+09 1 1
072 1 0 1.07925e+09 1.0795e+09 1.08052e+09 1.08065e+09 0 1
073 1 0 1.08327e+09 1.08351e+09 1.08453e+09 1.08461e+09 0 1
074 2 0 1.0871e+09 1.08735e+09 1.08837e+09 1.08838e+09 0 0
075 2 1 1.09579e+09 1.09605e+09 1.09707e+09 1.09708e+09 1 1
076 1 1 1.09987e+09 1.10012e+09 1.10114e+09 1.10147e+09 0 0
077 1 0 1.10857e+09 1.10883e+09 1.10985e+09 1.10985e+09 1 1
078 3 1 1.11392e+09 1.11418e+09 1.1152e+09 1.1155e+09 0 1
079 1 0 1.11839e+09 1.11864e+09 1.11966e+09 1.11988e+09 0 1
080 1 0 1.12413e+09 1.12439e+09 1.12541e+09 1.12551e+09 0 1
081 2 0 1.12812e+09 1.12836e+09 1.12938e+09 1.12956e+09 0 0
082 2 0 1.1367e+09 1.13694e+09 1.13796e+09 1.13831e+09 1 0
083 2 0 1.14547e+09 1.14572e+09 1.14674e+09 1.14992e+09 1 0
084 2 1 1.15696e+09 1.15722e+09 1.15824e+09 1.15997e+09 1 1
085 1 0 1.16247e+09 1.16272e+09 1.16374e+09 1.16375e+09 0 1
086 3 0 1.17049e+09 1.17074e+09 1.17176e+09 1.1719e+09 0 0
087 3 1 1.18006e+09 1.18033e+09 1.18135e+09 1.1834e+09 1 1
088 3 1 1.18864e+09 1.18889e+09 1.18991e+09 1.1903e+09 0 1
089 1 0 1.19469e+09 1.19494e+09 1.19596e+09 1.19613e+09 0 1
090 1 0 1.19891e+09 1.19917e+09 1.20019e+09 1.20022e+09 0 1
091 2 0 1.20591e+09 1.20616e+09 1.20718e+09 1.20725e+09 0 0
092 2 1 1.21511e+09 1.21537e+09 1.21639e+09 1.21641e+09 1 1
093 1 0 1.22124e+09 1.2215e+09 1.22252e+09 1.22268e+09 0 1
094 2 0 1.22554e+09 1.22579e+09 1.22681e+09 1.22688e+09 0 0
095 2 1 1.23502e+09 1.23528e+09 1.2363e+09 1.23799e+09 1 1
096 2 0 1.24054e+09 1.24079e+09 1.24181e+09 1.24187e+09 0 0
097 2 1 1.24913e+09 1.24937e+09 1.25039e+09 1.25041e+09 1 1
098 3 0 1.25323e+09 1.25349e+09 1.25451e+09 1.25461e+09 0 0
099 3 1 1.26387e+09 1.26412e+09 1.26514e+09 1.27137e+09 1 1
100 2 1 1.27402e+09 1.27427e+09 1.27529e+09 1.27581e+09 0 1
101 2 0 1.28123e+09 1.28148e+09 1.2825e+09 1.28257e+09 0 0
102 2 0 1.29314e+09 1.29339e+09 1.29441e+09 1.29442e+09 1 0
103 2 1 1.30183e+09 1.30208e+09 1.3031e+09 1.30354e+09 1 1
104 1 0 1.30821e+09 1.30845e+09 1.30947e+09 1.3098e+09 0 1
105 1 0 1.31242e+09 1.31267e+09 1.31369e+09 1.3138e+09 0 1
106 2 1 1.31943e+09 1.31969e+09 1.32071e+09 1.32073e+09 0 1
107 3 1 1.32618e+09 1.32642e+09 1.32744e+09 1.32807e+09 0 1
108 3 1 1.33162e+09 1.33187e+09 1.33289e+09 1.3329e+09 0 1
109 3 1 1.3379e+09 1.33816e+09 1.33918e+09 1.33934e+09 0 1
110 1 0 1.34226e+09 1.3425e+09 1.34352e+09 1.34353e+09 0 1
111 1 0 1.35055e+09 1.35081e+09 1.35183e+09 1.35183e+09 0 1
112 3 0 1.35454e+09 1.35479e+09 1.35581e+09 1.3559e+09 0 0
113 3 0 1.36369e+09 1.36394e+09 1.36496e+09 1.36499e+09 1 0
114 3 1 1.3722e+09 1.37246e+09 1.37348e+09 1.37371e+09 1 1
115 1 0 1.37709e+09 1.37734e+09 1.37836e+09 1.37843e+09 0 1
116 2 0 1.3812e+09 1.38145e+09 1.38247e+09 1.3825e+09 0 0
117 2 1 1.38972e+09 1.38997e+09 1.39099e+09 1.39122e+09 1 1
118 1 0 1.3941e+09 1.39436e+09 1.39538e+09 1.39549e+09 0 1
119 2 0 1.40153e+09 1.40178e+09 1.4028e+09 1.40296e+09 0 0
120 2 1 1.4104e+09 1.41065e+09 1.41167e+09 1.41187e+09 1 1
121 1 1 1.41462e+09 1.41488e+09 1.4159e+09 1.41597e+09 0 0
122 1 0 1.42393e+09 1.42418e+09 1.4252e+09 1.42532e+09 1 1
123 3 1 1.42792e+09 1.42816e+09 1.42918e+09 1.4292e+09 0 1
124 1 0 1.4319e+09 1.43216e+09 1.43317e+09 1.4332e+09 0 1
125 1 0 1.43608e+09 1.43634e+09 1.43736e+09 1.43744e+09 0 1
126 3 1 1.44382e+09 1.44406e+09 1.44508e+09 1.44519e+09 0 1
127 2 0 1.44797e+09 1.44822e+09 1.44924e+09 1.44925e+09 0 0
128 2 1 1.45784e+09 1.45809e+09 1.45911e+09 1.46012e+09 1 1
129 3 0 1.46261e+09 1.46286e+09 1.46388e+09 1.4639e+09 0 0
130 3 0 1.47295e+09 1.4732e+09 1.47421e+09 1.47556e+09 1 0
131 3 0 1.48403e+09 1.48428e+09 1.4853e+09 1.48966e+09 1 0
132 3 0 1.49825e+09 1.49851e+09 1.49953e+09 1.50054e+09 1 0
133 3 1 1.51002e+09 1.51028e+09 1.5113e+09 1.51299e+09 0 1
134 1 0 1.51844e+09 1.5187e+09 1.51971e+09 1.52004e+09 0 1
135 1 0 1.52278e+09 1.52303e+09 1.52405e+09 1.52409e+09 0 1
136 3 1 1.52954e+09 1.52979e+09 1.53081e+09 1.53101e+09 0 1
137 2 0 1.53371e+09 1.53396e+09 1.53498e+09 1.535e+09 0 0
138 2 1 1.54451e+09 1.54476e+09 1.54578e+09 1.54583e+09 1 1
139 2 1 1.54849e+09 1.54873e+09 1.54975e+09 1.55059e+09 0 1
140 2 1 1.55348e+09 1.55373e+09 1.55475e+09 1.55587e+09 0 1
141 3 1 1.55845e+09 1.5587e+09 1.55972e+09 1.56541e+09 0 1
142 1 0 1.56823e+09 1.56849e+09 1.56951e+09 1.56951e+09 0 1
143 2 0 1.57606e+09 1.57631e+09 1.57733e+09 1.57735e+09 0 0
144 2 1 1.5858e+09 1.58605e+09 1.58707e+09 1.58736e+09 1 1
145 1 0 1.58996e+09 1.59022e+09 1.59124e+09 1.59125e+09 0 1
146 1 0 1.59402e+09 1.59427e+09 1.59529e+09 1.59533e+09 0 1
147 2 1 1.59797e+09 1.59821e+09 1.59923e+09 1.59924e+09 0 1
148 3 1 1.60583e+09 1.60608e+09 1.6071e+09 1.60718e+09 0 1
149 3 1 1.61e+09 1.61026e+09 1.61128e+09 1.61148e+09 0 1
150 3 1 1.61396e+09 1.61421e+09 1.61523e+09 1.61548e+09 0 1
151 1 0 1.61844e+09 1.6187e+09 1.61971e+09 1.61973e+09 0 1
152 2 0 1.62516e+09 1.62541e+09 1.62643e+09 1.62644e+09 0 0
153 2 1 1.63357e+09 1.63382e+09 1.63484e+09 1.63514e+09 1 1
154 1 0 1.63795e+09 1.6382e+09 1.63922e+09 1.63926e+09 0 1
155 2 0 1.64533e+09 1.64559e+09 1.64661e+09 1.64663e+09 0 0
156 2 1 1.65389e+09 1.65414e+09 1.65516e+09 1.65521e+09 1 1
157 1 0 1.65799e+09 1.65825e+09 1.65927e+09 1.65931e+09 0 1
158 1 0 1.66206e+09 1.66231e+09 1.66333e+09 1.66341e+09 0 1
159 1 0 1.66983e+09 1.67008e+09 1.6711e+09 1.67115e+09 0 1
160 3 0 1.67376e+09 1.67402e+09 1.67504e+09 1.67514e+09 0 0
161 3 1 1.68229e+09 1.68254e+09 1.68356e+09 1.68479e+09 1 1
162 3 1 1.68949e+09 1.68975e+09 1.69077e+09 1.69208e+09 0 1
163 1 0 1.69748e+09 1.69774e+09 1.69876e+09 1.69882e+09 0 1
164 1 0 1.70422e+09 1.70447e+09 1.70549e+09 1.70551e+09 0 1
165 1 0 1.70827e+09 1.70852e+09 1.70954e+09 1.70955e+09 0 1
166 2 0 1.71387e+09 1.71412e+09 1.71514e+09 1.71519e+09 0 0
167 2 1 1.72509e+09 1.72534e+09 1.72636e+09 1.73224e+09 1 1
168 3 1 1.7351e+09 1.73535e+09 1.73637e+09 1.73638e+09 0 1
169 1 0 1.74096e+09 1.74121e+09 1.74223e+09 1.74243e+09 0 1
170 1 0 1.7469e+09 1.74715e+09 1.74817e+09 1.74822e+09 0 1
171 1 1 1.75093e+09 1.75119e+09 1.7522e+09 1.75223e+09 0 0
172 1 0 1.75965e+09 1.7599e+09 1.76092e+09 1.76111e+09 1 1
173 2 0 1.76397e+09 1.76421e+09 1.76523e+09 1.76541e+09 0 0
174 2 1 1.77268e+09 1.77293e+09 1.77395e+09 1.77823e+09 1 1
175 1 0 1.78107e+09 1.78133e+09 1.78235e+09 1.78242e+09 0 1
176 1 0 1.78501e+09 1.78526e+09 1.78628e+09 1.78632e+09 0 1
177 2 1 1.79201e+09 1.79226e+09 1.79328e+09 1.79726e+09 0 1
178 1 0 1.79991e+09 1.80015e+09 1.80117e+09 1.80123e+09 0 1
179 1 0 1.80385e+09 1.80409e+09 1.80511e+09 1.80513e+09 0 1
180 1 0 1.81416e+09 1.81441e+09 1.81543e+09 1.81544e+09 0 1
181 1 0 1.82098e+09 1.82123e+09 1.82225e+09 1.82232e+09 0 1
182 2 0 1.82802e+09 1.82828e+09 1.8293e+09 1.8295e+09 0 0
183 2 0 1.8368e+09 1.83706e+09 1.83808e+09 1.83826e+09 1 0
184 2 1 1.846e+09 1.84626e+09 1.84728e+09 1.84803e+09 1 1
185 3 1 1.85077e+09 1.85103e+09 1.85205e+09 1.85224e+09 0 1
186 1 0 1.85512e+09 1.85537e+09 1.85639e+09 1.85645e+09 0 1
187 3 1 1.86289e+09 1.86313e+09 1.86415e+09 1.86495e+09 0 1
188 1 1 1.86785e+09 1.86812e+09 1.86914e+09 1.86922e+09 0 0
189 1 0 1.87652e+09 1.87677e+09 1.87779e+09 1.8779e+09 1 1
190 2 1 1.88083e+09 1.88108e+09 1.8821e+09 1.88211e+09 0 1
191 2 0 1.88475e+09 1.885e+09 1.88602e+09 1.88605e+09 0 0
192 2 1 1.89355e+09 1.89381e+09 1.89483e+09 1.89883e+09 1 1
193 1 1 1.90266e+09 1.90291e+09 1.90393e+09 1.90987e+09 0 0
194 1 1 1.91732e+09 1.91758e+09 1.9186e+09 1.92361e+09 1 0
195 1 0 1.93077e+09 1.93102e+09 1.93204e+09 1.93261e+09 1 1
196 3 1 1.93513e+09 1.93539e+09 1.93641e+09 1.93641e+09 0 1
197 3 0 1.93894e+09 1.9392e+09 1.94022e+09 1.94037e+09 0 0
198 3 0 1.94742e+09 1.94768e+09 1.9487e+09 1.94888e+09 1 0
199 3 0 1.95609e+09 1.95634e+09 1.95736e+09 1.95783e+09 1 0
200 3 1 1.96502e+09 1.96527e+09 1.96629e+09 1.96794e+09 1 1
201 2 0 1.97069e+09 1.97095e+09 1.97196e+09 1.97202e+09 0 0
202 2 1 1.98256e+09 1.98281e+09 1.98383e+09 1.98471e+09 1 1
203 1 0 1.98755e+09 1.9878e+09 1.98882e+09 1.98884e+09 0 1
204 1 0 1.99174e+09 1.99199e+09 1.99301e+09 1.99303e+09 0 1
205 1 0 1.99573e+09 1.99598e+09 1.997e+09 1.99701e+09 0 1
206 2 1 1.99983e+09 2.00008e+09 2.0011e+09 2.00969e+09 0 1
207 1 1 2.01267e+09 2.01292e+09 2.01394e+09 2.02215e+09 0 0
208 1 0 2.02922e+09 2.02947e+09 2.03049e+09 2.03055e+09 1 1
209 1 0 2.03322e+09 2.03347e+09 2.03449e+09 2.03459e+09 0 1
210 1 0 2.03748e+09 2.03773e+09 2.03875e+09 2.03912e+09 0 1
211 2 1 2.04167e+09 2.04192e+09 2.04294e+09 2.0433e+09 0 1
212 2 1 2.04585e+09 2.0461e+09 2.04712e+09 2.04724e+09 0 1
213 1 1 2.05006e+09 2.05032e+09 2.05134e+09 2.0514e+09 0 0
214 1 0 2.05936e+09 2.05962e+09 2.06064e+09 2.06064e+09 1 1
215 3 1 2.06331e+09 2.06356e+09 2.06458e+09 2.06557e+09 0 1
216 1 0 2.07002e+09 2.07028e+09 2.0713e+09 2.0714e+09 0 1
217 3 1 2.07421e+09 2.07446e+09 2.07548e+09 2.07549e+09 0 1
218 3 1 2.0784e+09 2.07865e+09 2.07967e+09 2.07997e+09 0 1
219 1 0 2.08272e+09 2.08297e+09 2.08399e+09 2.08412e+09 0 1
220 1 0 2.08677e+09 2.08702e+09 2.08804e+09 2.08805e+09 0 1
221 1 0 2.09088e+09 2.09113e+09 2.09215e+09 2.09216e+09 0 1
222 2 0 2.0985e+09 2.09876e+09 2.09978e+09 2.10001e+09 0 0
223 2 0 2.10759e+09 2.10785e+09 2.10887e+09 2.10887e+09 1 0
224 2 1 2.12024e+09 2.12049e+09 2.12151e+09 2.12787e+09 1 1
225 2 0 2.13066e+09 2.13091e+09 2.13193e+09 2.13195e+09 0 0
226 2 1 2.13943e+09 2.13968e+09 2.1407e+09 2.15134e+09 1 1
227 2 1 2.15807e+09 2.15833e+09 2.15935e+09 2.16102e+09 0 1
228 1 0 2.16386e+09 2.1641e+09 2.16512e+09 2.16513e+09 0 1
229 3 1 2.17153e+09 2.17178e+09 2.1728e+09 2.17431e+09 0 1
230 3 1 2.1771e+09 2.17735e+09 2.17837e+09 2.17863e+09 0 1
231 3 1 2.18149e+09 2.18174e+09 2.18276e+09 2.18298e+09 0 1
232 1 0 2.18596e+09 2.18621e+09 2.18723e+09 2.18726e+09 0 1
233 2 1 2.18987e+09 2.19012e+09 2.19113e+09 2.19115e+09 0 1
234 2 1 2.19418e+09 2.19443e+09 2.19545e+09 2.19547e+09 0 1
235 1 0 2.19824e+09 2.1985e+09 2.19952e+09 2.19973e+09 0 1
236 1 0 2.20568e+09 2.20592e+09 2.20694e+09 2.20695e+09 0 1
237 2 0 2.21091e+09 2.21116e+09 2.21218e+09 2.21224e+09 0 0
238 2 1 2.22111e+09 2.22136e+09 2.22238e+09 2.22754e+09 1 1
239 1 1 2.23024e+09 2.2305e+09 2.23152e+09 2.23156e+09 0 0
240 1 0 2.23886e+09 2.23911e+09 2.24013e+09 2.24014e+09 1 1
241 1 0 2.24282e+09 2.24307e+09 2.24409e+09 2.24417e+09 0 1
242 3 1 2.24713e+09 2.24739e+09 2.24841e+09 2.24842e+09 0 1
243 3 1 2.25128e+09 2.25153e+09 2.25255e+09 2.25257e+09 0 1
244 1 0 2.25509e+09 2.25533e+09 2.25635e+09 2.25636e+09 0 1
245 3 1 2.25933e+09 2.25959e+09 2.26061e+09 2.26065e+09 0 1
246 1 0 2.26316e+09 2.26341e+09 2.26443e+09 2.26447e+09 0 1
247 3 0 2.26716e+09 2.26741e+09 2.26843e+09 2.26847e+09 0 0
248 3 0 2.27561e+09 2.27586e+09 2.27688e+09 2.27823e+09 1 0
249 3 0 2.28911e+09 2.28936e+09 2.29038e+09 2.29741e+09 1 0
250 3 0 2.30478e+09 2.30503e+09 2.30605e+09 2.30783e+09 1 0
251 3 0 2.31619e+09 2.31645e+09 2.31747e+09 2.32821e+09 0 0
252 2 0 2.33548e+09 2.33573e+09 2.33675e+09 2.34798e+09 0 0
253 1 0 2.35538e+09 2.35563e+09 2.35665e+09 2.37252e+09 0 1
254 1 0 2.37551e+09 2.37577e+09 2.37679e+09 2.37683e+09 0 1
255 2 0 2.37955e+09 2.37981e+09 2.38083e+09 2.38087e+09 0 0
256 2 0 2.38826e+09 2.38852e+09 2.38954e+09 2.3914e+09 1 0
257 2 0 2.39863e+09 2.39888e+09 2.3999e+09 2.41402e+09 1 0
258 2 0 2.42129e+09 2.42154e+09 2.42256e+09 2.60869e+09 1 0
259 3 0 2.61581e+09 2.61606e+09 2.61708e+09 2.63132e+09 0 0
260 3 1 2.63841e+09 2.63866e+09 2.63968e+09 2.64506e+09 0 1
261 1 1 2.65002e+09 2.65027e+09 2.65129e+09 2.65868e+09 0 0
262 1 0 2.66599e+09 2.66624e+09 2.66726e+09 2.66767e+09 1 1
263 1 0 2.6704e+09 2.67066e+09 2.67168e+09 2.69138e+09 0 1
264 3 0 2.69408e+09 2.69433e+09 2.69535e+09 2.71935e+09 0 0
265 3 0 2.72681e+09 2.72706e+09 2.72808e+09 2.74354e+09 1 0
266 3 0 2.7508e+09 2.75105e+09 2.75207e+09 2.75919e+09 1 0
267 3 0 2.76627e+09 2.76653e+09 2.76755e+09 2.77923e+09 1 0
268 3 0 2.78658e+09 2.78683e+09 2.78785e+09 2.81212e+09 0 0
269 3 0 2.81945e+09 2.8197e+09 2.82072e+09 2.84451e+09 0 0
270 1 0 2.85165e+09 2.85189e+09 2.85291e+09 2.85709e+09 0 1
271 1 0 2.8599e+09 2.86015e+09 2.86117e+09 2.88135e+09 0 1
272 2 0 2.88495e+09 2.8852e+09 2.88622e+09 2.90128e+09 0 0
273 2 0 2.90851e+09 2.90876e+09 2.90978e+09 2.93475e+09 1 0
274 2 0 2.94204e+09 2.94229e+09 2.94331e+09 2.95051e+09 1 0
275 2 0 2.95761e+09 2.95786e+09 2.95888e+09 2.96461e+09 1 0
276 2 1 2.97231e+09 2.97257e+09 2.97359e+09 2.9738e+09 0 1
277 2 0 2.97647e+09 2.97672e+09 2.97774e+09 2.98033e+09 0 0
278 2 0 2.98757e+09 2.98782e+09 2.98884e+09 3.05216e+09 1 0
