trial trialType response stillTime stimOnset stimOffset respTime correctionTrial correct
001 1 1 1.03424e+07 1.06597e+07 1.16793e+07 1.19287e+07 0 0
002 1 0 1.9241e+07 1.95137e+07 2.05333e+07 2.08522e+07 1 1
003 1 1 2.35428e+07 2.38358e+07 2.48554e+07 2.49129e+07 0 0
004 1 0 3.71292e+07 3.74009e+07 3.84205e+07 4.00506e+07 1 1
005 1 1 5.1585e+07 5.18511e+07 5.28707e+07 5.36773e+07 0 0
006 1 1 6.97385e+07 6.99906e+07 7.10102e+07 7.14716e+07 1 0
007 1 1 8.14961e+07 8.17488e+07 8.27684e+07 8.28145e+07 1 0
008 1 1 9.05749e+07 9.08419e+07 9.18615e+07 9.33583e+07 1 0
009 2 0 1.02227e+08 1.02492e+08 1.03511e+08 1.04587e+08 0 0
010 1 0 1.11887e+08 1.12146e+08 1.13165e+08 1.13663e+08 0 1
011 2 0 1.24745e+08 1.25006e+08 1.26026e+08 1.26177e+08 0 0
012 2 0 1.34616e+08 1.3487e+08 1.35889e+08 1.36948e+08 1 0
013 2 0 1.48186e+08 1.48449e+08 1.49469e+08 1.50111e+08 1 0
014 2 1 1.57192e+08 1.57452e+08 1.58472e+08 1.58559e+08 1 1
015 1 0 1.6755e+08 1.67801e+08 1.6882e+08 1.71497e+08 0 1
016 2 0 1.77497e+08 1.77749e+08 1.78769e+08 1.79413e+08 0 0
017 2 0 1.88905e+08 1.89161e+08 1.90181e+08 1.90714e+08 1 0
018 2 1 2.02052e+08 2.02307e+08 2.03327e+08 2.03938e+08 1 1
019 1 0 2.17999e+08 2.18257e+08 2.19277e+08 2.21555e+08 0 1
020 1 0 2.28877e+08 2.2913e+08 2.3015e+08 2.30708e+08 0 1
021 1 0 2.47756e+08 2.48008e+08 2.49027e+08 2.50208e+08 0 1
022 2 0 2.56542e+08 2.56802e+08 2.57822e+08 2.58262e+08 0 0
023 2 1 2.65798e+08 2.66055e+08 2.67075e+08 2.67286e+08 1 1
024 2 0 2.71507e+08 2.71771e+08 2.72791e+08 2.73733e+08 0 0
025 2 0 2.82891e+08 2.83143e+08 2.84162e+08 2.8447e+08 1 0
026 2 1 3.06088e+08 3.06348e+08 3.07368e+08 3.12076e+08 1 1
027 2 0 3.18984e+08 3.19248e+08 3.20268e+08 3.21381e+08 0 0
028 2 0 3.35801e+08 3.36052e+08 3.37072e+08 3.37577e+08 1 0
029 2 1 3.44928e+08 3.45177e+08 3.46197e+08 3.46813e+08 1 1
030 1 1 3.64677e+08 3.64931e+08 3.6595e+08 3.66631e+08 0 0
031 1 0 3.75019e+08 3.75273e+08 3.76293e+08 3.77628e+08 1 1
032 2 0 3.80488e+08 3.80751e+08 3.81771e+08 3.82962e+08 0 0
033 2 1 3.90698e+08 3.9096e+08 3.9198e+08 3.92051e+08 1 1
034 1 0 4.11054e+08 4.11319e+08 4.12339e+08 4.12817e+08 0 1
035 1 1 4.219e+08 4.22153e+08 4.23173e+08 4.24188e+08 0 0
036 1 1 4.31865e+08 4.32118e+08 4.33137e+08 4.33147e+08 1 0
037 1 0 4.42058e+08 4.42321e+08 4.43341e+08 4.44033e+08 1 1
038 2 1 4.46744e+08 4.46998e+08 4.48017e+08 4.49375e+08 0 1
039 2 1 4.55348e+08 4.5561e+08 4.5663e+08 4.56769e+08 0 1
040 2 0 4.6088e+08 4.61137e+08 4.62157e+08 4.63063e+08 0 0
041 2 1 4.71777e+08 4.72032e+08 4.73051e+08 4.74574e+08 1 1
042 1 0 4.79389e+08 4.79649e+08 4.80668e+08 4.81622e+08 0 1
043 2 0 4.91136e+08 4.91397e+08 4.92417e+08 4.9345e+08 0 0
044 2 1 5.04388e+08 5.04638e+08 5.05658e+08 5.06623e+08 1 1
045 2 1 5.24156e+08 5.24408e+08 5.25428e+08 5.26839e+08 0 1
046 2 1 5.40685e+08 5.40952e+08 5.41971e+08 5.45218e+08 0 1
047 2 0 5.50114e+08 5.50362e+08 5.51381e+08 5.52394e+08 0 0
048 2 0 5.59516e+08 5.5978e+08 5.608e+08 5.62579e+08 1 0
049 2 0 5.70086e+08 5.70355e+08 5.71375e+08 5.71891e+08 1 0
050 2 0 5.80337e+08 5.80598e+08 5.81618e+08 5.82712e+08 1 0
051 1 1 5.92254e+08 5.92519e+08 5.93538e+08 5.94442e+08 0 0
052 2 0 6.02051e+08 6.02304e+08 6.03323e+08 6.03902e+08 0 0
053 1 1 6.13682e+08 6.1394e+08 6.1496e+08 6.15054e+08 0 0
054 2 0 6.26542e+08 6.26793e+08 6.27813e+08 6.28509e+08 0 0
055 1 1 6.35793e+08 6.36049e+08 6.37069e+08 6.41347e+08 0 0
056 1 0 6.50464e+08 6.50747e+08 6.51766e+08 6.54345e+08 0 1
057 1 1 6.57065e+08 6.57316e+08 6.58336e+08 6.58923e+08 0 0
058 1 1 6.68621e+08 6.6887e+08 6.6989e+08 6.7072e+08 1 0
059 1 0 6.78613e+08 6.78876e+08 6.79896e+08 6.79915e+08 1 1
060 1 0 6.86093e+08 6.86339e+08 6.87358e+08 6.88714e+08 0 1
061 2 0 6.93814e+08 6.94066e+08 6.95085e+08 6.95553e+08 0 0
062 2 0 7.04961e+08 7.0522e+08 7.06239e+08 7.07581e+08 1 0
063 2 0 7.1893e+08 7.19177e+08 7.20197e+08 7.20922e+08 1 0
064 2 1 7.2804e+08 7.28292e+08 7.29312e+08 7.29362e+08 1 1
065 1 0 7.45941e+08 7.46198e+08 7.47218e+08 7.48371e+08 0 1
066 1 0 7.62316e+08 7.62574e+08 7.63594e+08 7.66014e+08 0 1
067 1 1 7.8389e+08 7.84149e+08 7.85169e+08 7.86591e+08 0 0
068 1 1 7.94032e+08 7.94277e+08 7.95297e+08 7.95533e+08 1 0
069 1 0 8.03839e+08 8.04098e+08 8.05118e+08 8.05143e+08 1 1
070 2 0 8.08978e+08 8.0924e+08 8.10259e+08 8.10315e+08 0 0
071 2 0 8.17649e+08 8.17905e+08 8.18924e+08 8.20643e+08 1 0
072 2 0 8.3055e+08 8.30795e+08 8.31815e+08 8.33122e+08 1 0
073 2 0 8.41479e+08 8.41731e+08 8.42751e+08 8.43701e+08 1 0
074 1 1 8.50811e+08 8.51074e+08 8.52094e+08 8.52115e+08 0 0
075 2 0 8.59561e+08 8.59823e+08 8.60843e+08 8.61462e+08 0 0
076 1 1 8.68865e+08 8.69116e+08 8.70136e+08 8.70931e+08 0 0
077 2 0 8.78285e+08 8.78537e+08 8.79557e+08 8.80406e+08 0 0
078 2 0 8.87537e+08 8.87789e+08 8.88808e+08 8.93303e+08 0 0
079 1 1 9.00823e+08 9.01075e+08 9.02095e+08 9.03355e+08 0 0
080 2 1 9.10602e+08 9.10855e+08 9.11874e+08 9.11883e+08 0 1
081 1 1 9.17812e+08 9.18069e+08 9.19088e+08 9.2017e+08 0 0
082 1 1 9.28036e+08 9.28301e+08 9.29321e+08 9.30208e+08 1 0
083 1 0 9.38477e+08 9.38736e+08 9.39756e+08 9.39783e+08 1 1
084 2 0 9.44543e+08 9.44787e+08 9.45806e+08 9.48172e+08 0 0
085 2 1 9.55374e+08 9.55637e+08 9.56656e+08 9.57774e+08 1 1
086 1 1 9.64814e+08 9.65071e+08 9.66091e+08 9.66482e+08 0 0
087 1 0 9.73618e+08 9.7387e+08 9.7489e+08 9.75134e+08 1 1
088 2 1 9.83576e+08 9.83838e+08 9.84857e+08 9.85691e+08 0 1
089 1 1 9.97178e+08 9.97437e+08 9.98456e+08 9.99176e+08 0 0
090 1 0 1.00784e+09 1.00808e+09 1.0091e+09 1.00931e+09 1 1
091 2 0 1.01208e+09 1.01234e+09 1.01336e+09 1.01337e+09 0 0
092 2 0 1.02234e+09 1.02258e+09 1.0236e+09 1.02387e+09 1 0
093 2 0 1.03123e+09 1.03149e+09 1.03251e+09 1.03254e+09 1 0
094 2 0 1.04133e+09 1.04158e+09 1.0426e+09 1.04277e+09 1 0
095 1 0 1.05037e+09 1.05063e+09 1.05165e+09 1.05277e+09 0 1
096 2 0 1.06263e+09 1.06289e+09 1.06391e+09 1.06434e+09 0 0
097 2 1 1.07256e+09 1.07281e+09 1.07382e+09 1.07488e+09 1 1
098 2 0 1.0881e+09 1.08835e+09 1.08937e+09 1.08998e+09 0 0
099 2 0 1.09908e+09 1.09933e+09 1.10035e+09 1.10079e+09 1 0
100 2 0 1.10797e+09 1.10822e+09 1.10924e+09 1.1109e+09 1 0
101 2 0 1.11947e+09 1.11973e+09 1.12075e+09 1.12094e+09 1 0
102 2 1 1.12904e+09 1.1293e+09 1.13032e+09 1.1321e+09 0 1
103 2 0 1.14151e+09 1.14178e+09 1.1428e+09 1.14293e+09 0 0
104 2 0 1.15773e+09 1.15798e+09 1.159e+09 1.15913e+09 1 0
105 2 0 1.16744e+09 1.1677e+09 1.16872e+09 1.16955e+09 1 0
106 2 1 1.18049e+09 1.18075e+09 1.18177e+09 1.18187e+09 1 1
107 2 0 1.18668e+09 1.18694e+09 1.18796e+09 1.18825e+09 0 0
108 2 0 1.19719e+09 1.19745e+09 1.19847e+09 1.19992e+09 1 0
109 2 0 1.20726e+09 1.20751e+09 1.20853e+09 1.20868e+09 1 0
110 2 0 1.21611e+09 1.21637e+09 1.21739e+09 1.21747e+09 1 0
111 2 0 1.22708e+09 1.22733e+09 1.22835e+09 1.22925e+09 0 0
112 1 1 1.23863e+09 1.2389e+09 1.23991e+09 1.23994e+09 0 0
113 2 0 1.24729e+09 1.24755e+09 1.24857e+09 1.24875e+09 0 0
114 1 1 1.25781e+09 1.25806e+09 1.25908e+09 1.26033e+09 0 0
115 1 1 1.26884e+09 1.2691e+09 1.27012e+09 1.27029e+09 0 0
116 1 0 1.27978e+09 1.28004e+09 1.28106e+09 1.28131e+09 0 1
117 2 0 1.28489e+09 1.28516e+09 1.28617e+09 1.28621e+09 0 0
118 2 0 1.29531e+09 1.29556e+09 1.29658e+09 1.29677e+09 1 0
119 2 0 1.31026e+09 1.31051e+09 1.31153e+09 1.31267e+09 1 0
120 2 0 1.33637e+09 1.33662e+09 1.33764e+09 1.34105e+09 1 0
121 1 0 1.34925e+09 1.34952e+09 1.35054e+09 1.35254e+09 0 1
122 2 0 1.35668e+09 1.35693e+09 1.35795e+09 1.35846e+09 0 0
123 2 1 1.36597e+09 1.36622e+09 1.36724e+09 1.36725e+09 1 1
124 2 0 1.37904e+09 1.3793e+09 1.38032e+09 1.38133e+09 0 0
125 2 0 1.38997e+09 1.39023e+09 1.39125e+09 1.39338e+09 1 0
126 2 0 1.40228e+09 1.40253e+09 1.40355e+09 1.4044e+09 1 0
127 2 0 1.41242e+09 1.41267e+09 1.41369e+09 1.41395e+09 1 0
128 2 0 1.42267e+09 1.42292e+09 1.42394e+09 1.42445e+09 0 0
129 1 0 1.43155e+09 1.43181e+09 1.43283e+09 1.43297e+09 0 1
130 1 0 1.45669e+09 1.45694e+09 1.45796e+09 1.45842e+09 0 1
131 2 0 1.4649e+09 1.46517e+09 1.46619e+09 1.46688e+09 0 0
132 2 0 1.48079e+09 1.48104e+09 1.48206e+09 1.48326e+09 1 0
133 2 1 1.49036e+09 1.49062e+09 1.49164e+09 1.49168e+09 1 1
134 2 1 1.50222e+09 1.50247e+09 1.50349e+09 1.50406e+09 0 1
135 2 0 1.50819e+09 1.50845e+09 1.50947e+09 1.51029e+09 0 0
136 2 0 1.52291e+09 1.52317e+09 1.52419e+09 1.52421e+09 1 0
137 2 1 1.53222e+09 1.53249e+09 1.53351e+09 1.53513e+09 1 1
138 1 0 1.53997e+09 1.54023e+09 1.54125e+09 1.54214e+09 0 1
139 1 0 1.55641e+09 1.55668e+09 1.5577e+09 1.55802e+09 0 1
140 1 0 1.57342e+09 1.57368e+09 1.5747e+09 1.5757e+09 0 1
141 2 1 1.58687e+09 1.58713e+09 1.58815e+09 1.58817e+09 0 1
142 1 1 1.59312e+09 1.59337e+09 1.59439e+09 1.59569e+09 0 0
143 1 0 1.6036e+09 1.60386e+09 1.60488e+09 1.60555e+09 1 1
144 1 0 1.61007e+09 1.61034e+09 1.61136e+09 1.61147e+09 0 1
145 1 0 1.62063e+09 1.6209e+09 1.62192e+09 1.62211e+09 0 1
146 2 0 1.62613e+09 1.62639e+09 1.6274e+09 1.62795e+09 0 0
147 2 0 1.63674e+09 1.637e+09 1.63802e+09 1.63808e+09 1 0
148 2 0 1.6453e+09 1.64557e+09 1.64658e+09 1.64869e+09 1 0
149 2 1 1.65859e+09 1.65885e+09 1.65986e+09 1.66006e+09 1 1
150 1 0 1.66775e+09 1.668e+09 1.66902e+09 1.67049e+09 0 1
151 1 1 1.68053e+09 1.68078e+09 1.6818e+09 1.68184e+09 0 0
152 1 0 1.7007e+09 1.70096e+09 1.70198e+09 1.70214e+09 1 1
153 2 0 1.72394e+09 1.72419e+09 1.72521e+09 1.72733e+09 0 0
154 2 0 1.73615e+09 1.73641e+09 1.73743e+09 1.73746e+09 1 0
155 2 0 1.74499e+09 1.74525e+09 1.74627e+09 1.748e+09 1 0
156 2 1 1.75784e+09 1.75811e+09 1.75913e+09 1.75956e+09 1 1
157 2 0 1.77326e+09 1.77352e+09 1.77454e+09 1.77467e+09 0 0
158 2 0 1.78282e+09 1.78308e+09 1.7841e+09 1.78422e+09 1 0
159 2 0 1.79713e+09 1.79738e+09 1.7984e+09 1.79846e+09 1 0
160 2 1 1.80563e+09 1.80589e+09 1.80691e+09 1.80692e+09 1 1
161 2 0 1.81472e+09 1.81497e+09 1.81599e+09 1.81606e+09 0 0
162 2 0 1.82415e+09 1.82441e+09 1.82543e+09 1.82704e+09 1 0
163 2 1 1.83851e+09 1.83878e+09 1.8398e+09 1.83988e+09 1 1
164 1 1 1.84715e+09 1.84741e+09 1.84843e+09 1.84857e+09 0 0
165 1 0 1.8624e+09 1.86265e+09 1.86367e+09 1.86378e+09 1 1
166 1 1 1.8702e+09 1.87046e+09 1.87147e+09 1.87196e+09 0 0
167 1 0 1.88046e+09 1.88072e+09 1.88174e+09 1.88189e+09 1 1
168 2 0 1.89653e+09 1.89678e+09 1.8978e+09 1.89949e+09 0 0
169 2 1 1.91509e+09 1.91534e+09 1.91636e+09 1.91663e+09 1 1
170 2 0 1.92065e+09 1.92092e+09 1.92193e+09 1.92219e+09 0 0
171 2 0 1.93136e+09 1.93161e+09 1.93263e+09 1.93382e+09 1 0
172 2 0 1.94494e+09 1.94519e+09 1.94621e+09 1.94704e+09 1 0
173 2 0 1.95665e+09 1.95692e+09 1.95793e+09 1.95812e+09 1 0
174 1 0 1.96705e+09 1.9673e+09 1.96832e+09 1.96852e+09 0 1
175 1 1 1.98269e+09 1.98294e+09 1.98396e+09 1.98484e+09 0 0
176 1 0 1.99597e+09 1.99622e+09 1.99724e+09 1.99729e+09 1 1
177 1 0 2.00547e+09 2.00572e+09 2.00674e+09 2.00708e+09 0 1
178 2 0 2.02087e+09 2.02113e+09 2.02215e+09 2.02405e+09 0 0
179 2 0 2.03317e+09 2.03343e+09 2.03445e+09 2.03465e+09 1 0
180 2 1 2.04401e+09 2.04426e+09 2.04528e+09 2.0462e+09 1 1
181 1 0 2.05628e+09 2.05654e+09 2.05756e+09 2.05847e+09 0 1
182 2 1 2.06305e+09 2.06331e+09 2.06433e+09 2.06442e+09 0 1
183 1 0 2.07099e+09 2.07126e+09 2.07228e+09 2.07305e+09 0 1
184 2 1 2.07558e+09 2.07584e+09 2.07686e+09 2.07749e+09 0 1
185 2 0 2.09094e+09 2.0912e+09 2.09222e+09 2.09233e+09 0 0
186 2 1 2.10646e+09 2.10672e+09 2.10774e+09 2.10998e+09 1 1
187 1 0 2.13136e+09 2.13162e+09 2.13264e+09 2.13416e+09 0 1
188 2 1 2.14151e+09 2.14176e+09 2.14278e+09 2.1428e+09 0 1
189 2 0 2.1582e+09 2.15846e+09 2.15948e+09 2.15968e+09 0 0
190 2 0 2.17587e+09 2.17612e+09 2.17714e+09 2.17897e+09 1 0
191 2 1 2.18943e+09 2.18968e+09 2.1907e+09 2.19136e+09 1 1
192 1 0 2.21533e+09 2.2156e+09 2.21662e+09 2.217e+09 0 1
193 1 1 2.22491e+09 2.22516e+09 2.22618e+09 2.22633e+09 0 0
194 1 1 2.23869e+09 2.23895e+09 2.23997e+09 2.24001e+09 1 0
195 1 0 2.24952e+09 2.24978e+09 2.2508e+09 2.25107e+09 1 1
196 1 0 2.25758e+09 2.25785e+09 2.25886e+09 2.25959e+09 0 1
197 2 0 2.26369e+09 2.26394e+09 2.26496e+09 2.26598e+09 0 0
198 2 0 2.27342e+09 2.27367e+09 2.27469e+09 2.27482e+09 1 0
199 2 1 2.28553e+09 2.28579e+09 2.28681e+09 2.28717e+09 1 1
200 2 0 2.299e+09 2.29925e+09 2.30027e+09 2.30105e+09 0 0
201 2 1 2.31873e+09 2.319e+09 2.32002e+09 2.32232e+09 1 1
202 1 1 2.33931e+09 2.33957e+09 2.34059e+09 2.34139e+09 0 0
203 1 0 2.35283e+09 2.35308e+09 2.3541e+09 2.35545e+09 1 1
204 2 0 2.36793e+09 2.36818e+09 2.3692e+09 2.36936e+09 0 0
205 2 0 2.37748e+09 2.37772e+09 2.37874e+09 2.37888e+09 1 0
206 2 1 2.38724e+09 2.38749e+09 2.38851e+09 2.38887e+09 1 1
207 2 0 2.41369e+09 2.41395e+09 2.41497e+09 2.4151e+09 0 0
208 2 1 2.42218e+09 2.42243e+09 2.42345e+09 2.4316e+09 1 1
209 2 1 2.44641e+09 2.44668e+09 2.4477e+09 2.44971e+09 0 1
210 1 0 2.48115e+09 2.4814e+09 2.48242e+09 2.48268e+09 0 1
211 2 1 2.48556e+09 2.48582e+09 2.48684e+09 2.48705e+09 0 1
212 1 0 2.49661e+09 2.49688e+09 2.4979e+09 2.49798e+09 0 1
213 2 0 2.50358e+09 2.50384e+09 2.50486e+09 2.50494e+09 0 0
214 2 1 2.51794e+09 2.5182e+09 2.51922e+09 2.52057e+09 1 1
215 2 1 2.53149e+09 2.53174e+09 2.53276e+09 2.53289e+09 0 1
216 1 0 2.55012e+09 2.55037e+09 2.55139e+09 2.55219e+09 0 1
217 1 0 2.56242e+09 2.56269e+09 2.56371e+09 2.56373e+09 0 1
218 1 0 2.56984e+09 2.5701e+09 2.57112e+09 2.57147e+09 0 1
219 2 0 2.58597e+09 2.58622e+09 2.58724e+09 2.58782e+09 0 0
220 2 0 2.59646e+09 2.59672e+09 2.59774e+09 2.59957e+09 1 0
221 2 0 2.60784e+09 2.6081e+09 2.60912e+09 2.60973e+09 1 0
222 2 1 2.62025e+09 2.62052e+09 2.62154e+09 2.62383e+09 1 1
223 1 0 2.65472e+09 2.65498e+09 2.656e+09 2.65707e+09 0 1
224 2 1 2.66697e+09 2.66722e+09 2.66824e+09 2.66825e+09 0 1
225 1 0 2.68001e+09 2.68026e+09 2.68128e+09 2.6813e+09 0 1
226 2 1 2.69597e+09 2.69622e+09 2.69724e+09 2.69833e+09 0 1
227 2 1 2.71074e+09 2.711e+09 2.71202e+09 2.71223e+09 0 1
228 2 0 2.72923e+09 2.72948e+09 2.7305e+09 2.73075e+09 0 0
229 2 0 2.73784e+09 2.7381e+09 2.73912e+09 2.74244e+09 1 0
230 2 0 2.75275e+09 2.753e+09 2.75402e+09 2.7541e+09 1 0
231 2 0 2.77067e+09 2.77092e+09 2.77193e+09 2.77238e+09 1 0
232 1 1 2.78093e+09 2.78119e+09 2.78221e+09 2.78282e+09 0 0
233 1 0 2.79141e+09 2.79166e+09 2.79268e+09 2.79402e+09 0 1
234 2 1 2.81399e+09 2.81425e+09 2.81527e+09 2.81562e+09 0 1
235 1 1 2.81837e+09 2.81863e+09 2.81964e+09 2.82019e+09 0 0
236 1 0 2.83113e+09 2.83138e+09 2.8324e+09 2.83244e+09 1 1
237 1 0 2.84422e+09 2.84448e+09 2.8455e+09 2.84741e+09 0 1
238 1 1 2.84993e+09 2.85018e+09 2.8512e+09 2.85149e+09 0 0
239 1 1 2.85894e+09 2.85919e+09 2.86021e+09 2.86036e+09 1 0
240 1 1 2.86782e+09 2.86807e+09 2.86909e+09 2.8696e+09 1 0
241 1 0 2.87892e+09 2.87918e+09 2.8802e+09 2.88083e+09 1 1
242 2 0 2.88378e+09 2.88404e+09 2.88506e+09 2.88507e+09 0 0
243 2 1 2.90338e+09 2.90364e+09 2.90466e+09 2.90532e+09 1 1
244 1 0 2.91611e+09 2.91636e+09 2.91738e+09 2.91823e+09 0 1
245 2 1 2.94056e+09 2.94083e+09 2.94184e+09 2.9419e+09 0 1
246 1 0 2.95334e+09 2.9536e+09 2.95462e+09 2.95489e+09 0 1
247 1 1 2.96463e+09 2.96488e+09 2.9659e+09 2.96901e+09 0 0
248 1 0 2.9772e+09 2.97746e+09 2.97848e+09 2.98243e+09 1 1
249 1 0 3.00428e+09 3.00453e+09 3.00554e+09 3.00675e+09 0 1
250 2 0 3.01985e+09 3.0201e+09 3.02112e+09 3.02157e+09 0 0
251 2 0 3.02896e+09 3.02921e+09 3.03023e+09 3.03116e+09 1 0
252 2 1 3.04681e+09 3.04707e+09 3.04809e+09 3.04928e+09 1 1
253 2 0 3.06274e+09 3.06299e+09 3.06401e+09 3.06531e+09 0 0
254 2 0 3.0761e+09 3.07636e+09 3.07738e+09 3.0774e+09 1 0
255 2 1 3.09507e+09 3.09533e+09 3.09635e+09 3.09649e+09 1 1
256 2 0 3.10506e+09 3.10531e+09 3.10633e+09 3.10641e+09 0 0
257 2 0 3.11734e+09 3.11761e+09 3.11863e+09 3.1187e+09 1 0
258 2 0 3.12598e+09 3.12623e+09 3.12725e+09 3.12942e+09 1 0
259 2 1 3.13778e+09 3.13803e+09 3.13905e+09 3.1423e+09 1 1
260 2 1 3.14482e+09 3.14507e+09 3.14609e+09 3.14747e+09 0 1
261 1 0 3.16146e+09 3.16171e+09 3.16273e+09 3.1629e+09 0 1
262 2 1 3.17885e+09 3.1791e+09 3.18012e+09 3.1806e+09 0 1
263 1 0 3.19095e+09 3.1912e+09 3.19222e+09 3.19263e+09 0 1
264 2 1 3.20717e+09 3.20743e+09 3.20845e+09 3.20916e+09 0 1
265 2 1 3.22197e+09 3.22222e+09 3.22324e+09 3.22333e+09 0 1
266 2 0 3.23628e+09 3.23654e+09 3.23756e+09 3.23796e+09 0 0
267 2 0 3.24559e+09 3.24585e+09 3.24687e+09 3.24721e+09 1 0
268 2 0 3.25879e+09 3.25905e+09 3.26007e+09 3.26042e+09 1 0
269 2 0 3.26915e+09 3.2694e+09 3.27042e+09 3.27201e+09 1 0
270 2 1 3.28075e+09 3.28101e+09 3.28202e+09 3.28274e+09 0 1
271 1 1 3.29278e+09 3.29304e+09 3.29406e+09 3.2945e+09 0 0
272 1 1 3.30253e+09 3.30279e+09 3.30381e+09 3.30459e+09 1 0
273 1 0 3.31597e+09 3.31623e+09 3.31725e+09 3.31783e+09 1 1
274 1 1 3.32835e+09 3.3286e+09 3.32962e+09 3.33019e+09 0 0
275 1 0 3.33806e+09 3.33831e+09 3.33933e+09 3.35267e+09 1 1
276 1 0 3.35529e+09 3.35554e+09 3.35656e+09 3.35729e+09 0 1
277 2 0 3.35995e+09 3.36021e+09 3.36123e+09 3.36125e+09 0 0
278 2 0 3.37269e+09 3.37294e+09 3.37396e+09 3.37422e+09 1 0
279 2 0 3.38251e+09 3.38277e+09 3.38378e+09 3.3843e+09 1 0
280 2 0 3.39437e+09 3.39463e+09 3.39565e+09 3.39757e+09 1 0
281 1 0 3.41227e+09 3.41253e+09 3.41355e+09 3.41368e+09 0 1
282 2 0 3.42502e+09 3.42529e+09 3.42631e+09 3.42767e+09 0 0
283 2 0 3.43634e+09 3.4366e+09 3.43762e+09 3.43767e+09 1 0
284 2 1 3.44994e+09 3.45019e+09 3.45121e+09 3.45239e+09 1 1
285 1 0 3.45766e+09 3.45792e+09 3.45894e+09 3.45938e+09 0 1
286 1 0 3.47759e+09 3.47784e+09 3.47886e+09 3.4801e+09 0 1
287 2 0 3.49333e+09 3.49358e+09 3.4946e+09 3.49466e+09 0 0
288 2 0 3.50238e+09 3.50264e+09 3.50365e+09 3.50451e+09 1 0
289 2 1 3.51333e+09 3.51358e+09 3.5146e+09 3.51498e+09 1 1
290 1 0 3.52199e+09 3.52226e+09 3.52328e+09 3.52348e+09 0 1
291 1 1 3.53512e+09 3.53539e+09 3.53641e+09 3.53652e+09 0 0
292 1 0 3.54666e+09 3.54692e+09 3.54794e+09 3.54795e+09 1 1
293 2 1 3.55411e+09 3.55437e+09 3.55539e+09 3.55545e+09 0 1
294 1 0 3.58069e+09 3.58095e+09 3.58197e+09 3.5823e+09 0 1
295 2 1 3.61291e+09 3.61317e+09 3.61419e+09 3.61465e+09 0 1
296 2 0 3.61726e+09 3.61752e+09 3.61854e+09 3.61856e+09 0 0
297 2 0 3.6335e+09 3.63376e+09 3.63477e+09 3.63481e+09 1 0
298 2 0 3.64335e+09 3.6436e+09 3.64462e+09 3.64561e+09 1 0
299 2 1 3.653e+09 3.65326e+09 3.65428e+09 3.65819e+09 1 1
300 1 1 3.66899e+09 3.66925e+09 3.67027e+09 3.6706e+09 0 0
301 1 1 3.67984e+09 3.68009e+09 3.68111e+09 3.68285e+09 1 0
302 1 0 3.69424e+09 3.69451e+09 3.69553e+09 3.69645e+09 1 1
303 1 0 3.70735e+09 3.7076e+09 3.70862e+09 3.70868e+09 0 1
304 2 1 3.7228e+09 3.72305e+09 3.72407e+09 3.72421e+09 0 1
305 2 1 3.73889e+09 3.73914e+09 3.74016e+09 3.74168e+09 0 1
306 1 0 3.75666e+09 3.75691e+09 3.75793e+09 3.75847e+09 0 1
307 1 1 3.77782e+09 3.77809e+09 3.77911e+09 3.78202e+09 0 0
308 1 0 3.78935e+09 3.78961e+09 3.79063e+09 3.79099e+09 1 1
309 2 1 3.79597e+09 3.79622e+09 3.79724e+09 3.79729e+09 0 1
310 1 1 3.80437e+09 3.80461e+09 3.80563e+09 3.80572e+09 0 0
311 1 0 3.81986e+09 3.82012e+09 3.82114e+09 3.82157e+09 1 1
312 1 0 3.82584e+09 3.8261e+09 3.82712e+09 3.82723e+09 0 1
313 2 0 3.84567e+09 3.84593e+09 3.84695e+09 3.84852e+09 0 0
314 2 1 3.85949e+09 3.85975e+09 3.86077e+09 3.86095e+09 1 1
315 2 1 3.87084e+09 3.8711e+09 3.87212e+09 3.87287e+09 0 1
316 1 0 3.89041e+09 3.89065e+09 3.89167e+09 3.89257e+09 0 1
317 2 0 3.89924e+09 3.8995e+09 3.90052e+09 3.90113e+09 0 0
318 2 1 3.91129e+09 3.91153e+09 3.91255e+09 3.91348e+09 1 1
319 2 1 3.91638e+09 3.91663e+09 3.91765e+09 3.91884e+09 0 1
320 2 0 3.93404e+09 3.93429e+09 3.93531e+09 3.93603e+09 0 0
321 2 0 3.95234e+09 3.95261e+09 3.95363e+09 3.95399e+09 1 0
322 2 0 3.96239e+09 3.96266e+09 3.96368e+09 3.96561e+09 1 0
323 2 0 3.9819e+09 3.98216e+09 3.98318e+09 3.9834e+09 1 0
324 2 1 3.99302e+09 3.99328e+09 3.99429e+09 3.99496e+09 0 1
325 1 0 3.99769e+09 3.99795e+09 3.99897e+09 3.99939e+09 0 1
326 1 1 4.01203e+09 4.01228e+09 4.0133e+09 4.01427e+09 0 0
327 1 0 4.02391e+09 4.02415e+09 4.02517e+09 4.02534e+09 1 1
328 1 1 4.03137e+09 4.03163e+09 4.03265e+09 4.03303e+09 0 0
329 1 0 4.04077e+09 4.04102e+09 4.04204e+09 4.04239e+09 1 1
330 1 1 4.0467e+09 4.04696e+09 4.04797e+09 4.04818e+09 0 0
331 1 1 4.05765e+09 4.0579e+09 4.05892e+09 4.05912e+09 1 0
332 1 0 4.0708e+09 4.07105e+09 4.07207e+09 4.07214e+09 1 1
333 2 0 4.07787e+09 4.07813e+09 4.07915e+09 4.08009e+09 0 0
334 2 0 4.09754e+09 4.09779e+09 4.09881e+09 4.09901e+09 1 0
335 2 0 4.10684e+09 4.10709e+09 4.10811e+09 4.10993e+09 1 0
336 2 1 4.11913e+09 4.11938e+09 4.1204e+09 4.12069e+09 1 1
337 1 0 4.12926e+09 4.12951e+09 4.13053e+09 4.13144e+09 0 1
338 1 1 4.14105e+09 4.1413e+09 4.14232e+09 4.14234e+09 0 0
339 1 1 4.15454e+09 4.1548e+09 4.15582e+09 4.15589e+09 1 0
340 1 1 4.16764e+09 4.16791e+09 4.16893e+09 4.16908e+09 1 0
341 1 1 4.17664e+09 4.17689e+09 4.17791e+09 4.17947e+09 1 0
342 2 1 4.18815e+09 4.1884e+09 4.18942e+09 4.19e+09 0 1
343 2 1 4.19297e+09 4.19322e+09 4.19424e+09 4.19444e+09 0 1
344 2 1 4.19699e+09 4.19726e+09 4.19828e+09 4.19891e+09 0 1
345 1 0 4.20153e+09 4.2018e+09 4.20282e+09 4.20284e+09 0 1
346 1 0 4.21658e+09 4.21684e+09 4.21786e+09 4.22113e+09 0 1
347 2 1 4.22568e+09 4.22594e+09 4.22696e+09 4.22728e+09 0 1
348 2 1 4.23694e+09 4.23721e+09 4.23822e+09 4.24019e+09 0 1
349 1 1 4.24274e+09 4.243e+09 4.24402e+09 4.24449e+09 0 0
350 1 0 4.25634e+09 4.2566e+09 4.25762e+09 4.25789e+09 1 1
351 2 0 4.26215e+09 4.2624e+09 4.26342e+09 4.26489e+09 0 0
352 2 0 4.27512e+09 4.27537e+09 4.27639e+09 4.27647e+09 1 0
353 2 0 4.28918e+09 4.28943e+09 4.29045e+09 4.29051e+09 1 0
354 2 0 1.37052e+07 1.39648e+07 1.49844e+07 1.59209e+07 1 0
355 1 1 2.38213e+07 2.40726e+07 2.50922e+07 2.53619e+07 0 0
356 1 1 3.37132e+07 3.39701e+07 3.49897e+07 3.5266e+07 0 0
357 2 0 4.45788e+07 4.48346e+07 4.58542e+07 4.79788e+07 0 0
358 1 0 5.51506e+07 5.54109e+07 5.64306e+07 5.64634e+07 0 1
359 2 1 6.32873e+07 6.35391e+07 6.45587e+07 6.49184e+07 0 1
360 2 1 7.48206e+07 7.50666e+07 7.60862e+07 7.66761e+07 0 1
361 1 1 7.92638e+07 7.95154e+07 8.0535e+07 8.29769e+07 0 0
362 1 1 9.01202e+07 9.03827e+07 9.14024e+07 9.21023e+07 1 0
363 1 1 1.01753e+08 1.02018e+08 1.03038e+08 1.03437e+08 1 0
364 1 1 1.11688e+08 1.11947e+08 1.12966e+08 1.13227e+08 1 0
365 1 1 1.25905e+08 1.26151e+08 1.27171e+08 1.27572e+08 0 0
366 1 0 1.37713e+08 1.37967e+08 1.38986e+08 1.39351e+08 0 1
367 2 0 1.52784e+08 1.53036e+08 1.54056e+08 1.54222e+08 0 0
368 2 0 1.61534e+08 1.61789e+08 1.62809e+08 1.63403e+08 1 0
369 2 0 1.73477e+08 1.73728e+08 1.74747e+08 1.78362e+08 1 0
370 2 1 1.86445e+08 1.86707e+08 1.87727e+08 1.87761e+08 1 1
371 1 0 2.03611e+08 2.03858e+08 2.04878e+08 2.05137e+08 0 1
372 1 0 2.13692e+08 2.13944e+08 2.14963e+08 2.22137e+08 0 1
373 2 1 2.30876e+08 2.31135e+08 2.32155e+08 2.32343e+08 0 1
374 1 1 2.44441e+08 2.44691e+08 2.45711e+08 2.45862e+08 0 0
375 1 0 2.53045e+08 2.53304e+08 2.54324e+08 2.55166e+08 1 1
376 1 0 2.69883e+08 2.70145e+08 2.71165e+08 2.7142e+08 0 1
377 1 0 2.79265e+08 2.7952e+08 2.8054e+08 2.80803e+08 0 1
378 2 1 2.86683e+08 2.86935e+08 2.87954e+08 2.88405e+08 0 1
379 2 0 2.96612e+08 2.96864e+08 2.97884e+08 2.97945e+08 0 0
380 2 1 3.05845e+08 3.0611e+08 3.07129e+08 3.0762e+08 1 1
381 1 1 3.25071e+08 3.25322e+08 3.26342e+08 3.26373e+08 0 0
382 1 1 3.34551e+08 3.34808e+08 3.35827e+08 3.37098e+08 1 0
383 1 1 3.47511e+08 3.47761e+08 3.48781e+08 3.4882e+08 1 0
384 1 0 3.57735e+08 3.57987e+08 3.59006e+08 3.62932e+08 1 1
385 2 0 3.65905e+08 3.66155e+08 3.67174e+08 3.67236e+08 0 0
386 2 0 3.80761e+08 3.81006e+08 3.82026e+08 3.82096e+08 1 0
387 2 1 3.91381e+08 3.91645e+08 3.92664e+08 3.94865e+08 1 1
388 2 1 4.0314e+08 4.03394e+08 4.04414e+08 4.04422e+08 0 1
389 1 0 4.16991e+08 4.1725e+08 4.1827e+08 4.19305e+08 0 1
390 1 0 4.21836e+08 4.22089e+08 4.23109e+08 4.29698e+08 0 1
391 1 1 4.32264e+08 4.32515e+08 4.33535e+08 4.34077e+08 0 0
392 1 0 4.41672e+08 4.41924e+08 4.42943e+08 4.47043e+08 1 1
393 2 1 4.50601e+08 4.50852e+08 4.51872e+08 4.52292e+08 0 1
394 1 1 4.58016e+08 4.58267e+08 4.59286e+08 4.59444e+08 0 0
395 1 0 4.67595e+08 4.67853e+08 4.68873e+08 4.69142e+08 1 1
396 1 0 4.78232e+08 4.78493e+08 4.79513e+08 4.79905e+08 0 1
397 1 1 4.85254e+08 4.85523e+08 4.86543e+08 4.88129e+08 0 0
398 1 1 4.97359e+08 4.97609e+08 4.98629e+08 4.98737e+08 1 0
399 1 1 5.061e+08 5.06363e+08 5.07383e+08 5.1164e+08 1 0
400 1 1 5.18749e+08 5.19011e+08 5.2003e+08 5.20053e+08 1 0
401 2 1 5.28146e+08 5.28411e+08 5.29431e+08 5.30358e+08 0 1
402 1 0 5.35197e+08 5.35441e+08 5.36461e+08 5.37879e+08 0 1
403 1 1 5.47403e+08 5.47668e+08 5.48688e+08 5.48695e+08 0 0
404 1 1 5.56007e+08 5.56263e+08 5.57282e+08 5.6259e+08 1 0
405 1 0 5.71723e+08 5.71978e+08 5.72997e+08 5.73157e+08 1 1
406 1 0 5.76049e+08 5.76316e+08 5.77335e+08 5.77364e+08 0 1
407 2 0 5.87886e+08 5.88142e+08 5.89162e+08 5.91193e+08 0 0
408 2 0 5.98703e+08 5.98961e+08 5.9998e+08 6.00332e+08 1 0
409 2 1 6.07398e+08 6.0766e+08 6.08679e+08 6.09214e+08 1 1
410 2 0 6.18467e+08 6.1872e+08 6.1974e+08 6.20928e+08 0 0
411 2 1 6.30913e+08 6.31168e+08 6.32187e+08 6.33481e+08 1 1
412 2 0 6.39313e+08 6.39572e+08 6.40592e+08 6.43135e+08 0 0
413 2 0 6.51059e+08 6.5132e+08 6.5234e+08 6.52776e+08 1 0
414 2 0 6.63795e+08 6.64051e+08 6.65071e+08 6.65164e+08 1 0
415 2 0 6.72451e+08 6.7271e+08 6.7373e+08 6.74494e+08 1 0
416 2 0 6.81879e+08 6.82138e+08 6.83157e+08 6.93492e+08 0 0
417 2 1 7.02089e+08 7.02345e+08 7.03365e+08 7.03801e+08 0 1
418 2 0 7.07512e+08 7.07769e+08 7.08788e+08 7.09034e+08 0 0
419 2 0 7.16647e+08 7.16899e+08 7.17918e+08 7.17999e+08 1 0
420 2 1 7.26208e+08 7.26464e+08 7.27484e+08 7.27769e+08 1 1
421 1 0 7.35887e+08 7.36141e+08 7.37161e+08 7.38195e+08 0 1
422 1 1 7.48041e+08 7.48304e+08 7.49323e+08 7.49409e+08 0 0
423 1 1 7.56641e+08 7.56902e+08 7.57922e+08 7.63358e+08 1 0
424 1 0 7.7235e+08 7.72619e+08 7.73638e+08 7.75883e+08 1 1
425 1 1 7.78486e+08 7.78748e+08 7.79767e+08 7.81828e+08 0 0
426 1 1 7.9011e+08 7.90371e+08 7.91391e+08 7.92488e+08 1 0
427 1 1 8.01272e+08 8.01528e+08 8.02547e+08 8.0502e+08 1 0
428 1 0 8.12304e+08 8.12566e+08 8.13586e+08 8.15878e+08 1 1
429 1 1 8.22409e+08 8.22656e+08 8.23676e+08 8.24469e+08 0 0
430 1 0 8.31495e+08 8.31745e+08 8.32765e+08 8.38831e+08 1 1
431 2 1 8.41413e+08 8.41669e+08 8.42689e+08 8.45155e+08 0 1
432 1 0 8.48004e+08 8.48253e+08 8.49272e+08 8.50477e+08 0 1
433 2 1 8.5346e+08 8.53704e+08 8.54724e+08 8.55376e+08 0 1
434 1 0 8.60959e+08 8.61212e+08 8.62232e+08 8.79015e+08 0 1
435 2 0 8.81989e+08 8.8225e+08 8.8327e+08 8.84113e+08 0 0
436 2 0 8.91415e+08 8.9167e+08 8.92689e+08 8.92983e+08 1 0
437 2 0 9.00162e+08 9.00404e+08 9.01423e+08 9.07478e+08 1 0
438 2 0 9.17651e+08 9.17913e+08 9.18933e+08 9.22228e+08 1 0
439 2 0 9.31487e+08 9.31752e+08 9.32772e+08 9.40031e+08 0 0
440 2 0 9.47131e+08 9.47379e+08 9.48399e+08 9.51313e+08 0 0
441 2 0 9.58421e+08 9.58676e+08 9.59695e+08 9.59713e+08 0 0
442 2 0 9.69173e+08 9.69432e+08 9.70452e+08 9.89996e+08 0 0
443 2 0 9.97365e+08 9.97623e+08 9.98643e+08 1.03634e+09 0 0
444 2 1 1.04524e+09 1.04549e+09 1.04651e+09 1.07533e+09 0 1
445 1 1 1.07788e+09 1.07812e+09 1.07914e+09 1.07955e+09 0 0
446 1 0 1.08832e+09 1.08857e+09 1.08959e+09 1.10608e+09 1 1
447 1 0 1.10893e+09 1.10919e+09 1.11021e+09 1.11773e+09 0 1
448 1 0 1.12046e+09 1.12071e+09 1.12173e+09 1.12732e+09 0 1
449 2 1 1.13012e+09 1.13036e+09 1.13138e+09 1.13611e+09 0 1
450 2 1 1.13865e+09 1.1389e+09 1.13992e+09 1.14589e+09 0 1
451 1 0 1.14934e+09 1.1496e+09 1.15062e+09 1.15615e+09 0 1
452 1 0 1.15885e+09 1.1591e+09 1.16012e+09 1.16664e+09 0 1
453 1 0 1.16957e+09 1.16982e+09 1.17084e+09 1.20858e+09 0 1
454 1 0 1.21121e+09 1.21145e+09 1.21247e+09 1.21967e+09 0 1
455 2 0 1.22226e+09 1.22252e+09 1.22354e+09 1.23108e+09 0 0
456 2 1 1.23817e+09 1.23842e+09 1.23944e+09 1.24109e+09 1 1
457 2 0 1.24515e+09 1.2454e+09 1.24642e+09 1.2612e+09 0 0
458 2 0 1.26848e+09 1.26874e+09 1.26976e+09 1.28226e+09 1 0
459 2 1 1.28969e+09 1.28994e+09 1.29096e+09 1.29725e+09 1 1
460 2 0 1.30104e+09 1.30129e+09 1.30231e+09 1.33568e+09 0 0
461 2 0 1.34302e+09 1.34327e+09 1.34429e+09 1.36097e+09 1 0
462 2 0 1.36816e+09 1.36841e+09 1.36943e+09 1.38226e+09 1 0
463 2 1 1.39208e+09 1.39233e+09 1.39335e+09 1.40749e+09 1 1
464 1 1 1.41099e+09 1.41124e+09 1.41226e+09 1.41959e+09 0 0
465 1 0 1.42692e+09 1.42717e+09 1.42819e+09 1.47785e+09 1 1
466 2 0 1.48087e+09 1.48111e+09 1.48213e+09 1.49106e+09 0 0
467 2 0 1.49826e+09 1.49852e+09 1.49954e+09 1.5195e+09 1 0
468 2 0 1.52681e+09 1.52705e+09 1.52807e+09 1.55375e+09 1 0
469 2 0 1.5612e+09 1.56145e+09 1.56247e+09 1.60098e+09 1 0
470 1 0 1.6082e+09 1.60845e+09 1.60947e+09 1.70583e+09 0 1
471 2 0 1.7089e+09 1.70915e+09 1.71017e+09 1.75223e+09 0 0
472 2 0 1.75928e+09 1.75953e+09 1.76055e+09 1.76479e+09 1 0
473 2 1 1.77218e+09 1.77242e+09 1.77344e+09 1.8021e+09 1 1
474 2 1 1.80498e+09 1.80523e+09 1.80625e+09 1.80763e+09 0 1
475 2 0 1.81048e+09 1.81073e+09 1.81175e+09 1.88898e+09 0 0
476 2 0 1.8965e+09 1.89674e+09 1.89776e+09 1.92342e+09 1 0
477 2 0 1.9309e+09 1.93115e+09 1.93217e+09 1.96765e+09 1 0
478 2 0 1.97505e+09 1.97531e+09 1.97633e+09 1.9794e+09 1 0
479 1 0 1.98873e+09 1.98898e+09 1.99e+09 2.00554e+09 0 1
480 1 0 2.0085e+09 2.00877e+09 2.00979e+09 2.01493e+09 0 1
481 1 0 2.01866e+09 2.01891e+09 2.01993e+09 2.02349e+09 0 1
482 2 0 2.02607e+09 2.02633e+09 2.02735e+09 2.044e+09 0 0
483 2 0 2.05135e+09 2.0516e+09 2.05262e+09 2.05723e+09 1 0
484 2 0 2.06468e+09 2.06493e+09 2.06595e+09 2.09846e+09 1 0
485 2 0 2.10576e+09 2.106e+09 2.10702e+09 2.10792e+09 1 0
486 1 0 2.1152e+09 2.11546e+09 2.11648e+09 2.12375e+09 0 1
487 1 0 2.12808e+09 2.12833e+09 2.12935e+09 2.20274e+09 0 1
488 1 0 2.20591e+09 2.20616e+09 2.20718e+09 2.21223e+09 0 1
489 1 0 2.21676e+09 2.21701e+09 2.21803e+09 2.22342e+09 0 1
490 2 0 2.22633e+09 2.22658e+09 2.2276e+09 2.23297e+09 0 0
491 2 0 2.2404e+09 2.24065e+09 2.24167e+09 2.25628e+09 1 0
492 2 0 2.26494e+09 2.26518e+09 2.2662e+09 2.27188e+09 1 0
493 2 0 2.27915e+09 2.2794e+09 2.28042e+09 2.28486e+09 1 0
494 1 0 2.29207e+09 2.29233e+09 2.29335e+09 2.30098e+09 0 1
495 2 0 2.3036e+09 2.30385e+09 2.30487e+09 2.30867e+09 0 0
496 2 0 2.31607e+09 2.31632e+09 2.31734e+09 2.33872e+09 1 0
497 2 0 2.34611e+09 2.34637e+09 2.34739e+09 2.35475e+09 1 0
498 2 0 2.36222e+09 2.36247e+09 2.36349e+09 2.36611e+09 1 0
499 2 0 2.37341e+09 2.37367e+09 2.37469e+09 2.39164e+09 0 0
500 1 0 2.40095e+09 2.40121e+09 2.40223e+09 2.40521e+09 0 1
501 2 0 2.40812e+09 2.40838e+09 2.4094e+09 2.40945e+09 0 0
502 2 0 2.4166e+09 2.41685e+09 2.41787e+09 2.42075e+09 1 0
503 2 0 2.42817e+09 2.42843e+09 2.42945e+09 2.44219e+09 1 0
504 2 1 2.4494e+09 2.44965e+09 2.45067e+09 2.45829e+09 1 1
505 1 1 2.46474e+09 2.46499e+09 2.46601e+09 2.46662e+09 0 0
506 1 1 2.47383e+09 2.47407e+09 2.47509e+09 2.61426e+09 1 0
