trial trialType response stillTime stimOnset stimOffset respTime correctionTrial correct
001 2 0 9.77307e+06 1.00962e+07 1.11158e+07 1.17365e+07 0 0
002 2 1 1.92348e+07 1.95011e+07 2.05207e+07 2.20045e+07 1 1
003 1 0 2.51454e+07 2.54227e+07 2.64423e+07 2.70852e+07 0 1
004 1 0 3.12812e+07 3.15419e+07 3.25615e+07 3.35497e+07 0 1
005 1 0 3.65138e+07 3.67775e+07 3.77971e+07 3.84096e+07 0 1
006 2 1 4.3265e+07 4.35234e+07 4.4543e+07 4.64513e+07 0 1
007 1 1 4.90455e+07 4.93112e+07 5.03309e+07 5.04713e+07 0 0
008 1 1 5.88442e+07 5.91011e+07 6.01208e+07 6.08976e+07 1 0
009 1 0 6.84165e+07 6.86682e+07 6.96878e+07 7.04607e+07 1 1
010 1 0 7.32222e+07 7.34745e+07 7.44941e+07 7.51362e+07 0 1
011 1 0 8.47299e+07 8.4979e+07 8.59986e+07 8.60678e+07 0 1
012 2 1 8.87941e+07 8.90655e+07 9.00851e+07 9.09375e+07 0 1
013 2 0 9.45439e+07 9.48105e+07 9.58302e+07 9.65915e+07 0 0
014 2 0 1.06612e+08 1.06866e+08 1.07886e+08 1.08043e+08 1 0
015 2 1 1.32352e+08 1.32616e+08 1.33635e+08 1.34165e+08 1 1
016 1 0 1.39355e+08 1.39605e+08 1.40625e+08 1.40721e+08 0 1
017 1 0 1.4894e+08 1.49199e+08 1.50219e+08 1.50461e+08 0 1
018 2 0 1.55252e+08 1.55511e+08 1.5653e+08 1.57133e+08 0 0
019 2 1 1.65984e+08 1.66254e+08 1.67274e+08 1.68039e+08 1 1
020 2 1 1.70911e+08 1.71165e+08 1.72185e+08 1.72434e+08 0 1
021 2 1 1.85207e+08 1.85468e+08 1.86488e+08 1.87457e+08 0 1
022 1 0 1.95809e+08 1.96073e+08 1.97093e+08 1.98124e+08 0 1
023 2 1 2.00891e+08 2.01153e+08 2.02172e+08 2.02196e+08 0 1
024 1 1 2.04905e+08 2.05162e+08 2.06181e+08 2.0637e+08 0 0
025 1 1 2.16769e+08 2.17019e+08 2.18039e+08 2.18081e+08 1 0
026 1 1 2.29249e+08 2.29515e+08 2.30535e+08 2.31658e+08 1 0
027 1 0 2.414e+08 2.41653e+08 2.42673e+08 2.43183e+08 1 1
028 2 1 2.46027e+08 2.46272e+08 2.47291e+08 2.47494e+08 0 1
029 1 0 2.65498e+08 2.6576e+08 2.6678e+08 2.66848e+08 0 1
030 1 0 2.72891e+08 2.73142e+08 2.74162e+08 2.74417e+08 0 1
031 1 0 2.87489e+08 2.87736e+08 2.88756e+08 2.89123e+08 0 1
032 1 1 3.02161e+08 3.02414e+08 3.03434e+08 3.04158e+08 0 0
033 1 1 3.12022e+08 3.12279e+08 3.13298e+08 3.13804e+08 1 0
034 1 0 3.22665e+08 3.22923e+08 3.23942e+08 3.24342e+08 1 1
035 2 1 3.28452e+08 3.28715e+08 3.29734e+08 3.30127e+08 0 1
036 1 0 3.35102e+08 3.35357e+08 3.36377e+08 3.36454e+08 0 1
037 2 1 3.44868e+08 3.45129e+08 3.46149e+08 3.48035e+08 0 1
038 2 1 3.56556e+08 3.56808e+08 3.57827e+08 3.58976e+08 0 1
039 2 0 3.62011e+08 3.62263e+08 3.63282e+08 3.63358e+08 0 0
040 2 0 3.71728e+08 3.7199e+08 3.73009e+08 3.7377e+08 1 0
041 2 1 3.81675e+08 3.81917e+08 3.82937e+08 3.8425e+08 1 1
042 2 1 3.97379e+08 3.9764e+08 3.98659e+08 3.98677e+08 0 1
043 2 0 4.03045e+08 4.0329e+08 4.0431e+08 4.04696e+08 0 0
044 2 0 4.17139e+08 4.17394e+08 4.18414e+08 4.19392e+08 1 0
045 2 1 4.28063e+08 4.28329e+08 4.29349e+08 4.29602e+08 1 1
046 2 1 4.38098e+08 4.38358e+08 4.39377e+08 4.4156e+08 0 1
047 2 0 4.47666e+08 4.47911e+08 4.48931e+08 4.49056e+08 0 0
048 2 1 4.56188e+08 4.56441e+08 4.5746e+08 4.5803e+08 1 1
049 1 0 4.65501e+08 4.65764e+08 4.66783e+08 4.67571e+08 0 1
050 1 0 4.72999e+08 4.73246e+08 4.74266e+08 4.74414e+08 0 1
051 1 0 4.80709e+08 4.80965e+08 4.81985e+08 4.82074e+08 0 1
052 1 0 4.87088e+08 4.87348e+08 4.88368e+08 4.88444e+08 0 1
053 2 1 4.94075e+08 4.94329e+08 4.95349e+08 4.96198e+08 0 1
054 2 0 5.04813e+08 5.05073e+08 5.06092e+08 5.06353e+08 0 0
055 2 0 5.13562e+08 5.13818e+08 5.14837e+08 5.16131e+08 1 0
056 2 1 5.29694e+08 5.29959e+08 5.30978e+08 5.31911e+08 1 1
057 1 0 5.36808e+08 5.37063e+08 5.38082e+08 5.38142e+08 0 1
058 1 1 5.43104e+08 5.43368e+08 5.44388e+08 5.44677e+08 0 0
059 1 1 5.53983e+08 5.54233e+08 5.55253e+08 5.55495e+08 1 0
060 1 1 5.66848e+08 5.67105e+08 5.68125e+08 5.68881e+08 1 0
061 1 0 5.77904e+08 5.78156e+08 5.79176e+08 5.79657e+08 1 1
062 2 0 5.84977e+08 5.8523e+08 5.8625e+08 5.86666e+08 0 0
063 2 1 5.93927e+08 5.94185e+08 5.95204e+08 5.96097e+08 1 1
064 1 1 6.02916e+08 6.03171e+08 6.04191e+08 6.04254e+08 0 0
065 1 1 6.18758e+08 6.19015e+08 6.20035e+08 6.21118e+08 1 0
066 1 0 6.35821e+08 6.36086e+08 6.37106e+08 6.37615e+08 1 1
067 2 1 6.51531e+08 6.51786e+08 6.52806e+08 6.53711e+08 0 1
068 1 0 6.60732e+08 6.60981e+08 6.62e+08 6.62042e+08 0 1
069 1 0 6.72414e+08 6.72666e+08 6.73686e+08 6.74444e+08 0 1
070 2 0 6.80285e+08 6.80532e+08 6.81552e+08 6.82781e+08 0 0
071 2 0 6.95867e+08 6.96128e+08 6.97147e+08 6.98427e+08 1 0
072 2 1 7.06274e+08 7.06533e+08 7.07553e+08 7.08725e+08 1 1
073 1 0 7.14851e+08 7.15113e+08 7.16132e+08 7.16316e+08 0 1
074 2 0 7.23911e+08 7.24181e+08 7.25201e+08 7.25442e+08 0 0
075 2 1 7.41128e+08 7.41389e+08 7.42409e+08 7.43868e+08 1 1
076 1 1 7.60518e+08 7.60786e+08 7.61806e+08 7.6235e+08 0 0
077 1 1 7.70749e+08 7.71001e+08 7.72021e+08 7.73104e+08 1 0
078 1 0 7.8018e+08 7.80431e+08 7.8145e+08 7.81473e+08 1 1
079 1 0 7.84391e+08 7.8464e+08 7.8566e+08 7.85908e+08 0 1
080 2 0 7.90528e+08 7.90779e+08 7.91798e+08 7.91841e+08 0 0
081 2 1 8.00933e+08 8.01193e+08 8.02213e+08 8.02404e+08 1 1
082 1 0 8.10789e+08 8.11047e+08 8.12066e+08 8.12619e+08 0 1
083 2 0 8.17065e+08 8.17327e+08 8.18347e+08 8.19038e+08 0 0
084 2 1 8.31384e+08 8.31639e+08 8.32658e+08 8.33168e+08 1 1
085 2 0 8.36371e+08 8.36631e+08 8.37651e+08 8.38033e+08 0 0
086 2 1 8.5148e+08 8.51735e+08 8.52754e+08 8.53298e+08 1 1
087 2 1 8.58412e+08 8.58663e+08 8.59683e+08 8.61114e+08 0 1
088 1 0 8.68326e+08 8.6858e+08 8.696e+08 8.6963e+08 0 1
089 1 0 8.86239e+08 8.86486e+08 8.87505e+08 8.88067e+08 0 1
090 2 0 8.96484e+08 8.96747e+08 8.97766e+08 8.97868e+08 0 0
091 2 0 9.05088e+08 9.05341e+08 9.0636e+08 9.06993e+08 1 0
092 2 1 9.14692e+08 9.14948e+08 9.15968e+08 9.16095e+08 1 1
093 2 1 9.21617e+08 9.21863e+08 9.22883e+08 9.2292e+08 0 1
094 1 1 9.31791e+08 9.32052e+08 9.33072e+08 9.3314e+08 0 0
095 1 1 9.41389e+08 9.4165e+08 9.42669e+08 9.43337e+08 1 0
096 1 0 9.54103e+08 9.54354e+08 9.55374e+08 9.55661e+08 1 1
097 2 1 9.62281e+08 9.62536e+08 9.63556e+08 9.63855e+08 0 1
098 2 0 9.72627e+08 9.72881e+08 9.739e+08 9.74611e+08 0 0
099 2 0 9.90762e+08 9.91015e+08 9.92034e+08 9.92517e+08 1 0
100 2 1 1.00323e+09 1.00348e+09 1.0045e+09 1.00522e+09 1 1
101 2 0 1.01403e+09 1.01428e+09 1.0153e+09 1.01647e+09 0 0
102 2 1 1.02596e+09 1.02622e+09 1.02724e+09 1.02898e+09 1 1
103 1 1 1.03822e+09 1.03846e+09 1.03948e+09 1.03969e+09 0 0
104 1 1 1.04924e+09 1.04949e+09 1.05051e+09 1.05061e+09 1 0
105 1 0 1.05779e+09 1.05803e+09 1.05905e+09 1.05906e+09 1 1
106 1 0 1.07238e+09 1.07263e+09 1.07365e+09 1.07442e+09 0 1
107 1 0 1.08026e+09 1.08053e+09 1.08155e+09 1.08174e+09 0 1
108 2 0 1.09623e+09 1.09649e+09 1.09751e+09 1.09791e+09 0 0
109 2 0 1.11153e+09 1.11178e+09 1.1128e+09 1.11498e+09 1 0
110 2 0 1.12266e+09 1.12291e+09 1.12393e+09 1.12427e+09 1 0
111 2 1 1.13196e+09 1.13221e+09 1.13323e+09 1.13379e+09 1 1
112 2 1 1.14375e+09 1.144e+09 1.14502e+09 1.14504e+09 0 1
113 2 0 1.15358e+09 1.15384e+09 1.15486e+09 1.15593e+09 0 0
114 2 0 1.16415e+09 1.16442e+09 1.16544e+09 1.16555e+09 1 0
115 2 0 1.17271e+09 1.17297e+09 1.17399e+09 1.17461e+09 1 0
116 2 0 1.18194e+09 1.1822e+09 1.18322e+09 1.1833e+09 1 0
117 2 0 1.19053e+09 1.1908e+09 1.19182e+09 1.19224e+09 0 0
118 2 0 1.20479e+09 1.20504e+09 1.20605e+09 1.20672e+09 0 0
119 2 0 1.21614e+09 1.2164e+09 1.21742e+09 1.21766e+09 0 0
120 1 0 1.22606e+09 1.22632e+09 1.22734e+09 1.22828e+09 0 1
121 2 1 1.23829e+09 1.23854e+09 1.23956e+09 1.2416e+09 0 1
122 2 1 1.24707e+09 1.24733e+09 1.24835e+09 1.24855e+09 0 1
123 1 0 1.25113e+09 1.25139e+09 1.25241e+09 1.25255e+09 0 1
124 1 0 1.25506e+09 1.25531e+09 1.25633e+09 1.25639e+09 0 1
125 1 0 1.26279e+09 1.26304e+09 1.26406e+09 1.26413e+09 0 1
126 2 1 1.27449e+09 1.27475e+09 1.27577e+09 1.27669e+09 0 1
127 1 1 1.28756e+09 1.28782e+09 1.28883e+09 1.28888e+09 0 0
128 1 0 1.29684e+09 1.2971e+09 1.29812e+09 1.29816e+09 1 1
129 1 1 1.30493e+09 1.30519e+09 1.30621e+09 1.30655e+09 0 0
130 1 1 1.3168e+09 1.31705e+09 1.31807e+09 1.31953e+09 1 0
131 1 0 1.33014e+09 1.33039e+09 1.33141e+09 1.3322e+09 1 1
132 1 0 1.33839e+09 1.33866e+09 1.33968e+09 1.3399e+09 0 1
133 1 1 1.34609e+09 1.34634e+09 1.34736e+09 1.34785e+09 0 0
134 1 1 1.35524e+09 1.3555e+09 1.35652e+09 1.35792e+09 1 0
135 1 1 1.3686e+09 1.36885e+09 1.36987e+09 1.37025e+09 1 0
136 1 1 1.37761e+09 1.37787e+09 1.37889e+09 1.37943e+09 1 0
137 1 0 1.38672e+09 1.38698e+09 1.388e+09 1.38916e+09 0 1
138 2 1 1.40112e+09 1.40137e+09 1.40239e+09 1.40412e+09 0 1
139 2 0 1.41647e+09 1.41673e+09 1.41775e+09 1.41791e+09 0 0
140 2 1 1.42658e+09 1.42683e+09 1.42785e+09 1.42967e+09 1 1
141 2 0 1.43865e+09 1.43891e+09 1.43993e+09 1.44109e+09 0 0
142 2 0 1.45087e+09 1.45113e+09 1.45215e+09 1.45245e+09 1 0
143 2 1 1.45973e+09 1.45997e+09 1.46099e+09 1.46108e+09 1 1
144 1 1 1.46362e+09 1.46389e+09 1.4649e+09 1.46515e+09 0 0
145 1 0 1.4723e+09 1.47255e+09 1.47357e+09 1.47358e+09 1 1
146 1 0 1.47872e+09 1.47897e+09 1.47999e+09 1.48023e+09 0 1
147 2 1 1.48477e+09 1.48504e+09 1.48606e+09 1.48612e+09 0 1
148 1 1 1.49546e+09 1.49571e+09 1.49673e+09 1.49704e+09 0 0
149 1 0 1.50554e+09 1.50579e+09 1.50681e+09 1.50687e+09 1 1
150 1 0 1.50938e+09 1.50964e+09 1.51066e+09 1.51073e+09 0 1
151 1 0 1.53205e+09 1.5323e+09 1.53332e+09 1.53405e+09 0 1
152 1 1 1.53666e+09 1.53691e+09 1.53793e+09 1.53856e+09 0 0
153 1 1 1.54711e+09 1.54736e+09 1.54838e+09 1.54991e+09 1 0
154 1 1 1.56011e+09 1.56037e+09 1.56139e+09 1.56506e+09 1 0
155 1 0 1.57255e+09 1.57281e+09 1.57383e+09 1.57449e+09 1 1
156 2 1 1.57721e+09 1.57746e+09 1.57848e+09 1.57848e+09 0 1
157 2 1 1.59479e+09 1.59506e+09 1.59608e+09 1.59703e+09 0 1
158 2 0 1.60428e+09 1.60454e+09 1.60556e+09 1.60558e+09 0 0
159 2 0 1.61428e+09 1.61454e+09 1.61556e+09 1.61668e+09 1 0
160 2 1 1.62662e+09 1.62686e+09 1.62788e+09 1.6282e+09 1 1
161 2 0 1.63082e+09 1.63108e+09 1.63209e+09 1.63352e+09 0 0
162 2 1 1.64131e+09 1.64158e+09 1.6426e+09 1.64323e+09 1 1
163 1 0 1.65501e+09 1.65527e+09 1.65629e+09 1.65692e+09 0 1
164 2 1 1.66838e+09 1.66864e+09 1.66966e+09 1.67001e+09 0 1
165 1 0 1.67625e+09 1.67651e+09 1.67753e+09 1.67756e+09 0 1
166 2 1 1.68014e+09 1.6804e+09 1.68142e+09 1.68196e+09 0 1
167 1 0 1.69105e+09 1.6913e+09 1.69232e+09 1.69258e+09 0 1
168 1 1 1.69542e+09 1.69568e+09 1.6967e+09 1.69683e+09 0 0
169 1 1 1.70701e+09 1.70727e+09 1.70829e+09 1.70886e+09 1 0
170 1 0 1.71878e+09 1.71904e+09 1.72006e+09 1.72112e+09 1 1
171 2 1 1.72917e+09 1.72943e+09 1.73045e+09 1.73098e+09 0 1
172 1 0 1.74996e+09 1.75021e+09 1.75123e+09 1.75147e+09 0 1
173 2 0 1.75432e+09 1.75458e+09 1.7556e+09 1.75588e+09 0 0
174 2 0 1.76452e+09 1.76477e+09 1.76579e+09 1.76581e+09 1 0
175 2 0 1.77429e+09 1.77454e+09 1.77556e+09 1.77573e+09 1 0
176 2 1 1.78308e+09 1.78333e+09 1.78435e+09 1.79592e+09 1 1
177 2 1 1.79846e+09 1.79871e+09 1.79973e+09 1.7998e+09 0 1
178 1 1 1.81009e+09 1.81034e+09 1.81136e+09 1.81169e+09 0 0
179 1 0 1.82561e+09 1.82586e+09 1.82688e+09 1.82705e+09 1 1
180 1 1 1.86175e+09 1.86201e+09 1.86303e+09 1.86393e+09 0 0
181 1 0 1.87144e+09 1.87169e+09 1.87271e+09 1.87335e+09 1 1
182 2 1 1.8812e+09 1.88145e+09 1.88247e+09 1.88427e+09 0 1
183 1 0 1.8901e+09 1.89035e+09 1.89137e+09 1.89153e+09 0 1
184 1 0 1.89411e+09 1.89438e+09 1.89539e+09 1.89541e+09 0 1
185 2 1 1.91048e+09 1.91074e+09 1.91176e+09 1.91177e+09 0 1
186 1 0 1.91477e+09 1.91502e+09 1.91604e+09 1.91611e+09 0 1
187 2 1 1.9191e+09 1.91935e+09 1.92037e+09 1.92046e+09 0 1
188 2 0 1.93227e+09 1.93253e+09 1.93355e+09 1.93445e+09 0 0
189 2 1 1.94504e+09 1.94529e+09 1.94631e+09 1.94772e+09 1 1
190 2 1 1.9536e+09 1.95385e+09 1.95487e+09 1.95557e+09 0 1
191 2 1 1.95821e+09 1.95848e+09 1.9595e+09 1.95955e+09 0 1
192 1 0 1.98081e+09 1.98107e+09 1.98209e+09 1.98251e+09 0 1
193 2 0 1.99137e+09 1.99163e+09 1.99265e+09 1.99277e+09 0 0
194 2 1 2.0015e+09 2.00175e+09 2.00277e+09 2.00556e+09 1 1
195 2 1 2.00818e+09 2.00844e+09 2.00946e+09 2.00951e+09 0 1
196 1 0 2.01601e+09 2.01626e+09 2.01728e+09 2.01764e+09 0 1
197 1 1 2.02017e+09 2.02043e+09 2.02145e+09 2.02231e+09 0 0
198 1 0 2.03728e+09 2.03754e+09 2.03856e+09 2.0387e+09 1 1
199 1 1 2.04517e+09 2.04543e+09 2.04645e+09 2.04651e+09 0 0
200 1 0 2.05753e+09 2.05779e+09 2.05881e+09 2.05928e+09 1 1
201 1 1 2.06664e+09 2.0669e+09 2.06792e+09 2.06828e+09 0 0
202 1 1 2.07879e+09 2.07905e+09 2.08007e+09 2.08031e+09 1 0
203 1 1 2.08924e+09 2.0895e+09 2.09052e+09 2.09258e+09 1 0
204 1 0 2.10051e+09 2.10076e+09 2.10178e+09 2.10245e+09 1 1
205 2 1 2.10514e+09 2.10539e+09 2.10641e+09 2.10659e+09 0 1
206 2 1 2.12164e+09 2.1219e+09 2.12292e+09 2.12306e+09 0 1
207 1 0 2.13634e+09 2.13659e+09 2.13761e+09 2.13775e+09 0 1
208 2 0 2.14027e+09 2.14052e+09 2.14153e+09 2.1418e+09 0 0
209 2 1 2.15292e+09 2.15317e+09 2.15419e+09 2.1544e+09 1 1
210 1 0 2.16586e+09 2.16611e+09 2.16713e+09 2.16717e+09 0 1
211 1 0 2.17847e+09 2.17874e+09 2.17976e+09 2.18237e+09 0 1
212 2 1 2.18492e+09 2.18517e+09 2.18619e+09 2.18655e+09 0 1
213 1 1 2.18937e+09 2.18964e+09 2.19066e+09 2.19102e+09 0 0
214 1 1 2.19855e+09 2.19881e+09 2.19983e+09 2.20038e+09 1 0
215 1 0 2.20938e+09 2.20963e+09 2.21065e+09 2.21105e+09 1 1
216 2 0 2.21375e+09 2.21401e+09 2.21503e+09 2.21513e+09 0 0
217 2 1 2.22537e+09 2.22562e+09 2.22664e+09 2.22673e+09 1 1
218 2 0 2.24054e+09 2.24079e+09 2.24181e+09 2.24216e+09 0 0
219 2 0 2.24946e+09 2.24971e+09 2.25073e+09 2.25703e+09 1 0
220 2 1 2.26467e+09 2.26494e+09 2.26596e+09 2.26828e+09 1 1
221 1 0 2.27509e+09 2.27536e+09 2.27638e+09 2.27677e+09 0 1
222 2 0 2.28295e+09 2.2832e+09 2.28422e+09 2.28434e+09 0 0
223 2 1 2.29722e+09 2.29748e+09 2.2985e+09 2.29865e+09 1 1
224 2 1 2.30964e+09 2.3099e+09 2.31092e+09 2.31444e+09 0 1
225 1 0 2.32981e+09 2.33007e+09 2.33109e+09 2.33144e+09 0 1
226 1 0 2.33438e+09 2.33463e+09 2.33565e+09 2.3357e+09 0 1
227 2 1 2.34307e+09 2.34333e+09 2.34435e+09 2.34826e+09 0 1
228 1 1 2.35461e+09 2.35486e+09 2.35588e+09 2.35709e+09 0 0
229 1 1 2.36418e+09 2.36444e+09 2.36546e+09 2.36817e+09 1 0
230 1 1 2.37641e+09 2.37668e+09 2.3777e+09 2.37885e+09 1 0
231 1 1 2.38624e+09 2.38651e+09 2.38752e+09 2.38758e+09 1 0
232 2 1 2.39474e+09 2.39499e+09 2.39601e+09 2.39941e+09 0 1
233 2 1 2.40202e+09 2.40228e+09 2.4033e+09 2.40383e+09 0 1
234 1 0 2.41314e+09 2.4134e+09 2.41442e+09 2.41473e+09 0 1
235 2 0 2.42092e+09 2.42118e+09 2.4222e+09 2.4223e+09 0 0
236 2 1 2.42963e+09 2.4299e+09 2.43092e+09 2.43183e+09 1 1
237 1 0 2.43802e+09 2.43826e+09 2.43928e+09 2.44025e+09 0 1
238 2 1 2.44801e+09 2.44827e+09 2.44929e+09 2.45055e+09 0 1
239 2 0 2.45324e+09 2.45349e+09 2.45451e+09 2.45452e+09 0 0
240 2 1 2.46276e+09 2.46303e+09 2.46405e+09 2.46601e+09 1 1
241 1 0 2.46869e+09 2.46896e+09 2.46998e+09 2.47036e+09 0 1
242 2 1 2.48531e+09 2.48557e+09 2.48658e+09 2.48717e+09 0 1
243 2 1 2.49514e+09 2.4954e+09 2.49642e+09 2.50029e+09 0 1
244 1 0 2.50684e+09 2.50709e+09 2.50811e+09 2.50894e+09 0 1
245 2 0 2.51902e+09 2.51927e+09 2.52029e+09 2.52059e+09 0 0
246 2 1 2.52924e+09 2.5295e+09 2.53052e+09 2.53211e+09 1 1
247 2 0 2.53477e+09 2.53502e+09 2.53604e+09 2.53606e+09 0 0
248 2 1 2.5432e+09 2.54345e+09 2.54447e+09 2.54451e+09 1 1
249 1 0 2.54969e+09 2.54995e+09 2.55097e+09 2.55101e+09 0 1
250 1 0 2.55385e+09 2.55411e+09 2.55513e+09 2.55532e+09 0 1
251 2 1 2.56768e+09 2.56793e+09 2.56895e+09 2.56961e+09 0 1
252 2 1 2.57432e+09 2.57458e+09 2.5756e+09 2.57669e+09 0 1
253 1 0 2.58297e+09 2.58323e+09 2.58425e+09 2.58456e+09 0 1
254 1 1 2.59594e+09 2.5962e+09 2.59722e+09 2.59723e+09 0 0
255 1 1 2.60505e+09 2.60531e+09 2.60633e+09 2.60686e+09 1 0
256 1 0 2.61754e+09 2.61779e+09 2.61881e+09 2.61959e+09 1 1
257 1 0 2.62747e+09 2.62773e+09 2.62875e+09 2.62943e+09 0 1
258 1 0 2.63557e+09 2.63582e+09 2.63684e+09 2.63685e+09 0 1
259 2 0 2.64492e+09 2.64517e+09 2.64619e+09 2.64623e+09 0 0
260 2 0 2.65544e+09 2.65569e+09 2.65671e+09 2.65696e+09 1 0
261 2 1 2.66642e+09 2.66667e+09 2.66769e+09 2.66778e+09 1 1
262 1 1 2.67058e+09 2.67084e+09 2.67186e+09 2.67199e+09 0 0
263 1 0 2.67921e+09 2.67948e+09 2.6805e+09 2.68095e+09 1 1
264 1 0 2.68736e+09 2.6876e+09 2.68862e+09 2.68864e+09 0 1
265 1 0 2.69934e+09 2.6996e+09 2.70062e+09 2.70079e+09 0 1
266 1 1 2.70353e+09 2.7038e+09 2.70482e+09 2.70495e+09 0 0
267 1 0 2.71439e+09 2.71464e+09 2.71566e+09 2.71572e+09 1 1
268 1 0 2.72889e+09 2.72915e+09 2.73017e+09 2.73054e+09 0 1
269 2 0 2.73384e+09 2.73409e+09 2.73511e+09 2.73517e+09 0 0
270 2 1 2.74293e+09 2.74318e+09 2.7442e+09 2.74842e+09 1 1
271 1 0 2.75124e+09 2.75151e+09 2.75253e+09 2.75379e+09 0 1
272 2 1 2.7621e+09 2.76237e+09 2.76339e+09 2.76415e+09 0 1
273 2 0 2.77118e+09 2.77144e+09 2.77246e+09 2.77255e+09 0 0
274 2 1 2.78199e+09 2.78224e+09 2.78326e+09 2.78346e+09 1 1
275 2 1 2.78965e+09 2.78991e+09 2.79093e+09 2.79156e+09 0 1
276 2 1 2.79671e+09 2.79695e+09 2.79797e+09 2.79918e+09 0 1
277 1 0 2.80226e+09 2.80252e+09 2.80354e+09 2.80411e+09 0 1
278 1 0 2.81394e+09 2.81419e+09 2.81521e+09 2.81528e+09 0 1
279 2 1 2.81917e+09 2.81943e+09 2.82045e+09 2.82078e+09 0 1
280 2 0 2.82345e+09 2.82371e+09 2.82472e+09 2.82477e+09 0 0
281 2 0 2.83703e+09 2.83729e+09 2.83831e+09 2.83853e+09 1 0
282 2 1 2.84904e+09 2.8493e+09 2.85032e+09 2.85208e+09 1 1
283 1 1 2.85467e+09 2.85492e+09 2.85594e+09 2.85618e+09 0 0
284 1 0 2.86452e+09 2.86478e+09 2.8658e+09 2.8663e+09 1 1
285 1 0 2.8733e+09 2.87355e+09 2.87457e+09 2.87472e+09 0 1
286 1 1 2.88187e+09 2.88212e+09 2.88314e+09 2.88343e+09 0 0
287 1 1 2.89123e+09 2.89148e+09 2.8925e+09 2.89271e+09 1 0
288 1 0 2.8998e+09 2.90006e+09 2.90108e+09 2.902e+09 1 1
289 2 0 2.90489e+09 2.90515e+09 2.90617e+09 2.90694e+09 0 0
290 2 1 2.91453e+09 2.91478e+09 2.9158e+09 2.92605e+09 1 1
291 2 1 2.93457e+09 2.93484e+09 2.93585e+09 2.93599e+09 0 1
292 2 0 2.93864e+09 2.93889e+09 2.93991e+09 2.94026e+09 0 0
293 2 0 2.95027e+09 2.95054e+09 2.95156e+09 2.95201e+09 1 0
294 2 1 2.95952e+09 2.95977e+09 2.96079e+09 2.9609e+09 1 1
295 2 1 2.96388e+09 2.96413e+09 2.96515e+09 2.96666e+09 0 1
296 1 0 2.96927e+09 2.96952e+09 2.97054e+09 2.97057e+09 0 1
297 1 0 2.98294e+09 2.9832e+09 2.98422e+09 2.98449e+09 0 1
298 1 0 2.98735e+09 2.98763e+09 2.98865e+09 2.98871e+09 0 1
299 2 1 2.99753e+09 2.99779e+09 2.99881e+09 2.99892e+09 0 1
300 1 1 3.00546e+09 3.00572e+09 3.00674e+09 3.00694e+09 0 0
301 1 0 3.01403e+09 3.01429e+09 3.01531e+09 3.01543e+09 1 1
302 1 0 3.01816e+09 3.01842e+09 3.01944e+09 3.0195e+09 0 1
303 1 1 3.02837e+09 3.02863e+09 3.02965e+09 3.02973e+09 0 0
304 1 0 3.03927e+09 3.03952e+09 3.04054e+09 3.04137e+09 1 1
305 2 0 3.05127e+09 3.05152e+09 3.05254e+09 3.05259e+09 0 0
306 2 0 3.0612e+09 3.06147e+09 3.06249e+09 3.06614e+09 1 0
307 2 1 3.07354e+09 3.07379e+09 3.07481e+09 3.07524e+09 1 1
308 2 1 3.07803e+09 3.07829e+09 3.07931e+09 3.08149e+09 0 1
309 1 1 3.08401e+09 3.08426e+09 3.08528e+09 3.08547e+09 0 0
310 1 1 3.09557e+09 3.09583e+09 3.09685e+09 3.09763e+09 1 0
311 1 1 3.1078e+09 3.10806e+09 3.10908e+09 3.1143e+09 1 0
312 1 1 3.12146e+09 3.12172e+09 3.12274e+09 3.12276e+09 1 0
313 2 1 3.13179e+09 3.13205e+09 3.13307e+09 3.13315e+09 0 1
314 2 1 3.13803e+09 3.13828e+09 3.1393e+09 3.14087e+09 0 1
315 2 0 3.14594e+09 3.1462e+09 3.14722e+09 3.14792e+09 0 0
316 2 0 3.15832e+09 3.15858e+09 3.1596e+09 3.16096e+09 1 0
317 2 1 3.16835e+09 3.1686e+09 3.16962e+09 3.16971e+09 1 1
318 2 0 3.17243e+09 3.17269e+09 3.17371e+09 3.17372e+09 0 0
319 2 0 3.18375e+09 3.18401e+09 3.18502e+09 3.18997e+09 1 0
320 2 1 3.19712e+09 3.19737e+09 3.19839e+09 3.19888e+09 1 1
321 1 1 3.20172e+09 3.20199e+09 3.20301e+09 3.20344e+09 0 0
322 1 0 3.21072e+09 3.21097e+09 3.21199e+09 3.21201e+09 1 1
323 2 1 3.21537e+09 3.21562e+09 3.21664e+09 3.21692e+09 0 1
324 1 1 3.22039e+09 3.22065e+09 3.22167e+09 3.22179e+09 0 0
325 1 1 3.23139e+09 3.23166e+09 3.23268e+09 3.23675e+09 1 0
326 1 1 3.24431e+09 3.24458e+09 3.2456e+09 3.24721e+09 1 0
327 1 1 3.25439e+09 3.25464e+09 3.25566e+09 3.26185e+09 1 0
328 2 1 3.26913e+09 3.26938e+09 3.2704e+09 3.27057e+09 0 1
329 2 1 3.27311e+09 3.27337e+09 3.27439e+09 3.27644e+09 0 1
330 1 0 3.28202e+09 3.28227e+09 3.28329e+09 3.28375e+09 0 1
331 1 1 3.29259e+09 3.29284e+09 3.29386e+09 3.29392e+09 0 0
332 1 1 3.30488e+09 3.30513e+09 3.30615e+09 3.30642e+09 1 0
333 1 1 3.31384e+09 3.3141e+09 3.31512e+09 3.31778e+09 1 0
334 1 0 3.32513e+09 3.32539e+09 3.32641e+09 3.32653e+09 1 1
335 1 1 3.3294e+09 3.32965e+09 3.33067e+09 3.33085e+09 0 0
336 1 0 3.33852e+09 3.33878e+09 3.3398e+09 3.33982e+09 1 1
337 1 1 3.34261e+09 3.34287e+09 3.34389e+09 3.34494e+09 0 0
338 1 1 3.35244e+09 3.35271e+09 3.35373e+09 3.35412e+09 1 0
339 1 0 3.36157e+09 3.36182e+09 3.36284e+09 3.40028e+09 1 1
340 2 1 3.4047e+09 3.40495e+09 3.40597e+09 3.41602e+09 0 1
341 1 1 3.41902e+09 3.41928e+09 3.4203e+09 3.42113e+09 0 0
342 1 1 3.42897e+09 3.42923e+09 3.43025e+09 3.43735e+09 1 0
343 1 0 3.44537e+09 3.44562e+09 3.44664e+09 3.453e+09 1 1
344 2 1 3.45556e+09 3.45582e+09 3.45684e+09 3.4613e+09 0 1
345 1 0 3.4645e+09 3.46477e+09 3.46578e+09 3.51082e+09 0 1
346 2 1 3.51816e+09 3.51842e+09 3.51944e+09 3.52666e+09 0 1
347 1 0 3.53289e+09 3.53314e+09 3.53416e+09 3.54017e+09 0 1
348 1 0 3.54321e+09 3.54347e+09 3.54449e+09 3.54463e+09 0 1
349 2 1 3.5472e+09 3.54745e+09 3.54847e+09 3.55998e+09 0 1
350 1 0 3.56285e+09 3.5631e+09 3.56412e+09 3.56413e+09 0 1
351 2 1 3.56935e+09 3.5696e+09 3.57062e+09 3.57597e+09 0 1
352 1 0 3.58048e+09 3.58073e+09 3.58175e+09 3.58182e+09 0 1
353 1 1 3.58443e+09 3.58468e+09 3.5857e+09 3.58571e+09 0 0
354 1 0 3.59416e+09 3.59442e+09 3.59544e+09 3.59551e+09 1 1
355 1 0 3.59838e+09 3.59864e+09 3.59966e+09 3.5997e+09 0 1
356 1 1 3.6043e+09 3.60456e+09 3.60558e+09 3.60639e+09 0 0
357 1 1 3.61378e+09 3.61404e+09 3.61506e+09 3.61508e+09 1 0
358 1 0 3.62521e+09 3.62547e+09 3.62649e+09 3.62663e+09 1 1
359 2 1 3.62938e+09 3.62963e+09 3.63065e+09 3.63274e+09 0 1
360 2 1 3.63532e+09 3.63557e+09 3.63659e+09 3.63671e+09 0 1
361 1 0 3.6393e+09 3.63955e+09 3.64057e+09 3.64076e+09 0 1
362 1 1 3.6434e+09 3.64365e+09 3.64467e+09 3.64876e+09 0 0
363 1 1 3.65823e+09 3.65849e+09 3.65951e+09 3.66266e+09 1 0
364 1 1 3.67174e+09 3.67201e+09 3.67302e+09 3.67613e+09 1 0
365 1 0 3.68359e+09 3.68384e+09 3.68486e+09 3.68495e+09 1 1
366 2 0 3.69144e+09 3.69168e+09 3.6927e+09 3.69615e+09 0 0
367 2 1 3.70344e+09 3.7037e+09 3.70472e+09 3.70527e+09 1 1
368 2 1 3.70806e+09 3.70831e+09 3.70933e+09 3.70955e+09 0 1
369 2 1 3.7158e+09 3.71607e+09 3.71709e+09 3.71716e+09 0 1
370 1 0 3.71997e+09 3.72023e+09 3.72125e+09 3.72143e+09 0 1
371 2 0 3.72751e+09 3.72776e+09 3.72878e+09 3.72885e+09 0 0
372 2 1 3.73634e+09 3.7366e+09 3.73762e+09 3.7527e+09 1 1
373 1 0 3.75546e+09 3.75572e+09 3.75674e+09 3.75678e+09 0 1
374 1 0 3.77013e+09 3.77037e+09 3.77139e+09 3.77141e+09 0 1
375 2 1 3.77531e+09 3.77557e+09 3.77659e+09 3.78028e+09 0 1
376 1 1 3.78326e+09 3.78351e+09 3.78453e+09 3.78482e+09 0 0
377 1 1 3.79412e+09 3.79437e+09 3.79539e+09 3.79649e+09 1 0
378 1 1 3.80396e+09 3.80421e+09 3.80523e+09 3.80558e+09 1 0
379 1 1 3.81294e+09 3.81319e+09 3.81421e+09 3.84177e+09 1 0
380 1 1 3.84898e+09 3.84924e+09 3.85026e+09 3.85773e+09 0 0
381 1 1 3.86531e+09 3.86555e+09 3.86657e+09 3.87292e+09 0 0
382 2 1 3.88013e+09 3.88038e+09 3.8814e+09 3.88355e+09 0 1
383 2 0 3.8865e+09 3.88676e+09 3.88778e+09 3.88924e+09 0 0
384 2 1 3.89669e+09 3.89694e+09 3.89796e+09 3.9003e+09 1 1
385 1 1 3.90328e+09 3.90353e+09 3.90455e+09 3.90503e+09 0 0
386 1 0 3.91231e+09 3.91256e+09 3.91358e+09 3.93859e+09 1 1
387 2 0 3.94159e+09 3.94184e+09 3.94286e+09 3.94853e+09 0 0
388 2 0 3.95577e+09 3.95602e+09 3.95704e+09 3.96008e+09 1 0
389 2 0 3.96752e+09 3.96778e+09 3.9688e+09 3.97243e+09 1 0
390 2 0 3.97949e+09 3.97974e+09 3.98076e+09 3.98923e+09 1 0
391 2 0 3.99636e+09 3.99662e+09 3.99764e+09 4.07219e+09 0 0
392 2 0 4.07954e+09 4.07979e+09 4.08081e+09 4.09304e+09 0 0
393 2 0 4.10013e+09 4.10039e+09 4.10141e+09 4.11258e+09 0 0
394 1 0 4.11986e+09 4.12012e+09 4.12114e+09 4.13281e+09 0 1
395 1 0 4.13648e+09 4.13674e+09 4.13776e+09 4.13911e+09 0 1
396 1 0 4.14399e+09 4.14426e+09 4.14528e+09 4.1524e+09 0 1
397 1 0 4.1552e+09 4.15547e+09 4.15649e+09 4.1654e+09 0 1
398 1 0 4.16838e+09 4.16864e+09 4.16966e+09 4.18051e+09 0 1
399 1 0 4.1834e+09 4.18364e+09 4.18466e+09 4.19678e+09 0 1
400 2 0 4.19956e+09 4.19982e+09 4.20084e+09 4.21107e+09 0 0
401 2 0 4.21815e+09 4.21842e+09 4.21944e+09 4.22209e+09 1 0
402 2 0 4.22916e+09 4.22941e+09 4.23043e+09 4.24421e+09 1 0
403 2 0 4.2515e+09 4.25176e+09 4.25278e+09 4.25844e+09 1 0
404 2 0 4.26581e+09 4.26606e+09 4.26708e+09 4.27411e+09 0 0
405 2 0 4.28152e+09 4.28177e+09 4.28279e+09 4.28413e+09 0 0
406 2 0 4.2916e+09 4.29186e+09 4.29288e+09 4.29453e+09 0 0
407 1 0 7.1506e+06 7.40428e+06 8.4239e+06 2.33161e+07 0 1
408 2 0 2.6753e+07 2.70066e+07 2.80263e+07 3.78109e+07 0 0
409 2 0 4.48778e+07 4.51297e+07 4.61493e+07 4.92963e+07 1 0
410 2 0 5.65545e+07 5.6803e+07 5.78226e+07 6.64272e+07 1 0
411 2 0 7.36164e+07 7.387e+07 7.48896e+07 9.24785e+07 1 0
412 2 0 1.00023e+08 1.0027e+08 1.01289e+08 1.04603e+08 0 0
413 2 0 1.11914e+08 1.12159e+08 1.13178e+08 1.29419e+08 0 0
414 1 0 1.36834e+08 1.37083e+08 1.38102e+08 1.69437e+08 0 1
415 2 0 1.72206e+08 1.72468e+08 1.73487e+08 1.91535e+08 0 0
416 2 0 1.98947e+08 1.99223e+08 2.00243e+08 2.15225e+08 1 0
417 2 0 2.23953e+08 2.24197e+08 2.25217e+08 2.34199e+08 1 0
418 2 0 2.41355e+08 2.41605e+08 2.42624e+08 2.56856e+08 1 0
419 2 0 2.65733e+08 2.65985e+08 2.67004e+08 2.69064e+08 0 0
420 1 0 2.76277e+08 2.76539e+08 2.77559e+08 2.81449e+08 0 1
421 1 1 2.84245e+08 2.84496e+08 2.85515e+08 3.06963e+08 0 0
422 1 0 3.14454e+08 3.14707e+08 3.15727e+08 3.16138e+08 1 1
423 2 1 3.18856e+08 3.19107e+08 3.20127e+08 3.2031e+08 0 1
424 2 1 3.23102e+08 3.23365e+08 3.24385e+08 3.28467e+08 0 1
425 1 1 3.31216e+08 3.3147e+08 3.3249e+08 3.32622e+08 0 0
426 1 1 3.39705e+08 3.39962e+08 3.40982e+08 3.41001e+08 1 0
427 1 1 3.48621e+08 3.48872e+08 3.49891e+08 3.50545e+08 1 0
428 1 1 3.57829e+08 3.5808e+08 3.591e+08 3.67092e+08 1 0
429 2 0 3.7464e+08 3.74898e+08 3.75917e+08 3.89314e+08 0 0
430 2 0 3.96405e+08 3.9666e+08 3.9768e+08 4.00598e+08 0 0
431 1 1 4.07727e+08 4.07983e+08 4.09003e+08 4.09693e+08 0 0
432 1 0 4.17088e+08 4.17349e+08 4.18368e+08 4.22068e+08 0 1
433 2 0 4.24814e+08 4.25072e+08 4.26092e+08 4.32366e+08 0 0
434 2 0 4.39482e+08 4.39741e+08 4.40761e+08 4.42962e+08 1 0
435 2 0 4.50404e+08 4.5066e+08 4.5168e+08 5.12364e+08 1 0
436 2 0 5.19678e+08 5.1993e+08 5.2095e+08 5.31373e+08 1 0
437 2 0 5.38623e+08 5.38874e+08 5.39894e+08 5.49313e+08 0 0
438 1 0 5.568e+08 5.57045e+08 5.58065e+08 5.58118e+08 0 1
439 1 0 5.61834e+08 5.62087e+08 5.63107e+08 5.65775e+08 0 1
440 2 0 5.68335e+08 5.68582e+08 5.69601e+08 5.73434e+08 0 0
441 2 0 5.81936e+08 5.82192e+08 5.83211e+08 5.86281e+08 1 0
442 2 0 5.93596e+08 5.93843e+08 5.94862e+08 6.0517e+08 1 0
443 2 0 6.12493e+08 6.12742e+08 6.13761e+08 6.32051e+08 1 0
444 2 1 6.4089e+08 6.41142e+08 6.42162e+08 6.58549e+08 0 1
445 2 0 6.61102e+08 6.61351e+08 6.62371e+08 6.75796e+08 0 0
446 2 0 6.82882e+08 6.8314e+08 6.84159e+08 7.04664e+08 1 0
447 2 0 7.1203e+08 7.12286e+08 7.13305e+08 7.2057e+08 1 0
448 2 0 7.27804e+08 7.28049e+08 7.29069e+08 7.42632e+08 1 0
449 2 0 7.49985e+08 7.50241e+08 7.5126e+08 7.70598e+08 0 0
450 1 0 7.77693e+08 7.77944e+08 7.78963e+08 7.94726e+08 0 1
451 1 0 8.01054e+08 8.01317e+08 8.02336e+08 8.02752e+08 0 1
452 1 1 8.05461e+08 8.05713e+08 8.06733e+08 8.25405e+08 0 0
453 1 0 8.34225e+08 8.34476e+08 8.35496e+08 8.40295e+08 1 1
454 2 0 8.44454e+08 8.44704e+08 8.45723e+08 8.61211e+08 0 0
455 2 0 8.68292e+08 8.68548e+08 8.69568e+08 8.77207e+08 1 0
456 2 0 8.84303e+08 8.84546e+08 8.85566e+08 8.85701e+08 1 0
457 2 0 8.93188e+08 8.93439e+08 8.94459e+08 9.10239e+08 1 0
458 2 0 9.1886e+08 9.19114e+08 9.20133e+08 9.24571e+08 0 0
459 2 0 9.32065e+08 9.32325e+08 9.33345e+08 9.42724e+08 0 0
460 1 0 9.51327e+08 9.51579e+08 9.52599e+08 9.6239e+08 0 1
461 2 0 9.65249e+08 9.65504e+08 9.66524e+08 9.68879e+08 0 0
462 2 0 9.7605e+08 9.76305e+08 9.77325e+08 9.92628e+08 1 0
463 2 0 1.00007e+09 1.00032e+09 1.00134e+09 1.00841e+09 1 0
464 2 0 1.01564e+09 1.01589e+09 1.0169e+09 1.02078e+09 1 0
465 1 0 1.02818e+09 1.02842e+09 1.02944e+09 1.04045e+09 0 1
466 1 0 1.04312e+09 1.04337e+09 1.04439e+09 1.06436e+09 0 1
467 1 0 1.06708e+09 1.06733e+09 1.06835e+09 1.08105e+09 0 1
468 2 0 1.08386e+09 1.08411e+09 1.08513e+09 1.09208e+09 0 0
469 2 0 1.09951e+09 1.09978e+09 1.1008e+09 1.10847e+09 1 0
470 2 0 1.11563e+09 1.11589e+09 1.11691e+09 1.13353e+09 1 0
471 2 0 1.14071e+09 1.14095e+09 1.14197e+09 1.14423e+09 1 0
472 1 0 1.15134e+09 1.1516e+09 1.15262e+09 1.16738e+09 0 1
473 2 0 1.17027e+09 1.17052e+09 1.17154e+09 1.17579e+09 0 0
474 2 0 1.18316e+09 1.18341e+09 1.18443e+09 1.18668e+09 1 0
475 2 0 1.19403e+09 1.19428e+09 1.1953e+09 1.20094e+09 1 0
476 2 0 1.20845e+09 1.20869e+09 1.20971e+09 1.24534e+09 1 0
477 2 0 1.25288e+09 1.25313e+09 1.25415e+09 1.28443e+09 0 0
478 1 0 1.2919e+09 1.29215e+09 1.29317e+09 1.30422e+09 0 1
479 1 0 1.30873e+09 1.30899e+09 1.31001e+09 1.32862e+09 0 1
480 2 0 1.33308e+09 1.33333e+09 1.33435e+09 1.3408e+09 0 0
481 2 0 1.34807e+09 1.34832e+09 1.34934e+09 1.36892e+09 1 0
482 2 0 1.37656e+09 1.37681e+09 1.37783e+09 1.40212e+09 1 0
483 2 0 1.40946e+09 1.40972e+09 1.41074e+09 1.41659e+09 1 0
484 2 0 1.42411e+09 1.42436e+09 1.42538e+09 1.44295e+09 0 0
485 1 0 1.45028e+09 1.45054e+09 1.45156e+09 1.45607e+09 0 1
486 2 0 1.45881e+09 1.45905e+09 1.46007e+09 1.4696e+09 0 0
487 2 0 1.47937e+09 1.47963e+09 1.48065e+09 1.48335e+09 1 0
488 2 1 1.49073e+09 1.49099e+09 1.49201e+09 1.59327e+09 1 1
