trial trialType response stillTime stimOnset stimOffset respTime correctionTrial correct
001 1 1 8.42958e+06 8.74706e+06 9.76668e+06 9.87482e+06 0 0
002 1 0 5.77075e+07 5.79731e+07 5.89927e+07 5.89968e+07 1 1
003 1 0 8.44821e+07 8.47616e+07 8.57812e+07 8.58819e+07 0 1
004 2 1 9.40565e+07 9.4326e+07 9.53456e+07 9.53965e+07 0 1
005 2 0 1.44942e+08 1.45214e+08 1.46234e+08 1.48242e+08 0 0
006 2 0 1.57208e+08 1.5746e+08 1.5848e+08 1.60352e+08 1 0
007 2 1 1.67479e+08 1.67732e+08 1.68752e+08 1.69886e+08 1 1
008 1 0 1.73325e+08 1.73589e+08 1.74608e+08 1.74903e+08 0 1
009 2 1 1.7993e+08 1.80186e+08 1.81206e+08 1.86024e+08 0 1
010 2 0 1.92632e+08 1.92893e+08 1.93913e+08 1.9415e+08 0 0
011 2 0 2.03264e+08 2.03524e+08 2.04544e+08 2.05004e+08 1 0
012 2 0 2.17964e+08 2.18219e+08 2.19239e+08 2.20643e+08 1 0
013 2 1 2.28177e+08 2.28434e+08 2.29454e+08 2.29707e+08 1 1
014 1 1 2.32285e+08 2.32534e+08 2.33554e+08 2.34153e+08 0 0
015 1 1 2.43876e+08 2.44129e+08 2.45148e+08 2.4659e+08 1 0
016 1 0 2.5363e+08 2.53889e+08 2.54908e+08 2.54916e+08 1 1
017 1 1 2.6141e+08 2.61669e+08 2.62689e+08 2.65043e+08 0 0
018 1 0 2.73169e+08 2.73428e+08 2.74448e+08 2.76101e+08 1 1
019 2 1 2.80753e+08 2.81019e+08 2.82039e+08 2.82243e+08 0 1
020 2 0 2.86108e+08 2.86362e+08 2.87381e+08 2.87396e+08 0 0
021 2 0 2.9473e+08 2.94984e+08 2.96004e+08 2.96646e+08 1 0
022 2 0 3.0526e+08 3.0551e+08 3.0653e+08 3.07822e+08 1 0
023 2 1 3.18033e+08 3.18296e+08 3.19316e+08 3.25053e+08 1 1
024 2 0 3.27756e+08 3.28007e+08 3.29027e+08 3.30028e+08 0 0
025 2 0 3.38296e+08 3.38561e+08 3.3958e+08 3.39601e+08 1 0
026 2 0 3.47169e+08 3.47432e+08 3.48452e+08 3.48467e+08 1 0
027 2 0 3.56504e+08 3.56761e+08 3.57781e+08 3.5782e+08 1 0
028 1 1 3.65203e+08 3.65459e+08 3.66479e+08 3.66552e+08 0 0
029 1 0 3.73977e+08 3.74224e+08 3.75243e+08 3.75355e+08 0 1
030 2 1 3.79947e+08 3.80198e+08 3.81217e+08 3.81275e+08 0 1
031 1 0 3.86668e+08 3.86912e+08 3.87932e+08 3.87999e+08 0 1
032 2 0 3.9372e+08 3.93982e+08 3.95002e+08 3.96495e+08 0 0
033 2 1 4.03549e+08 4.03814e+08 4.04833e+08 4.05061e+08 1 1
034 1 0 4.10549e+08 4.10803e+08 4.11822e+08 4.12005e+08 0 1
035 2 0 4.19344e+08 4.19603e+08 4.20623e+08 4.21118e+08 0 0
036 2 0 4.295e+08 4.29765e+08 4.30785e+08 4.31578e+08 1 0
037 2 0 4.47077e+08 4.47344e+08 4.48363e+08 4.55751e+08 1 0
038 2 0 4.62941e+08 4.63198e+08 4.64218e+08 4.64603e+08 1 0
039 1 1 4.72208e+08 4.72468e+08 4.73488e+08 4.74513e+08 0 0
040 2 1 4.82927e+08 4.8318e+08 4.84199e+08 4.86684e+08 0 1
041 1 0 4.94836e+08 4.95098e+08 4.96118e+08 4.96389e+08 0 1
042 1 0 5.0613e+08 5.06382e+08 5.07402e+08 5.07436e+08 0 1
043 2 0 5.15607e+08 5.1586e+08 5.16879e+08 5.1799e+08 0 0
044 2 1 5.26901e+08 5.27156e+08 5.28175e+08 5.28307e+08 1 1
045 2 1 5.32055e+08 5.32323e+08 5.33343e+08 5.33493e+08 0 1
046 1 0 5.44404e+08 5.44662e+08 5.45682e+08 5.46184e+08 0 1
047 1 0 5.55363e+08 5.55616e+08 5.56635e+08 5.58308e+08 0 1
048 2 0 5.6421e+08 5.6447e+08 5.6549e+08 5.66178e+08 0 0
049 2 0 5.73416e+08 5.73669e+08 5.74689e+08 5.74858e+08 1 0
050 2 0 5.83925e+08 5.84178e+08 5.85198e+08 5.85986e+08 1 0
051 2 0 5.93031e+08 5.93295e+08 5.94314e+08 5.94438e+08 1 0
052 1 1 6.01678e+08 6.01932e+08 6.02952e+08 6.09295e+08 0 0
053 1 0 6.17696e+08 6.17953e+08 6.18972e+08 6.2035e+08 0 1
054 1 0 6.25358e+08 6.2561e+08 6.2663e+08 6.31946e+08 0 1
055 1 1 6.3774e+08 6.38014e+08 6.39034e+08 6.39171e+08 0 0
056 1 0 6.46695e+08 6.46955e+08 6.47974e+08 6.49082e+08 1 1
057 1 1 6.53591e+08 6.53838e+08 6.54858e+08 6.56211e+08 0 0
058 1 1 6.63576e+08 6.63837e+08 6.64857e+08 6.65109e+08 1 0
059 1 1 6.75557e+08 6.75821e+08 6.76841e+08 6.77242e+08 1 0
060 1 1 6.85151e+08 6.85406e+08 6.86425e+08 6.86463e+08 1 0
061 2 1 6.94315e+08 6.94574e+08 6.95593e+08 6.98145e+08 0 1
062 2 1 7.02172e+08 7.0244e+08 7.03459e+08 7.04043e+08 0 1
063 2 1 7.08674e+08 7.08936e+08 7.09955e+08 7.12338e+08 0 1
064 2 0 7.23241e+08 7.23507e+08 7.24527e+08 7.25886e+08 0 0
065 2 1 7.33343e+08 7.33593e+08 7.34613e+08 7.34979e+08 1 1
066 1 1 7.41491e+08 7.41744e+08 7.42764e+08 7.42805e+08 0 0
067 1 1 7.51936e+08 7.52198e+08 7.53217e+08 7.54204e+08 1 0
068 1 1 7.63407e+08 7.63658e+08 7.64677e+08 7.67016e+08 1 0
069 1 0 7.7523e+08 7.75492e+08 7.76512e+08 7.77918e+08 1 1
070 2 1 7.86127e+08 7.86387e+08 7.87406e+08 7.88361e+08 0 1
071 2 0 7.96539e+08 7.96789e+08 7.97808e+08 8.00324e+08 0 0
072 2 0 8.09071e+08 8.09333e+08 8.10353e+08 8.12149e+08 1 0
073 2 0 8.19521e+08 8.19785e+08 8.20804e+08 8.21072e+08 1 0
074 2 1 8.28424e+08 8.28677e+08 8.29697e+08 8.31383e+08 1 1
075 2 0 8.39441e+08 8.39687e+08 8.40707e+08 8.42025e+08 0 0
076 2 0 8.52261e+08 8.52521e+08 8.5354e+08 8.53565e+08 1 0
077 2 1 8.60792e+08 8.61055e+08 8.62074e+08 8.62477e+08 1 1
078 2 0 8.70909e+08 8.7116e+08 8.7218e+08 8.722e+08 0 0
079 2 1 8.83351e+08 8.83609e+08 8.84628e+08 8.849e+08 1 1
080 2 1 8.88803e+08 8.89062e+08 8.90081e+08 8.90498e+08 0 1
081 2 1 8.95801e+08 8.96064e+08 8.97084e+08 8.97193e+08 0 1
082 1 0 9.02768e+08 9.03011e+08 9.0403e+08 9.04916e+08 0 1
083 1 0 9.11048e+08 9.11309e+08 9.12328e+08 9.12719e+08 0 1
084 1 0 9.21426e+08 9.21688e+08 9.22708e+08 9.22734e+08 0 1
085 1 1 9.26764e+08 9.27022e+08 9.28041e+08 9.30174e+08 0 0
086 1 1 9.37394e+08 9.37654e+08 9.38674e+08 9.38946e+08 1 0
087 1 0 9.50086e+08 9.50356e+08 9.51376e+08 9.51608e+08 1 1
088 1 0 9.61038e+08 9.61295e+08 9.62315e+08 9.63777e+08 0 1
089 2 0 9.7439e+08 9.74648e+08 9.75667e+08 9.77575e+08 0 0
090 2 0 9.85816e+08 9.86062e+08 9.87082e+08 9.88061e+08 1 0
091 2 1 9.95985e+08 9.96244e+08 9.97264e+08 9.98714e+08 1 1
092 1 0 1.00303e+09 1.00329e+09 1.00431e+09 1.00561e+09 0 1
093 1 1 1.00917e+09 1.00942e+09 1.01044e+09 1.0118e+09 0 0
094 1 1 1.024e+09 1.02427e+09 1.02529e+09 1.02539e+09 1 0
095 1 1 1.03787e+09 1.03813e+09 1.03915e+09 1.03986e+09 1 0
096 1 0 1.0502e+09 1.05045e+09 1.05147e+09 1.05208e+09 1 1
097 2 1 1.05968e+09 1.05995e+09 1.06097e+09 1.06099e+09 0 1
098 1 0 1.07182e+09 1.07207e+09 1.07309e+09 1.07484e+09 0 1
099 2 1 1.08173e+09 1.08198e+09 1.083e+09 1.08328e+09 0 1
100 2 1 1.09132e+09 1.09157e+09 1.09259e+09 1.0975e+09 0 1
101 1 0 1.10328e+09 1.10354e+09 1.10456e+09 1.10462e+09 0 1
102 1 0 1.11504e+09 1.11529e+09 1.11631e+09 1.11723e+09 0 1
103 1 1 1.12007e+09 1.12033e+09 1.12135e+09 1.12256e+09 0 0
104 1 0 1.12993e+09 1.13018e+09 1.1312e+09 1.13121e+09 1 1
105 1 0 1.13793e+09 1.1382e+09 1.13922e+09 1.13926e+09 0 1
106 1 1 1.14419e+09 1.14444e+09 1.14546e+09 1.14563e+09 0 0
107 1 0 1.15579e+09 1.15604e+09 1.15706e+09 1.15916e+09 1 1
108 1 1 1.16449e+09 1.16474e+09 1.16576e+09 1.16722e+09 0 0
109 1 0 1.17883e+09 1.1791e+09 1.18012e+09 1.18267e+09 1 1
110 1 1 1.1972e+09 1.19745e+09 1.19847e+09 1.19848e+09 0 0
111 1 1 1.20572e+09 1.20598e+09 1.207e+09 1.20705e+09 1 0
112 1 1 1.21765e+09 1.2179e+09 1.21892e+09 1.22003e+09 1 0
113 1 1 1.22731e+09 1.22757e+09 1.22859e+09 1.22861e+09 1 0
114 2 0 1.23623e+09 1.23649e+09 1.23751e+09 1.23822e+09 0 0
115 2 0 1.25103e+09 1.25128e+09 1.2523e+09 1.25237e+09 0 0
116 2 0 1.26316e+09 1.26342e+09 1.26444e+09 1.26623e+09 0 0
117 1 0 1.27837e+09 1.27863e+09 1.27964e+09 1.27997e+09 0 1
118 2 1 1.2883e+09 1.28856e+09 1.28958e+09 1.28972e+09 0 1
119 1 1 1.30153e+09 1.30177e+09 1.30279e+09 1.3029e+09 0 0
120 1 1 1.31034e+09 1.31059e+09 1.31161e+09 1.31644e+09 1 0
121 1 0 1.32374e+09 1.32399e+09 1.32501e+09 1.32554e+09 1 1
122 1 1 1.33083e+09 1.33109e+09 1.33211e+09 1.33221e+09 0 0
123 1 1 1.33933e+09 1.33959e+09 1.34061e+09 1.34111e+09 1 0
124 1 1 1.34815e+09 1.34841e+09 1.34943e+09 1.35089e+09 1 0
125 1 0 1.35919e+09 1.35944e+09 1.36046e+09 1.36206e+09 1 1
126 1 0 1.37134e+09 1.3716e+09 1.37262e+09 1.37283e+09 0 1
127 2 0 1.37983e+09 1.38008e+09 1.3811e+09 1.38199e+09 0 0
128 2 0 1.38906e+09 1.38931e+09 1.39032e+09 1.39342e+09 1 0
129 2 0 1.40311e+09 1.40337e+09 1.40439e+09 1.40491e+09 1 0
130 2 0 1.41462e+09 1.41487e+09 1.41589e+09 1.41607e+09 1 0
131 2 0 1.42456e+09 1.42482e+09 1.42584e+09 1.42612e+09 0 0
132 1 0 1.43464e+09 1.4349e+09 1.43592e+09 1.43827e+09 0 1
133 1 0 1.44233e+09 1.44259e+09 1.44361e+09 1.44398e+09 0 1
134 2 0 1.45459e+09 1.45485e+09 1.45587e+09 1.45606e+09 0 0
135 2 1 1.46369e+09 1.46395e+09 1.46496e+09 1.46981e+09 1 1
136 2 1 1.475e+09 1.47525e+09 1.47627e+09 1.47628e+09 0 1
137 2 1 1.48182e+09 1.48208e+09 1.4831e+09 1.48452e+09 0 1
138 1 1 1.49285e+09 1.49311e+09 1.49413e+09 1.49416e+09 0 0
139 1 0 1.50138e+09 1.50163e+09 1.50265e+09 1.50857e+09 1 1
140 2 1 1.51351e+09 1.51377e+09 1.51479e+09 1.51486e+09 0 1
141 1 0 1.52038e+09 1.52062e+09 1.52164e+09 1.52165e+09 0 1
142 2 0 1.53556e+09 1.53582e+09 1.53684e+09 1.5386e+09 0 0
143 2 1 1.54744e+09 1.5477e+09 1.54872e+09 1.54989e+09 1 1
144 2 1 1.55268e+09 1.55294e+09 1.55396e+09 1.55419e+09 0 1
145 2 1 1.56516e+09 1.56541e+09 1.56643e+09 1.56775e+09 0 1
146 1 1 1.57249e+09 1.57275e+09 1.57377e+09 1.57486e+09 0 0
147 1 0 1.58203e+09 1.58229e+09 1.58331e+09 1.5835e+09 1 1
148 2 0 1.59548e+09 1.59574e+09 1.59676e+09 1.59734e+09 0 0
149 2 0 1.60471e+09 1.60497e+09 1.60599e+09 1.61154e+09 1 0
150 2 0 1.61899e+09 1.61925e+09 1.62027e+09 1.62048e+09 1 0
151 2 0 1.62876e+09 1.62901e+09 1.63003e+09 1.63262e+09 1 0
152 2 0 1.63991e+09 1.64017e+09 1.64119e+09 1.64204e+09 0 0
153 1 1 1.65149e+09 1.65175e+09 1.65277e+09 1.65461e+09 0 0
154 1 0 1.66201e+09 1.66226e+09 1.66328e+09 1.66754e+09 0 1
155 2 0 1.67523e+09 1.6755e+09 1.67652e+09 1.67685e+09 0 0
156 2 1 1.6841e+09 1.68435e+09 1.68537e+09 1.6855e+09 1 1
157 2 0 1.69259e+09 1.69284e+09 1.69386e+09 1.69387e+09 0 0
158 2 0 1.70296e+09 1.70323e+09 1.70425e+09 1.70629e+09 1 0
159 2 0 1.71372e+09 1.71397e+09 1.71499e+09 1.71551e+09 1 0
160 2 0 1.72277e+09 1.72302e+09 1.72404e+09 1.72645e+09 1 0
161 1 0 1.73392e+09 1.73417e+09 1.73519e+09 1.73566e+09 0 1
162 2 1 1.73814e+09 1.7384e+09 1.73942e+09 1.74104e+09 0 1
163 2 0 1.75523e+09 1.75549e+09 1.75651e+09 1.75708e+09 0 0
164 2 1 1.76439e+09 1.76464e+09 1.76566e+09 1.76567e+09 1 1
165 1 0 1.7789e+09 1.77916e+09 1.78018e+09 1.78107e+09 0 1
166 1 0 1.7878e+09 1.78805e+09 1.78907e+09 1.78964e+09 0 1
167 2 1 1.80031e+09 1.80057e+09 1.80159e+09 1.80164e+09 0 1
168 1 0 1.80449e+09 1.80474e+09 1.80576e+09 1.80601e+09 0 1
169 2 1 1.8106e+09 1.81086e+09 1.81188e+09 1.81343e+09 0 1
170 2 0 1.81637e+09 1.81663e+09 1.81765e+09 1.81776e+09 0 0
171 2 0 1.82779e+09 1.82805e+09 1.82907e+09 1.82996e+09 1 0
172 2 0 1.84056e+09 1.84081e+09 1.84183e+09 1.84765e+09 1 0
173 2 0 1.85774e+09 1.858e+09 1.85902e+09 1.86071e+09 1 0
174 2 0 1.87023e+09 1.87049e+09 1.87151e+09 1.87358e+09 0 0
175 1 0 1.88102e+09 1.88128e+09 1.8823e+09 1.8851e+09 0 1
176 2 0 1.89526e+09 1.89553e+09 1.89655e+09 1.8966e+09 0 0
177 2 1 1.90765e+09 1.9079e+09 1.90892e+09 1.90907e+09 1 1
178 1 1 1.91821e+09 1.91848e+09 1.9195e+09 1.91958e+09 0 0
179 1 1 1.92674e+09 1.92699e+09 1.92801e+09 1.9281e+09 1 0
180 1 0 1.93986e+09 1.94011e+09 1.94113e+09 1.9418e+09 1 1
181 1 0 1.94698e+09 1.94724e+09 1.94826e+09 1.94851e+09 0 1
182 2 0 1.95685e+09 1.95712e+09 1.95814e+09 1.95836e+09 0 0
183 2 1 1.96652e+09 1.96677e+09 1.96779e+09 1.96885e+09 1 1
184 1 1 1.97649e+09 1.97675e+09 1.97777e+09 1.97999e+09 0 0
185 1 1 1.98731e+09 1.98757e+09 1.98859e+09 1.98867e+09 1 0
186 1 0 1.99942e+09 1.99967e+09 2.00069e+09 2.00409e+09 1 1
187 1 0 2.01449e+09 2.01474e+09 2.01576e+09 2.01705e+09 0 1
188 2 0 2.02018e+09 2.02045e+09 2.02147e+09 2.02351e+09 0 0
189 2 0 2.03156e+09 2.03182e+09 2.03284e+09 2.03297e+09 1 0
190 2 0 2.04135e+09 2.04161e+09 2.04263e+09 2.04557e+09 1 0
191 2 1 2.05274e+09 2.05299e+09 2.05401e+09 2.05997e+09 1 1
192 1 1 2.06683e+09 2.06709e+09 2.06811e+09 2.07547e+09 0 0
193 1 1 2.08571e+09 2.08597e+09 2.08699e+09 2.08715e+09 1 0
194 1 0 2.09469e+09 2.09496e+09 2.09598e+09 2.09715e+09 1 1
195 1 1 2.10161e+09 2.10187e+09 2.10289e+09 2.10573e+09 0 0
196 1 1 2.1128e+09 2.11306e+09 2.11408e+09 2.11511e+09 1 0
197 1 0 2.12218e+09 2.12243e+09 2.12345e+09 2.15594e+09 1 1
198 2 0 2.16009e+09 2.16035e+09 2.16137e+09 2.16322e+09 0 0
199 2 0 2.17143e+09 2.17169e+09 2.17271e+09 2.17418e+09 1 0
200 2 1 2.18348e+09 2.18373e+09 2.18475e+09 2.18561e+09 1 1
201 1 1 2.19003e+09 2.1903e+09 2.19132e+09 2.19327e+09 0 0
202 1 0 2.2006e+09 2.20086e+09 2.20188e+09 2.20192e+09 1 1
203 2 0 2.20857e+09 2.20882e+09 2.20984e+09 2.21152e+09 0 0
204 2 0 2.22129e+09 2.22155e+09 2.22257e+09 2.23388e+09 1 0
205 2 1 2.24137e+09 2.24163e+09 2.24265e+09 2.24538e+09 1 1
206 2 0 2.25049e+09 2.25076e+09 2.25178e+09 2.25179e+09 0 0
207 2 0 2.25932e+09 2.25958e+09 2.2606e+09 2.26998e+09 1 0
208 2 1 2.27946e+09 2.27971e+09 2.28073e+09 2.28167e+09 1 1
209 2 0 2.28435e+09 2.2846e+09 2.28562e+09 2.28569e+09 0 0
210 2 0 2.29312e+09 2.29338e+09 2.2944e+09 2.29669e+09 1 0
211 2 0 2.30744e+09 2.30769e+09 2.30871e+09 2.31209e+09 1 0
212 2 0 2.32153e+09 2.32178e+09 2.3228e+09 2.33241e+09 1 0
213 1 0 2.34392e+09 2.34417e+09 2.34519e+09 2.34699e+09 0 1
214 1 0 2.35552e+09 2.35578e+09 2.3568e+09 2.35779e+09 0 1
215 2 0 2.36278e+09 2.36304e+09 2.36406e+09 2.37004e+09 0 0
216 2 0 2.37729e+09 2.37755e+09 2.37856e+09 2.37884e+09 1 0
217 2 0 2.38619e+09 2.38645e+09 2.38747e+09 2.39106e+09 1 0
218 2 1 2.40149e+09 2.40175e+09 2.40277e+09 2.40623e+09 1 1
219 1 0 2.41718e+09 2.41742e+09 2.41844e+09 2.41879e+09 0 1
220 2 1 2.42259e+09 2.42285e+09 2.42387e+09 2.42397e+09 0 1
221 1 1 2.42842e+09 2.42866e+09 2.42968e+09 2.4328e+09 0 0
222 1 0 2.441e+09 2.44127e+09 2.44229e+09 2.4487e+09 1 1
223 2 0 2.45495e+09 2.4552e+09 2.45622e+09 2.46428e+09 0 0
224 2 0 2.4716e+09 2.47185e+09 2.47287e+09 2.47376e+09 1 0
225 2 0 2.48248e+09 2.48274e+09 2.48376e+09 2.49083e+09 1 0
226 2 1 2.4983e+09 2.49855e+09 2.49957e+09 2.50034e+09 1 1
227 2 0 2.5032e+09 2.50346e+09 2.50448e+09 2.50648e+09 0 0
228 2 0 2.51386e+09 2.51411e+09 2.51513e+09 2.53154e+09 1 0
229 2 1 2.53864e+09 2.5389e+09 2.53991e+09 2.56552e+09 1 1
230 1 1 2.56907e+09 2.56933e+09 2.57035e+09 2.57403e+09 0 0
231 1 0 2.58848e+09 2.58873e+09 2.58975e+09 2.58998e+09 1 1
232 2 1 2.59258e+09 2.59283e+09 2.59385e+09 2.60172e+09 0 1
233 2 0 2.6043e+09 2.60455e+09 2.60557e+09 2.62004e+09 0 0
234 2 1 2.62756e+09 2.62781e+09 2.62883e+09 2.63509e+09 1 1
235 2 0 2.63784e+09 2.6381e+09 2.63912e+09 2.63925e+09 0 0
236 2 0 2.64657e+09 2.64682e+09 2.64784e+09 2.64887e+09 1 0
237 2 1 2.65631e+09 2.65656e+09 2.65758e+09 2.65795e+09 1 1
238 2 0 2.66213e+09 2.66239e+09 2.66341e+09 2.66365e+09 0 0
239 2 0 2.67091e+09 2.67116e+09 2.67218e+09 2.67661e+09 1 0
240 2 1 2.6874e+09 2.68767e+09 2.68869e+09 2.68872e+09 1 1
241 1 0 2.6932e+09 2.69345e+09 2.69447e+09 2.69459e+09 0 1
242 1 0 2.69753e+09 2.69779e+09 2.69881e+09 2.70389e+09 0 1
243 1 1 2.70909e+09 2.70933e+09 2.71035e+09 2.71397e+09 0 0
244 1 1 2.72236e+09 2.72261e+09 2.72363e+09 2.72517e+09 1 0
245 1 1 2.73415e+09 2.73441e+09 2.73543e+09 2.73678e+09 1 0
246 1 0 2.74381e+09 2.74406e+09 2.74508e+09 2.74798e+09 1 1
247 1 0 2.75218e+09 2.75243e+09 2.75345e+09 2.75378e+09 0 1
248 2 0 2.75638e+09 2.75664e+09 2.75766e+09 2.75772e+09 0 0
249 2 1 2.76583e+09 2.76608e+09 2.7671e+09 2.77305e+09 1 1
250 1 0 2.77804e+09 2.77829e+09 2.77931e+09 2.78762e+09 0 1
251 2 1 2.79046e+09 2.79071e+09 2.79173e+09 2.79238e+09 0 1
252 1 0 2.79639e+09 2.79665e+09 2.79767e+09 2.80004e+09 0 1
253 1 1 2.80419e+09 2.80445e+09 2.80547e+09 2.80552e+09 0 0
254 1 1 2.81705e+09 2.8173e+09 2.81832e+09 2.82044e+09 1 0
255 1 1 2.82763e+09 2.82789e+09 2.82891e+09 2.8333e+09 1 0
256 1 0 2.84349e+09 2.84375e+09 2.84477e+09 2.86468e+09 1 1
257 1 0 2.86872e+09 2.86898e+09 2.87e+09 2.87013e+09 0 1
258 1 1 2.87536e+09 2.87561e+09 2.87663e+09 2.87774e+09 0 0
259 1 0 2.88481e+09 2.88507e+09 2.88609e+09 2.89363e+09 1 1
260 2 0 2.90041e+09 2.90065e+09 2.90167e+09 2.90255e+09 0 0
261 2 0 2.91001e+09 2.91026e+09 2.91128e+09 2.91129e+09 1 0
262 2 0 2.92247e+09 2.92273e+09 2.92374e+09 2.92389e+09 1 0
263 2 1 2.93453e+09 2.93479e+09 2.93581e+09 2.93778e+09 1 1
264 1 0 2.94214e+09 2.9424e+09 2.94342e+09 2.9448e+09 0 1
265 1 0 2.95321e+09 2.95347e+09 2.95449e+09 2.95563e+09 0 1
266 1 1 2.95834e+09 2.9586e+09 2.95962e+09 2.9758e+09 0 0
267 1 0 2.98318e+09 2.98343e+09 2.98445e+09 2.98921e+09 1 1
268 2 1 2.99197e+09 2.99222e+09 2.99324e+09 2.99413e+09 0 1
269 1 0 2.99687e+09 2.99713e+09 2.99815e+09 3.02226e+09 0 1
270 1 0 3.02522e+09 3.02547e+09 3.02649e+09 3.02691e+09 0 1
271 2 1 3.03189e+09 3.03214e+09 3.03316e+09 3.03619e+09 0 1
272 1 1 3.03986e+09 3.04012e+09 3.04114e+09 3.04193e+09 0 0
273 1 0 3.05019e+09 3.05045e+09 3.05147e+09 3.05895e+09 1 1
274 1 1 3.06312e+09 3.06339e+09 3.06441e+09 3.06514e+09 0 0
275 1 1 3.07436e+09 3.07462e+09 3.07563e+09 3.08222e+09 1 0
276 1 0 3.08988e+09 3.09013e+09 3.09115e+09 3.10609e+09 1 1
277 1 1 3.1171e+09 3.11735e+09 3.11837e+09 3.14038e+09 0 0
278 1 1 3.14761e+09 3.14785e+09 3.14887e+09 3.15386e+09 1 0
279 1 0 3.16095e+09 3.16121e+09 3.16223e+09 3.16273e+09 1 1
280 2 1 3.16541e+09 3.16567e+09 3.16669e+09 3.16763e+09 0 1
281 2 1 3.1776e+09 3.17786e+09 3.17888e+09 3.18083e+09 0 1
282 2 1 3.18374e+09 3.184e+09 3.18502e+09 3.24546e+09 0 1
283 1 1 3.24803e+09 3.24829e+09 3.24931e+09 3.27754e+09 0 0
284 1 1 3.28488e+09 3.28514e+09 3.28616e+09 3.29134e+09 1 0
285 1 1 3.30057e+09 3.30082e+09 3.30184e+09 3.31545e+09 1 0
286 1 1 3.32309e+09 3.32334e+09 3.32436e+09 3.32555e+09 1 0
287 2 1 3.33289e+09 3.33315e+09 3.33417e+09 3.33801e+09 0 1
288 2 0 3.34058e+09 3.34085e+09 3.34187e+09 3.3612e+09 0 0
289 2 0 3.36961e+09 3.36986e+09 3.37088e+09 3.39658e+09 1 0
290 2 1 3.4048e+09 3.40505e+09 3.40607e+09 3.40847e+09 1 1
291 2 0 3.414e+09 3.41426e+09 3.41528e+09 3.44762e+09 0 0
292 2 1 3.45478e+09 3.45504e+09 3.45606e+09 3.49585e+09 1 1
293 2 1 3.49979e+09 3.50005e+09 3.50107e+09 3.51677e+09 0 1
294 2 0 3.52071e+09 3.52097e+09 3.52199e+09 3.55494e+09 0 0
295 2 1 3.56243e+09 3.56269e+09 3.56371e+09 3.58237e+09 1 1
296 1 0 3.58509e+09 3.58533e+09 3.58635e+09 3.59911e+09 0 1
297 1 0 3.60294e+09 3.60318e+09 3.6042e+09 3.60539e+09 0 1
298 2 0 3.60845e+09 3.60871e+09 3.60973e+09 3.61035e+09 0 0
299 2 1 3.61768e+09 3.61794e+09 3.61896e+09 3.64962e+09 1 1
300 2 0 3.65349e+09 3.65375e+09 3.65477e+09 3.66363e+09 0 0
301 2 0 3.67072e+09 3.67097e+09 3.67199e+09 3.67686e+09 1 0
302 2 0 3.68412e+09 3.68437e+09 3.68539e+09 3.68673e+09 1 0
303 2 0 3.69579e+09 3.69605e+09 3.69707e+09 3.72519e+09 1 0
304 1 1 3.73264e+09 3.73291e+09 3.73392e+09 3.73403e+09 0 0
305 1 1 3.74154e+09 3.7418e+09 3.74282e+09 3.75306e+09 0 0
306 1 1 3.76061e+09 3.76087e+09 3.76189e+09 3.76556e+09 0 0
307 2 0 3.77303e+09 3.77328e+09 3.7743e+09 3.77431e+09 0 0
308 1 0 3.78167e+09 3.78193e+09 3.78295e+09 3.78508e+09 0 1
309 1 0 3.78855e+09 3.7888e+09 3.78982e+09 3.79265e+09 0 1
310 1 1 3.79656e+09 3.79681e+09 3.79783e+09 3.81161e+09 0 0
311 1 0 3.8188e+09 3.81906e+09 3.82008e+09 3.82804e+09 1 1
312 2 0 3.83296e+09 3.83322e+09 3.83424e+09 3.83583e+09 0 0
313 2 0 3.84292e+09 3.84318e+09 3.8442e+09 3.84579e+09 1 0
314 2 0 3.85408e+09 3.85434e+09 3.85536e+09 3.86266e+09 1 0
315 2 0 3.86988e+09 3.87012e+09 3.87114e+09 3.88393e+09 1 0
316 1 0 3.89129e+09 3.89155e+09 3.89257e+09 3.89428e+09 0 1
317 2 0 3.90011e+09 3.90036e+09 3.90138e+09 3.9023e+09 0 0
318 2 0 3.90954e+09 3.90979e+09 3.91081e+09 3.92256e+09 1 0
319 2 0 3.93069e+09 3.93095e+09 3.93197e+09 3.9343e+09 1 0
320 2 0 3.94223e+09 3.94248e+09 3.9435e+09 3.94832e+09 1 0
321 1 1 3.95671e+09 3.95696e+09 3.95798e+09 3.95921e+09 0 0
322 1 0 3.96749e+09 3.96775e+09 3.96877e+09 3.96924e+09 0 1
323 1 1 3.97198e+09 3.97224e+09 3.97326e+09 3.97342e+09 0 0
324 1 1 3.98055e+09 3.9808e+09 3.98182e+09 3.98184e+09 1 0
325 1 0 3.98963e+09 3.98988e+09 3.9909e+09 3.99309e+09 1 1
326 1 0 3.99623e+09 3.99648e+09 3.9975e+09 3.99844e+09 0 1
327 2 1 4.00437e+09 4.00462e+09 4.00564e+09 4.00645e+09 0 1
328 2 1 4.0147e+09 4.01495e+09 4.01597e+09 4.01608e+09 0 1
329 2 0 4.01983e+09 4.02008e+09 4.0211e+09 4.02111e+09 0 0
330 2 0 4.02933e+09 4.02959e+09 4.03061e+09 4.03128e+09 1 0
331 2 1 4.03888e+09 4.03913e+09 4.04015e+09 4.04452e+09 1 1
332 2 1 4.04879e+09 4.04904e+09 4.05006e+09 4.05029e+09 0 1
333 2 1 4.06409e+09 4.06434e+09 4.06536e+09 4.07076e+09 0 1
334 2 0 4.0748e+09 4.07505e+09 4.07607e+09 4.07687e+09 0 0
335 2 1 4.08465e+09 4.08491e+09 4.08592e+09 4.08844e+09 1 1
336 1 0 4.095e+09 4.09526e+09 4.09628e+09 4.09654e+09 0 1
337 2 0 4.10015e+09 4.1004e+09 4.10142e+09 4.10269e+09 0 0
338 2 0 4.11018e+09 4.11043e+09 4.11145e+09 4.11331e+09 1 0
339 2 0 4.12076e+09 4.12102e+09 4.12204e+09 4.12857e+09 1 0
340 2 0 4.13605e+09 4.1363e+09 4.13732e+09 4.13774e+09 1 0
341 1 0 4.1453e+09 4.14555e+09 4.14657e+09 4.14834e+09 0 1
342 1 0 4.15197e+09 4.15221e+09 4.15323e+09 4.15668e+09 0 1
343 2 1 4.15987e+09 4.16011e+09 4.16113e+09 4.16238e+09 0 1
344 2 0 4.16654e+09 4.16678e+09 4.1678e+09 4.16894e+09 0 0
345 2 0 4.17607e+09 4.17633e+09 4.17735e+09 4.1813e+09 1 0
346 2 0 4.18917e+09 4.18943e+09 4.19045e+09 4.2327e+09 1 0
347 2 1 4.23973e+09 4.23998e+09 4.241e+09 4.24157e+09 1 1
348 2 1 4.24596e+09 4.24621e+09 4.24723e+09 4.24816e+09 0 1
349 1 1 4.25072e+09 4.25097e+09 4.25199e+09 4.25432e+09 0 0
350 1 0 4.26172e+09 4.26197e+09 4.26299e+09 4.2656e+09 1 1
351 2 0 4.27041e+09 4.27066e+09 4.27168e+09 4.27394e+09 0 0
352 2 0 4.28109e+09 4.28134e+09 4.28236e+09 4.29298e+09 1 0
353 2 1 9.26414e+06 9.51624e+06 1.05359e+07 3.46923e+07 1 1
354 2 1 3.7802e+07 3.80628e+07 3.90824e+07 9.49292e+07 0 1
355 2 1 1.01801e+08 1.02058e+08 1.03077e+08 1.05018e+08 0 1
356 2 1 1.0994e+08 1.10189e+08 1.11209e+08 1.12624e+08 0 1
357 2 0 1.22457e+08 1.227e+08 1.23719e+08 1.29725e+08 0 0
358 2 0 1.38152e+08 1.38415e+08 1.39435e+08 1.52541e+08 1 0
359 2 0 1.59801e+08 1.60052e+08 1.61072e+08 1.67671e+08 1 0
360 2 0 1.74724e+08 1.74978e+08 1.75997e+08 1.77103e+08 1 0
361 2 0 1.84244e+08 1.84491e+08 1.85511e+08 1.85611e+08 0 0
362 1 0 1.92804e+08 1.93066e+08 1.94086e+08 2.02597e+08 0 1
363 1 0 2.07776e+08 2.08027e+08 2.09046e+08 2.10176e+08 0 1
364 1 1 2.14657e+08 2.14914e+08 2.15934e+08 2.18573e+08 0 0
365 1 0 2.26015e+08 2.26273e+08 2.27292e+08 2.28156e+08 1 1
366 2 0 2.31455e+08 2.31713e+08 2.32732e+08 2.33798e+08 0 0
367 2 0 2.42484e+08 2.42743e+08 2.43763e+08 2.44095e+08 1 0
368 2 0 2.51401e+08 2.51645e+08 2.52665e+08 2.72079e+08 1 0
369 2 0 2.79525e+08 2.79787e+08 2.80806e+08 2.82543e+08 1 0
370 1 0 2.91683e+08 2.91948e+08 2.92968e+08 2.96053e+08 0 1
371 1 0 3.00344e+08 3.00609e+08 3.01629e+08 3.03819e+08 0 1
372 1 1 3.08752e+08 3.08997e+08 3.10017e+08 3.17425e+08 0 0
373 1 0 3.25505e+08 3.25758e+08 3.26778e+08 3.44243e+08 1 1
374 2 0 3.49208e+08 3.49452e+08 3.50472e+08 3.65371e+08 0 0
375 2 0 3.72565e+08 3.72825e+08 3.73845e+08 3.91399e+08 1 0
376 2 0 4.00911e+08 4.01174e+08 4.02194e+08 4.041e+08 1 0
377 2 0 4.13279e+08 4.1354e+08 4.14559e+08 4.15108e+08 1 0
378 1 0 4.24831e+08 4.25091e+08 4.26111e+08 4.27522e+08 0 1
379 1 0 4.31439e+08 4.31699e+08 4.32719e+08 4.37887e+08 0 1
380 2 0 4.41282e+08 4.41534e+08 4.42553e+08 4.4256e+08 0 0
381 2 0 4.50076e+08 4.50321e+08 4.51341e+08 4.52048e+08 1 0
382 2 0 4.59187e+08 4.59441e+08 4.60461e+08 4.64479e+08 1 0
383 2 0 4.73217e+08 4.73466e+08 4.74485e+08 4.76614e+08 1 0
384 2 0 4.84343e+08 4.84606e+08 4.85626e+08 4.93548e+08 0 0
385 2 0 5.01708e+08 5.01952e+08 5.02972e+08 5.04779e+08 0 0
386 1 0 5.12101e+08 5.12355e+08 5.13374e+08 5.17091e+08 0 1
387 2 0 5.20117e+08 5.20383e+08 5.21402e+08 5.28182e+08 0 0
388 2 0 5.3877e+08 5.39028e+08 5.40048e+08 5.45949e+08 1 0
389 2 0 5.53385e+08 5.53634e+08 5.54653e+08 5.62767e+08 1 0
390 2 0 5.71167e+08 5.71423e+08 5.72442e+08 5.73246e+08 1 0
391 1 0 5.80621e+08 5.80874e+08 5.81893e+08 5.96806e+08 0 1
392 1 0 6.00206e+08 6.00455e+08 6.01475e+08 6.02998e+08 0 1
393 2 0 6.05506e+08 6.05767e+08 6.06786e+08 6.08821e+08 0 0
394 2 0 6.16041e+08 6.16294e+08 6.17314e+08 6.21655e+08 1 0
395 2 0 6.29149e+08 6.29401e+08 6.30421e+08 6.61919e+08 1 0
396 2 1 6.70292e+08 6.70548e+08 6.71568e+08 6.90169e+08 1 1
397 1 1 6.9346e+08 6.93721e+08 6.94741e+08 6.96009e+08 0 0
398 1 0 7.03412e+08 7.03664e+08 7.04684e+08 7.07627e+08 1 1
399 2 0 7.10497e+08 7.10776e+08 7.11796e+08 7.11856e+08 0 0
400 2 1 7.18971e+08 7.19221e+08 7.2024e+08 7.20591e+08 1 1
401 2 0 7.24288e+08 7.24544e+08 7.25563e+08 7.2759e+08 0 0
402 2 0 7.34666e+08 7.34912e+08 7.35932e+08 7.38601e+08 1 0
403 2 0 7.45878e+08 7.46143e+08 7.47162e+08 7.47395e+08 1 0
404 2 0 7.54696e+08 7.5496e+08 7.5598e+08 7.59062e+08 1 0
405 2 0 7.66542e+08 7.66797e+08 7.67817e+08 7.68996e+08 0 0
406 2 0 7.76484e+08 7.76742e+08 7.77762e+08 7.78563e+08 0 0
407 2 0 7.89195e+08 7.89445e+08 7.90465e+08 7.94335e+08 0 0
408 1 0 8.04182e+08 8.04448e+08 8.05468e+08 8.08704e+08 0 1
409 1 0 8.1219e+08 8.12433e+08 8.13452e+08 8.18511e+08 0 1
410 2 0 8.21917e+08 8.22177e+08 8.23197e+08 8.34065e+08 0 0
411 2 0 8.41247e+08 8.41493e+08 8.42512e+08 8.52017e+08 1 0
412 2 0 8.59528e+08 8.59776e+08 8.60795e+08 8.69089e+08 1 0
413 2 0 8.76358e+08 8.76615e+08 8.77635e+08 8.80067e+08 1 0
414 1 0 8.87531e+08 8.87777e+08 8.88797e+08 8.90466e+08 0 1
415 2 0 8.93728e+08 8.93982e+08 8.95002e+08 9.06257e+08 0 0
416 2 0 9.15503e+08 9.1576e+08 9.1678e+08 9.19353e+08 1 0
417 2 0 9.27707e+08 9.27965e+08 9.28984e+08 9.32331e+08 1 0
418 2 1 9.41464e+08 9.41717e+08 9.42737e+08 9.49834e+08 1 1
419 1 1 9.52621e+08 9.52879e+08 9.53899e+08 9.57378e+08 0 0
420 1 0 9.64532e+08 9.64779e+08 9.65799e+08 9.67333e+08 1 1
421 2 0 9.708e+08 9.71073e+08 9.72092e+08 1.01787e+09 0 0
422 2 1 1.02536e+09 1.02562e+09 1.02664e+09 1.02708e+09 1 1
423 1 0 1.02982e+09 1.03008e+09 1.0311e+09 1.03643e+09 0 1
424 1 0 1.03923e+09 1.03948e+09 1.0405e+09 1.04226e+09 0 1
425 1 1 1.04484e+09 1.04509e+09 1.04611e+09 1.05139e+09 0 0
426 1 0 1.05849e+09 1.05875e+09 1.05977e+09 1.06101e+09 1 1
427 1 1 1.06365e+09 1.0639e+09 1.06492e+09 1.06539e+09 0 0
428 1 0 1.07372e+09 1.07397e+09 1.07498e+09 1.08682e+09 1 1
429 2 0 1.09087e+09 1.09112e+09 1.09214e+09 1.10279e+09 0 0
430 2 0 1.10983e+09 1.11008e+09 1.1111e+09 1.11309e+09 1 0
431 2 0 1.12018e+09 1.12043e+09 1.12145e+09 1.12436e+09 1 0
432 2 0 1.1317e+09 1.13195e+09 1.13297e+09 1.13317e+09 1 0
433 1 0 1.14145e+09 1.14171e+09 1.14273e+09 1.15233e+09 0 1
434 2 1 1.15586e+09 1.15611e+09 1.15713e+09 1.15914e+09 0 1
435 2 0 1.16392e+09 1.16417e+09 1.16519e+09 1.16566e+09 0 0
436 2 0 1.17295e+09 1.17321e+09 1.17423e+09 1.1755e+09 1 0
437 2 0 1.18268e+09 1.18292e+09 1.18394e+09 1.18814e+09 1 0
438 2 0 1.19559e+09 1.19585e+09 1.19687e+09 1.20247e+09 1 0
439 2 0 1.20991e+09 1.21015e+09 1.21117e+09 1.21419e+09 0 0
440 1 0 1.22131e+09 1.22157e+09 1.22259e+09 1.22485e+09 0 1
441 1 1 1.22857e+09 1.22882e+09 1.22984e+09 1.22989e+09 0 0
442 1 0 1.23719e+09 1.23744e+09 1.23846e+09 1.23908e+09 1 1
443 1 0 1.24189e+09 1.24214e+09 1.24316e+09 1.24597e+09 0 1
444 2 0 1.24913e+09 1.24938e+09 1.2504e+09 1.25627e+09 0 0
445 2 0 1.26331e+09 1.26357e+09 1.26459e+09 1.26635e+09 1 0
446 2 0 1.27388e+09 1.27413e+09 1.27515e+09 1.28078e+09 1 0
447 2 0 1.28814e+09 1.28839e+09 1.28941e+09 1.29197e+09 1 0
448 1 0 1.29988e+09 1.30014e+09 1.30116e+09 1.30119e+09 0 1
449 1 0 1.3044e+09 1.30466e+09 1.30568e+09 1.30821e+09 0 1
450 1 0 1.31074e+09 1.31099e+09 1.31201e+09 1.31488e+09 0 1
451 2 0 1.31803e+09 1.31828e+09 1.3193e+09 1.32316e+09 0 0
452 2 0 1.33036e+09 1.33061e+09 1.33163e+09 1.33164e+09 1 0
453 2 0 1.33908e+09 1.33933e+09 1.34035e+09 1.34538e+09 1 0
454 2 0 1.3525e+09 1.35276e+09 1.35378e+09 1.35382e+09 1 0
455 2 0 1.3617e+09 1.36195e+09 1.36297e+09 1.37579e+09 0 0
456 2 0 1.38297e+09 1.38322e+09 1.38424e+09 1.39317e+09 0 0
457 2 0 1.40071e+09 1.40096e+09 1.40198e+09 1.40607e+09 0 0
458 2 0 1.41341e+09 1.41365e+09 1.41467e+09 1.41858e+09 0 0
459 1 0 1.4261e+09 1.42635e+09 1.42737e+09 1.42791e+09 0 1
460 2 0 1.43077e+09 1.43102e+09 1.43204e+09 1.43276e+09 0 0
461 2 0 1.4401e+09 1.44036e+09 1.44138e+09 1.44501e+09 1 0
462 2 0 1.45217e+09 1.45242e+09 1.45344e+09 1.45916e+09 1 0
463 2 0 1.46661e+09 1.46686e+09 1.46788e+09 1.47744e+09 1 0
464 2 0 1.48626e+09 1.48652e+09 1.48754e+09 1.50123e+09 0 0
465 2 0 1.50862e+09 1.50887e+09 1.50989e+09 1.51258e+09 0 0
466 2 0 1.51981e+09 1.52007e+09 1.52109e+09 1.52511e+09 0 0
467 2 1 1.53328e+09 1.53354e+09 1.53456e+09 1.552e+09 0 1
468 1 0 1.55633e+09 1.55659e+09 1.55761e+09 1.56198e+09 0 1
469 1 0 1.57127e+09 1.57152e+09 1.57254e+09 1.58757e+09 0 1
470 2 0 1.59021e+09 1.59046e+09 1.59148e+09 1.59809e+09 0 0
471 2 0 1.60526e+09 1.60552e+09 1.60654e+09 1.61299e+09 1 0
472 2 1 1.62004e+09 1.62029e+09 1.62131e+09 1.62769e+09 1 1
473 2 0 1.63056e+09 1.63082e+09 1.63184e+09 1.63677e+09 0 0
474 2 0 1.64414e+09 1.64439e+09 1.64541e+09 1.64782e+09 1 0
475 2 0 1.65634e+09 1.65659e+09 1.65761e+09 1.65882e+09 1 0
476 2 0 1.66864e+09 1.66889e+09 1.66991e+09 1.67369e+09 1 0
477 1 0 1.68122e+09 1.68148e+09 1.6825e+09 1.68391e+09 0 1
478 2 0 1.68681e+09 1.68707e+09 1.68809e+09 1.69451e+09 0 0
479 2 0 1.70176e+09 1.70201e+09 1.70303e+09 1.70304e+09 1 0
480 2 0 1.71049e+09 1.71073e+09 1.71175e+09 1.71607e+09 1 0
481 2 0 1.72335e+09 1.72359e+09 1.72461e+09 1.7334e+09 1 0
482 2 0 1.74056e+09 1.74081e+09 1.74183e+09 1.74448e+09 0 0
483 1 0 1.75188e+09 1.75213e+09 1.75315e+09 1.77261e+09 0 1
484 1 0 1.77558e+09 1.77583e+09 1.77685e+09 1.78465e+09 0 1
485 2 0 1.78743e+09 1.78768e+09 1.7887e+09 1.7913e+09 0 0
486 2 0 1.79852e+09 1.79878e+09 1.7998e+09 1.79981e+09 1 0
487 2 0 1.80701e+09 1.80725e+09 1.80827e+09 1.82539e+09 1 0
488 2 0 1.8342e+09 1.83445e+09 1.83547e+09 1.83997e+09 1 0
489 1 0 1.84876e+09 1.84901e+09 1.85003e+09 1.86262e+09 0 1
490 2 0 1.86549e+09 1.86575e+09 1.86677e+09 1.87136e+09 0 0
491 2 0 1.8788e+09 1.87905e+09 1.88006e+09 1.89155e+09 1 0
492 2 0 1.90525e+09 1.90551e+09 1.90653e+09 1.9129e+09 1 0
493 2 0 1.92016e+09 1.92041e+09 1.92143e+09 1.92816e+09 1 0
494 2 0 1.93538e+09 1.93564e+09 1.93666e+09 1.93671e+09 0 0
495 1 0 1.94389e+09 1.94414e+09 1.94516e+09 1.96834e+09 0 1
496 1 1 1.97124e+09 1.9715e+09 1.97252e+09 1.97593e+09 0 0
497 1 0 1.98332e+09 1.98356e+09 1.98458e+09 1.98528e+09 1 1
498 1 0 1.98825e+09 1.9885e+09 1.98952e+09 1.98959e+09 0 1
499 1 0 1.99231e+09 1.99256e+09 1.99358e+09 1.99762e+09 0 1
500 1 1 2.00215e+09 2.0024e+09 2.00342e+09 2.00413e+09 0 0
501 1 0 2.01383e+09 2.01409e+09 2.01511e+09 2.02056e+09 1 1
502 1 0 2.02323e+09 2.0235e+09 2.02452e+09 2.0309e+09 0 1
503 1 0 2.03448e+09 2.03473e+09 2.03575e+09 2.05088e+09 0 1
504 2 0 2.05426e+09 2.05451e+09 2.05553e+09 2.06097e+09 0 0
505 2 0 2.06824e+09 2.06849e+09 2.06951e+09 2.07094e+09 1 0
506 2 0 2.07814e+09 2.07839e+09 2.07941e+09 2.08529e+09 1 0
507 2 1 2.0925e+09 2.09276e+09 2.09378e+09 2.09394e+09 1 1
508 2 0 2.09651e+09 2.09677e+09 2.09779e+09 2.10337e+09 0 0
509 2 0 2.11052e+09 2.11077e+09 2.11179e+09 2.11213e+09 1 0
510 2 0 2.1194e+09 2.11964e+09 2.12066e+09 2.12244e+09 1 0
511 2 1 2.12964e+09 2.1299e+09 2.13092e+09 2.14044e+09 1 1
512 1 0 2.14342e+09 2.14367e+09 2.14469e+09 2.14875e+09 0 1
513 1 0 2.1514e+09 2.15165e+09 2.15267e+09 2.15319e+09 0 1
514 1 0 2.15608e+09 2.15633e+09 2.15735e+09 2.16096e+09 0 1
515 2 0 2.16513e+09 2.16539e+09 2.16641e+09 2.16687e+09 0 0
516 2 0 2.17397e+09 2.17421e+09 2.17523e+09 2.18025e+09 1 0
517 2 0 2.18823e+09 2.18848e+09 2.1895e+09 2.21543e+09 1 0
518 2 0 2.2285e+09 2.22875e+09 2.22977e+09 2.23244e+09 1 0
519 2 0 2.23976e+09 2.24001e+09 2.24103e+09 2.25421e+09 0 0
520 2 0 2.26346e+09 2.2637e+09 2.26472e+09 2.26632e+09 0 0
521 2 0 2.27374e+09 2.27399e+09 2.27501e+09 2.27952e+09 0 0
522 1 0 2.28691e+09 2.28716e+09 2.28818e+09 2.29152e+09 0 1
523 2 0 2.29514e+09 2.29539e+09 2.29641e+09 2.29718e+09 0 0
524 2 0 2.30423e+09 2.30448e+09 2.3055e+09 2.30703e+09 1 0
525 2 0 2.31407e+09 2.31432e+09 2.31534e+09 2.32813e+09 1 0
526 2 1 2.33518e+09 2.33543e+09 2.33645e+09 2.34298e+09 1 1
527 1 0 2.34594e+09 2.34619e+09 2.34721e+09 2.34969e+09 0 1
528 2 0 2.35317e+09 2.35342e+09 2.35444e+09 2.35911e+09 0 0
529 2 0 2.36623e+09 2.36649e+09 2.36751e+09 2.37287e+09 1 0
530 2 0 2.38032e+09 2.38057e+09 2.38159e+09 2.3816e+09 1 0
531 2 1 2.38874e+09 2.38899e+09 2.39001e+09 2.6354e+09 1 1
