trial trialType response stillTime stimOnset stimOffset respTime correctionTrial correct
001 2 1 2.1374e+07 2.16992e+07 2.27188e+07 2.44164e+07 0 1
002 2 0 3.45457e+07 3.48212e+07 3.58408e+07 3.65792e+07 0 0
003 2 1 4.4757e+07 4.50412e+07 4.60608e+07 4.66199e+07 1 1
004 1 1 6.74642e+07 6.77209e+07 6.87405e+07 6.9074e+07 0 0
005 1 0 1.27348e+08 1.27605e+08 1.28625e+08 1.2912e+08 1 1
006 1 0 1.34984e+08 1.35243e+08 1.36262e+08 1.3694e+08 0 1
007 2 0 1.43701e+08 1.43959e+08 1.44979e+08 1.46056e+08 0 0
008 2 0 1.71045e+08 1.713e+08 1.7232e+08 1.72434e+08 1 0
009 2 0 2.38288e+08 2.38544e+08 2.39564e+08 2.39804e+08 1 0
010 2 0 2.47621e+08 2.4787e+08 2.4889e+08 2.50971e+08 1 0
011 1 1 2.60277e+08 2.60542e+08 2.61562e+08 2.62233e+08 0 0
012 1 0 2.73226e+08 2.73489e+08 2.74509e+08 2.75039e+08 0 1
013 1 0 3.19949e+08 3.20194e+08 3.21214e+08 3.21541e+08 0 1
014 1 1 3.40558e+08 3.4082e+08 3.4184e+08 3.42697e+08 0 0
015 1 0 3.82596e+08 3.82855e+08 3.83875e+08 3.84475e+08 1 1
016 2 0 3.89928e+08 3.90186e+08 3.91206e+08 3.91605e+08 0 0
017 2 0 4.28507e+08 4.28756e+08 4.29776e+08 4.29942e+08 1 0
018 2 0 4.47695e+08 4.47949e+08 4.48969e+08 4.49046e+08 1 0
019 2 0 4.60058e+08 4.60303e+08 4.61322e+08 4.61806e+08 1 0
020 2 1 4.7132e+08 4.71567e+08 4.72586e+08 4.72943e+08 0 1
021 1 1 5.02464e+08 5.02722e+08 5.03742e+08 5.0395e+08 0 0
022 1 1 5.17403e+08 5.17655e+08 5.18675e+08 5.1891e+08 1 0
023 1 0 5.26256e+08 5.26513e+08 5.27532e+08 5.27578e+08 1 1
024 2 0 5.32863e+08 5.33126e+08 5.34145e+08 5.34746e+08 0 0
025 2 1 5.47938e+08 5.48195e+08 5.49214e+08 5.49809e+08 1 1
026 2 1 6.24553e+08 6.24814e+08 6.25833e+08 6.26421e+08 0 1
027 2 0 6.57686e+08 6.57932e+08 6.58951e+08 6.59289e+08 0 0
028 2 1 6.75737e+08 6.75997e+08 6.77017e+08 6.7811e+08 1 1
029 2 0 6.91778e+08 6.92052e+08 6.93072e+08 6.9339e+08 0 0
030 2 1 7.05909e+08 7.06169e+08 7.07188e+08 7.08097e+08 1 1
031 2 0 7.26094e+08 7.26341e+08 7.27361e+08 7.27704e+08 0 0
032 2 0 7.35786e+08 7.3604e+08 7.37059e+08 7.3713e+08 1 0
033 2 0 7.50506e+08 7.50777e+08 7.51797e+08 7.5211e+08 1 0
034 2 1 7.61314e+08 7.61573e+08 7.62593e+08 7.63375e+08 1 1
035 2 0 7.78764e+08 7.79014e+08 7.80034e+08 7.82041e+08 0 0
036 2 0 7.90961e+08 7.91216e+08 7.92236e+08 7.92932e+08 1 0
037 2 1 8.02381e+08 8.02647e+08 8.03667e+08 8.04111e+08 1 1
038 2 0 8.18891e+08 8.19146e+08 8.20166e+08 8.20497e+08 0 0
039 2 1 8.29316e+08 8.29564e+08 8.30584e+08 8.31165e+08 1 1
040 1 0 8.89223e+08 8.89467e+08 8.90487e+08 8.90506e+08 0 1
041 2 0 9.42611e+08 9.42863e+08 9.43883e+08 9.44137e+08 0 0
042 2 1 9.51963e+08 9.52223e+08 9.53242e+08 9.53294e+08 1 1
043 2 1 9.94646e+08 9.94909e+08 9.95929e+08 9.95938e+08 0 1
044 2 1 1.0107e+09 1.01096e+09 1.01198e+09 1.01202e+09 0 1
045 1 1 1.02279e+09 1.02305e+09 1.02407e+09 1.02584e+09 0 0
046 1 1 1.04343e+09 1.04369e+09 1.04471e+09 1.04533e+09 1 0
047 1 0 1.05852e+09 1.05877e+09 1.05979e+09 1.0605e+09 1 1
048 1 1 1.0662e+09 1.06646e+09 1.06748e+09 1.06882e+09 0 0
049 1 1 1.0968e+09 1.09705e+09 1.09807e+09 1.09817e+09 1 0
050 1 1 1.12303e+09 1.12328e+09 1.1243e+09 1.12467e+09 1 0
051 1 1 1.13212e+09 1.13238e+09 1.1334e+09 1.13432e+09 1 0
052 1 0 1.14156e+09 1.14182e+09 1.14284e+09 1.14421e+09 0 1
053 2 1 1.14704e+09 1.14731e+09 1.14833e+09 1.14842e+09 0 1
054 2 1 1.17294e+09 1.17319e+09 1.17421e+09 1.17533e+09 0 1
055 1 1 1.1819e+09 1.18216e+09 1.18318e+09 1.18418e+09 0 0
056 1 0 1.19921e+09 1.19946e+09 1.20048e+09 1.20086e+09 1 1
057 1 0 1.20356e+09 1.20383e+09 1.20485e+09 1.20486e+09 0 1
058 2 1 1.22705e+09 1.22731e+09 1.22833e+09 1.22977e+09 0 1
059 2 0 1.23504e+09 1.2353e+09 1.23632e+09 1.2364e+09 0 0
060 2 0 1.34086e+09 1.34112e+09 1.34214e+09 1.34303e+09 1 0
061 2 0 1.35161e+09 1.35187e+09 1.35289e+09 1.35375e+09 1 0
062 2 0 1.36227e+09 1.36252e+09 1.36354e+09 1.36393e+09 1 0
063 2 1 1.37208e+09 1.37233e+09 1.37335e+09 1.37389e+09 0 1
064 2 1 1.37648e+09 1.37674e+09 1.37776e+09 1.37781e+09 0 1
065 2 0 1.40378e+09 1.40403e+09 1.40505e+09 1.40585e+09 0 0
066 2 0 1.4173e+09 1.41756e+09 1.41858e+09 1.41872e+09 1 0
067 2 1 1.47131e+09 1.47158e+09 1.4726e+09 1.47319e+09 1 1
068 2 0 1.5e+09 1.50025e+09 1.50127e+09 1.50186e+09 0 0
069 2 1 1.51343e+09 1.51368e+09 1.5147e+09 1.51544e+09 1 1
070 2 1 1.5266e+09 1.52686e+09 1.52788e+09 1.52879e+09 0 1
071 1 0 1.5386e+09 1.53885e+09 1.53987e+09 1.54012e+09 0 1
072 2 0 1.56378e+09 1.56404e+09 1.56506e+09 1.56563e+09 0 0
073 2 0 1.57281e+09 1.57306e+09 1.57408e+09 1.57513e+09 1 0
074 2 0 1.5832e+09 1.58346e+09 1.58448e+09 1.58452e+09 1 0
075 2 1 1.59931e+09 1.59958e+09 1.6006e+09 1.60139e+09 1 1
076 2 1 1.63129e+09 1.63155e+09 1.63257e+09 1.63379e+09 0 1
077 1 1 1.63634e+09 1.63659e+09 1.63761e+09 1.63802e+09 0 0
078 1 1 1.6461e+09 1.64635e+09 1.64737e+09 1.6484e+09 1 0
079 1 0 1.66316e+09 1.66342e+09 1.66444e+09 1.66453e+09 1 1
080 2 1 1.6673e+09 1.66755e+09 1.66857e+09 1.66911e+09 0 1
081 1 1 1.68462e+09 1.68488e+09 1.6859e+09 1.68616e+09 0 0
082 1 1 1.69866e+09 1.69892e+09 1.69994e+09 1.701e+09 1 0
083 1 1 1.71209e+09 1.71233e+09 1.71335e+09 1.71336e+09 1 0
084 1 0 1.7278e+09 1.72805e+09 1.72907e+09 1.72909e+09 1 1
085 2 1 1.73159e+09 1.73186e+09 1.73288e+09 1.73296e+09 0 1
086 1 0 1.7497e+09 1.74995e+09 1.75096e+09 1.75211e+09 0 1
087 1 1 1.77191e+09 1.77216e+09 1.77318e+09 1.77345e+09 0 0
088 1 0 1.80757e+09 1.80783e+09 1.80885e+09 1.80998e+09 1 1
089 1 0 1.87799e+09 1.87824e+09 1.87926e+09 1.88036e+09 0 1
090 1 1 1.89257e+09 1.89282e+09 1.89384e+09 1.89571e+09 0 0
091 1 1 1.90878e+09 1.90904e+09 1.91006e+09 1.91061e+09 1 0
092 1 0 1.91899e+09 1.91924e+09 1.92026e+09 1.92047e+09 1 1
093 2 1 1.92842e+09 1.92868e+09 1.9297e+09 1.9301e+09 0 1
094 2 0 1.99341e+09 1.99366e+09 1.99468e+09 1.99492e+09 0 0
095 2 0 2.0183e+09 2.01855e+09 2.01957e+09 2.0196e+09 1 0
096 2 1 2.02726e+09 2.02751e+09 2.02853e+09 2.0292e+09 1 1
097 2 0 2.0391e+09 2.03935e+09 2.04037e+09 2.0422e+09 0 0
098 2 0 2.05341e+09 2.05366e+09 2.05468e+09 2.05487e+09 1 0
099 2 0 2.06832e+09 2.06858e+09 2.0696e+09 2.06965e+09 1 0
100 2 0 2.08223e+09 2.08248e+09 2.0835e+09 2.08359e+09 1 0
101 1 1 2.09356e+09 2.09381e+09 2.09483e+09 2.09582e+09 0 0
102 1 1 2.11218e+09 2.11242e+09 2.11344e+09 2.11391e+09 0 0
103 2 1 2.12489e+09 2.12514e+09 2.12616e+09 2.1272e+09 0 1
104 1 0 2.15962e+09 2.15987e+09 2.16089e+09 2.16097e+09 0 1
105 2 0 2.16716e+09 2.1674e+09 2.16842e+09 2.16863e+09 0 0
106 2 1 2.18093e+09 2.18119e+09 2.18221e+09 2.18315e+09 1 1
107 1 1 2.19425e+09 2.19451e+09 2.19553e+09 2.19641e+09 0 0
108 1 0 2.20877e+09 2.20901e+09 2.21003e+09 2.2101e+09 1 1
109 1 0 2.22035e+09 2.2206e+09 2.22162e+09 2.22239e+09 0 1
110 1 1 2.26391e+09 2.26417e+09 2.26519e+09 2.26526e+09 0 0
111 1 1 2.27241e+09 2.27267e+09 2.27369e+09 2.27663e+09 1 0
112 1 0 2.28509e+09 2.28534e+09 2.28636e+09 2.28705e+09 1 1
113 1 1 2.28987e+09 2.29013e+09 2.29115e+09 2.2924e+09 0 0
114 1 1 2.30235e+09 2.30261e+09 2.30363e+09 2.30365e+09 1 0
115 1 0 2.31958e+09 2.31984e+09 2.32086e+09 2.32124e+09 1 1
116 1 0 2.33462e+09 2.33487e+09 2.33589e+09 2.336e+09 0 1
117 1 1 2.34558e+09 2.34582e+09 2.34684e+09 2.34685e+09 0 0
118 1 1 2.35503e+09 2.35529e+09 2.35631e+09 2.35742e+09 1 0
119 1 0 2.37109e+09 2.37135e+09 2.37237e+09 2.37292e+09 1 1
120 1 0 2.39819e+09 2.39843e+09 2.39945e+09 2.39955e+09 0 1
121 2 1 2.42488e+09 2.42515e+09 2.42617e+09 2.42694e+09 0 1
122 1 0 2.43053e+09 2.43078e+09 2.4318e+09 2.43301e+09 0 1
123 2 0 2.44422e+09 2.44447e+09 2.44549e+09 2.44635e+09 0 0
124 2 0 2.45427e+09 2.45453e+09 2.45555e+09 2.45671e+09 1 0
125 2 0 2.46415e+09 2.46439e+09 2.46541e+09 2.4666e+09 1 0
126 2 1 2.48381e+09 2.48407e+09 2.48509e+09 2.48553e+09 1 1
127 2 0 2.49055e+09 2.49082e+09 2.49184e+09 2.4928e+09 0 0
128 2 0 2.50655e+09 2.50681e+09 2.50782e+09 2.50814e+09 1 0
129 2 1 2.51711e+09 2.51738e+09 2.5184e+09 2.52089e+09 1 1
130 1 1 2.5351e+09 2.53537e+09 2.53639e+09 2.53815e+09 0 0
131 1 1 2.56051e+09 2.56077e+09 2.56179e+09 2.56243e+09 1 0
132 1 0 2.57458e+09 2.57485e+09 2.57587e+09 2.57748e+09 1 1
133 1 0 2.58004e+09 2.5803e+09 2.58132e+09 2.58154e+09 0 1
134 1 1 2.62725e+09 2.6275e+09 2.62852e+09 2.62898e+09 0 0
135 1 1 2.65096e+09 2.65123e+09 2.65225e+09 2.65347e+09 1 0
136 1 1 2.67352e+09 2.67378e+09 2.6748e+09 2.67598e+09 1 0
137 1 0 2.6835e+09 2.68377e+09 2.68479e+09 2.68703e+09 1 1
138 2 0 2.7032e+09 2.70346e+09 2.70448e+09 2.70483e+09 0 0
139 2 0 2.71303e+09 2.71329e+09 2.71431e+09 2.71438e+09 1 0
140 2 0 2.75437e+09 2.75462e+09 2.75564e+09 2.75586e+09 1 0
141 2 0 2.76377e+09 2.76403e+09 2.76505e+09 2.76601e+09 1 0
142 1 1 2.78001e+09 2.78027e+09 2.78129e+09 2.78133e+09 0 0
143 2 1 2.78881e+09 2.78907e+09 2.79009e+09 2.79025e+09 0 1
144 1 0 2.7928e+09 2.79306e+09 2.79408e+09 2.79439e+09 0 1
145 2 0 2.81236e+09 2.81262e+09 2.81364e+09 2.81372e+09 0 0
146 2 1 2.82472e+09 2.82497e+09 2.82599e+09 2.82714e+09 1 1
147 2 0 2.82975e+09 2.83001e+09 2.83103e+09 2.83187e+09 0 0
148 2 1 2.85684e+09 2.85709e+09 2.85811e+09 2.85924e+09 1 1
149 2 0 2.87214e+09 2.87238e+09 2.8734e+09 2.87356e+09 0 0
150 2 0 2.8825e+09 2.88278e+09 2.8838e+09 2.88443e+09 1 0
151 2 1 2.89563e+09 2.89588e+09 2.8969e+09 2.89707e+09 1 1
152 2 1 2.89967e+09 2.89991e+09 2.90093e+09 2.90151e+09 0 1
153 2 0 2.90408e+09 2.90433e+09 2.90535e+09 2.90544e+09 0 0
154 2 0 2.91899e+09 2.91924e+09 2.92026e+09 2.92048e+09 1 0
155 2 1 2.93224e+09 2.9325e+09 2.93352e+09 2.93363e+09 1 1
156 2 0 2.93633e+09 2.93658e+09 2.9376e+09 2.93802e+09 0 0
157 2 0 2.95958e+09 2.95983e+09 2.96085e+09 2.96097e+09 1 0
158 2 0 2.97076e+09 2.97102e+09 2.97204e+09 2.97258e+09 1 0
159 2 0 2.99515e+09 2.9954e+09 2.99642e+09 2.99677e+09 1 0
160 1 0 3.00703e+09 3.00728e+09 3.00829e+09 3.00843e+09 0 1
161 1 0 3.04504e+09 3.04529e+09 3.04631e+09 3.04864e+09 0 1
162 1 1 3.06122e+09 3.06147e+09 3.06249e+09 3.06258e+09 0 0
163 1 1 3.08118e+09 3.08142e+09 3.08244e+09 3.08358e+09 1 0
164 1 1 3.1007e+09 3.10096e+09 3.10197e+09 3.10228e+09 1 0
165 1 0 3.11686e+09 3.11711e+09 3.11813e+09 3.11838e+09 1 1
166 1 0 3.12096e+09 3.1212e+09 3.12222e+09 3.12272e+09 0 1
167 1 0 3.14051e+09 3.14076e+09 3.14178e+09 3.14212e+09 0 1
168 1 0 3.15696e+09 3.15721e+09 3.15823e+09 3.16132e+09 0 1
169 2 0 3.16951e+09 3.16977e+09 3.17079e+09 3.171e+09 0 0
170 2 0 3.18444e+09 3.1847e+09 3.18572e+09 3.18582e+09 1 0
171 2 0 3.19372e+09 3.19397e+09 3.19499e+09 3.19523e+09 1 0
172 2 0 3.21059e+09 3.21083e+09 3.21185e+09 3.2125e+09 1 0
173 2 1 3.22171e+09 3.22197e+09 3.22299e+09 3.22492e+09 0 1
174 1 0 3.23967e+09 3.23993e+09 3.24095e+09 3.24285e+09 0 1
175 1 0 3.24568e+09 3.24594e+09 3.24696e+09 3.24731e+09 0 1
176 2 0 3.24989e+09 3.25015e+09 3.25117e+09 3.25128e+09 0 0
177 2 1 3.25854e+09 3.2588e+09 3.25982e+09 3.2632e+09 1 1
178 1 1 3.28059e+09 3.28084e+09 3.28186e+09 3.2839e+09 0 0
179 1 1 3.2999e+09 3.30016e+09 3.30118e+09 3.30188e+09 1 0
180 1 0 3.31154e+09 3.31179e+09 3.31281e+09 3.31333e+09 1 1
181 2 1 3.3162e+09 3.31647e+09 3.31748e+09 3.31858e+09 0 1
182 1 1 3.33037e+09 3.33062e+09 3.33164e+09 3.33338e+09 0 0
183 1 1 3.34414e+09 3.34439e+09 3.34541e+09 3.34645e+09 1 0
184 1 1 3.35481e+09 3.35505e+09 3.35607e+09 3.35714e+09 1 0
185 1 0 3.36472e+09 3.36497e+09 3.36599e+09 3.36624e+09 1 1
186 1 0 3.38092e+09 3.38118e+09 3.3822e+09 3.38364e+09 0 1
187 1 1 3.39328e+09 3.39354e+09 3.39456e+09 3.39573e+09 0 0
188 1 0 3.40315e+09 3.4034e+09 3.40442e+09 3.40595e+09 1 1
189 1 0 3.41741e+09 3.41767e+09 3.41869e+09 3.41909e+09 0 1
190 1 1 3.42201e+09 3.42227e+09 3.42328e+09 3.42365e+09 0 0
191 1 1 3.43083e+09 3.4311e+09 3.43212e+09 3.43263e+09 1 0
192 1 1 3.44275e+09 3.443e+09 3.44402e+09 3.44468e+09 1 0
193 1 0 3.45196e+09 3.45221e+09 3.45323e+09 3.45356e+09 1 1
194 2 0 3.48408e+09 3.48433e+09 3.48535e+09 3.48556e+09 0 0
195 2 1 3.50201e+09 3.50226e+09 3.50328e+09 3.50335e+09 1 1
196 2 0 3.50796e+09 3.50821e+09 3.50923e+09 3.50959e+09 0 0
197 2 0 3.53262e+09 3.53289e+09 3.53391e+09 3.53449e+09 1 0
198 2 0 3.54857e+09 3.54882e+09 3.54984e+09 3.5511e+09 1 0
199 2 1 3.55935e+09 3.55961e+09 3.56063e+09 3.56099e+09 1 1
200 2 0 3.5681e+09 3.56836e+09 3.56938e+09 3.5703e+09 0 0
201 2 0 3.57969e+09 3.57995e+09 3.58096e+09 3.58175e+09 1 0
202 2 1 3.59056e+09 3.59081e+09 3.59183e+09 3.59197e+09 1 1
203 1 1 3.60341e+09 3.60366e+09 3.60468e+09 3.6056e+09 0 0
204 1 1 3.61373e+09 3.61399e+09 3.61501e+09 3.61955e+09 1 0
205 1 1 3.62683e+09 3.62707e+09 3.62809e+09 3.63556e+09 1 0
206 1 0 3.64609e+09 3.64635e+09 3.64737e+09 3.64946e+09 1 1
207 1 0 3.65609e+09 3.65635e+09 3.65737e+09 3.66112e+09 0 1
208 2 1 3.66363e+09 3.66389e+09 3.66491e+09 3.67365e+09 0 1
209 2 1 3.67632e+09 3.67657e+09 3.67759e+09 3.6776e+09 0 1
210 2 0 3.6805e+09 3.68074e+09 3.68176e+09 3.68177e+09 0 0
211 2 1 3.68931e+09 3.68957e+09 3.69059e+09 3.69155e+09 1 1
212 1 0 3.69411e+09 3.69437e+09 3.69539e+09 3.69552e+09 0 1
213 2 0 3.69833e+09 3.69859e+09 3.69961e+09 3.6997e+09 0 0
214 2 1 3.70694e+09 3.7072e+09 3.70822e+09 3.72857e+09 1 1
215 1 1 3.73358e+09 3.73383e+09 3.73485e+09 3.73535e+09 0 0
216 1 1 3.74496e+09 3.74521e+09 3.74623e+09 3.74825e+09 1 0
217 1 0 3.7585e+09 3.75876e+09 3.75978e+09 3.75992e+09 1 1
218 2 0 3.77762e+09 3.77787e+09 3.77889e+09 3.77962e+09 0 0
219 2 0 3.7896e+09 3.78985e+09 3.79087e+09 3.79149e+09 1 0
220 2 0 3.79987e+09 3.80013e+09 3.80115e+09 3.80285e+09 1 0
221 2 0 3.81201e+09 3.81226e+09 3.81328e+09 3.81481e+09 1 0
222 1 0 3.82587e+09 3.82613e+09 3.82715e+09 3.8272e+09 0 1
223 2 1 3.8547e+09 3.85496e+09 3.85598e+09 3.85691e+09 0 1
224 2 0 3.86815e+09 3.8684e+09 3.86942e+09 3.87025e+09 0 0
225 2 1 3.87915e+09 3.8794e+09 3.88042e+09 3.88134e+09 1 1
226 1 0 3.88935e+09 3.8896e+09 3.89062e+09 3.89089e+09 0 1
227 1 1 3.90518e+09 3.90544e+09 3.90646e+09 3.90952e+09 0 0
228 1 1 3.91826e+09 3.91852e+09 3.91954e+09 3.92231e+09 1 0
229 1 1 3.93023e+09 3.93048e+09 3.9315e+09 3.94126e+09 1 0
230 1 1 3.94937e+09 3.94962e+09 3.95064e+09 3.96959e+09 1 0
231 2 1 3.97926e+09 3.97952e+09 3.98054e+09 3.98198e+09 0 1
232 1 0 3.98897e+09 3.98922e+09 3.99024e+09 3.99044e+09 0 1
233 2 0 3.99766e+09 3.99791e+09 3.99893e+09 3.999e+09 0 0
234 2 0 4.00652e+09 4.00677e+09 4.00779e+09 4.00781e+09 1 0
235 2 0 4.0151e+09 4.01536e+09 4.01638e+09 4.0171e+09 1 0
236 2 0 4.02443e+09 4.02468e+09 4.0257e+09 4.02579e+09 1 0
237 1 0 4.03706e+09 4.03732e+09 4.03834e+09 4.03846e+09 0 1
238 2 1 4.04362e+09 4.04387e+09 4.04489e+09 4.04605e+09 0 1
239 2 1 4.04999e+09 4.05025e+09 4.05127e+09 4.05135e+09 0 1
240 2 0 4.06301e+09 4.06327e+09 4.06429e+09 4.0643e+09 0 0
241 2 1 4.07252e+09 4.07278e+09 4.0738e+09 4.07986e+09 1 1
242 1 1 4.08284e+09 4.08311e+09 4.08413e+09 4.08443e+09 0 0
243 1 1 4.09224e+09 4.0925e+09 4.09352e+09 4.09532e+09 1 0
244 1 0 4.10321e+09 4.10345e+09 4.10447e+09 4.10463e+09 1 1
245 2 0 4.10937e+09 4.10963e+09 4.11065e+09 4.11071e+09 0 0
246 2 0 4.11774e+09 4.11799e+09 4.11901e+09 4.11917e+09 1 0
247 2 0 4.12638e+09 4.12663e+09 4.12765e+09 4.12767e+09 1 0
248 2 1 4.13547e+09 4.13572e+09 4.13674e+09 4.1369e+09 1 1
249 2 1 4.14596e+09 4.14622e+09 4.14724e+09 4.14797e+09 0 1
250 1 0 4.15533e+09 4.15558e+09 4.1566e+09 4.15665e+09 0 1
251 2 1 4.16273e+09 4.16299e+09 4.16401e+09 4.16572e+09 0 1
252 2 0 4.17126e+09 4.17152e+09 4.17254e+09 4.17325e+09 0 0
253 2 1 4.18304e+09 4.18331e+09 4.18433e+09 4.1855e+09 1 1
254 2 0 4.18969e+09 4.18994e+09 4.19096e+09 4.19218e+09 0 0
255 2 1 4.19936e+09 4.19961e+09 4.20063e+09 4.20158e+09 1 1
256 2 1 4.21087e+09 4.21112e+09 4.21214e+09 4.21246e+09 0 1
257 1 0 4.21697e+09 4.21723e+09 4.21825e+09 4.21848e+09 0 1
258 2 0 4.22308e+09 4.22333e+09 4.22435e+09 4.22513e+09 0 0
259 2 0 4.23293e+09 4.23318e+09 4.2342e+09 4.23489e+09 1 0
260 2 1 4.24346e+09 4.24371e+09 4.24473e+09 4.24475e+09 1 1
261 1 0 4.25291e+09 4.25317e+09 4.25419e+09 4.25478e+09 0 1
262 1 1 4.25983e+09 4.26007e+09 4.26109e+09 4.26769e+09 0 0
263 1 1 4.27546e+09 4.27571e+09 4.27673e+09 4.27976e+09 1 0
264 1 0 4.28698e+09 4.28723e+09 4.28825e+09 4.28828e+09 1 1
265 2 0 1.09672e+06 1.33876e+06 2.35837e+06 2.8361e+06 0 0
266 2 1 1.07971e+07 1.10402e+07 1.20598e+07 2.97193e+07 1 1
267 1 1 3.22908e+07 3.25424e+07 3.3562e+07 3.50103e+07 0 0
268 1 1 4.42993e+07 4.45515e+07 4.55711e+07 4.81707e+07 1 0
269 1 1 5.54414e+07 5.56936e+07 5.67132e+07 5.80686e+07 1 0
270 1 0 6.55954e+07 6.58546e+07 6.68742e+07 6.71207e+07 1 1
271 2 0 7.53224e+07 7.55872e+07 7.66068e+07 7.71427e+07 0 0
272 2 0 8.54938e+07 8.57378e+07 8.67574e+07 8.70466e+07 1 0
273 2 0 9.55566e+07 9.58191e+07 9.68387e+07 9.70049e+07 1 0
274 2 0 1.05106e+08 1.05373e+08 1.06392e+08 1.09947e+08 1 0
275 2 0 1.18216e+08 1.18474e+08 1.19494e+08 1.21803e+08 0 0
276 1 0 1.29001e+08 1.29248e+08 1.30268e+08 2.13522e+08 0 1
277 2 1 2.16186e+08 2.16446e+08 2.17465e+08 2.28863e+08 0 1
278 2 1 2.38361e+08 2.38619e+08 2.39639e+08 2.41624e+08 0 1
279 1 1 2.44192e+08 2.44445e+08 2.45465e+08 2.4716e+08 0 0
280 1 1 2.54452e+08 2.54707e+08 2.55727e+08 2.57948e+08 1 0
281 1 0 2.66626e+08 2.66883e+08 2.67903e+08 2.67922e+08 1 1
282 1 1 2.73888e+08 2.74134e+08 2.75154e+08 2.77714e+08 0 0
283 1 0 2.84805e+08 2.85056e+08 2.86075e+08 2.86697e+08 1 1
284 1 1 2.89498e+08 2.89754e+08 2.90773e+08 2.92753e+08 0 0
285 1 1 3.00756e+08 3.01015e+08 3.02034e+08 3.16235e+08 1 0
286 1 1 3.23656e+08 3.2391e+08 3.2493e+08 3.28316e+08 1 0
287 1 0 3.35589e+08 3.35849e+08 3.36868e+08 3.70887e+08 1 1
288 2 1 3.74261e+08 3.74519e+08 3.75539e+08 3.7748e+08 0 1
289 2 1 3.83122e+08 3.8337e+08 3.84389e+08 3.85949e+08 0 1
290 1 1 3.90997e+08 3.91241e+08 3.9226e+08 3.94272e+08 0 0
291 1 0 4.02948e+08 4.03195e+08 4.04215e+08 4.04698e+08 1 1
292 2 0 4.07704e+08 4.07955e+08 4.08974e+08 4.09287e+08 0 0
293 2 0 4.16379e+08 4.16625e+08 4.17644e+08 4.24176e+08 1 0
294 2 1 4.32651e+08 4.32901e+08 4.33921e+08 4.35196e+08 1 1
295 1 0 4.47177e+08 4.47442e+08 4.48461e+08 4.48898e+08 0 1
296 1 0 4.53663e+08 4.5392e+08 4.5494e+08 4.55586e+08 0 1
297 1 0 4.62799e+08 4.63053e+08 4.64073e+08 4.64617e+08 0 1
298 1 0 4.70809e+08 4.71052e+08 4.72072e+08 4.72616e+08 0 1
299 1 1 4.79445e+08 4.79707e+08 4.80727e+08 4.84724e+08 0 0
300 1 1 4.92638e+08 4.92892e+08 4.93911e+08 4.9719e+08 1 0
301 1 0 5.04541e+08 5.04801e+08 5.0582e+08 5.09186e+08 1 1
302 1 0 5.12958e+08 5.13211e+08 5.14231e+08 5.14264e+08 0 1
303 1 0 5.16936e+08 5.17183e+08 5.18202e+08 5.185e+08 0 1
304 2 0 5.26567e+08 5.26828e+08 5.27847e+08 5.33137e+08 0 0
305 2 1 5.40842e+08 5.41097e+08 5.42116e+08 5.42774e+08 1 1
306 2 1 5.48076e+08 5.48336e+08 5.49356e+08 5.51149e+08 0 1
307 1 1 5.57637e+08 5.57897e+08 5.58916e+08 5.59369e+08 0 0
308 1 0 5.67547e+08 5.67807e+08 5.68826e+08 5.6889e+08 1 1
309 2 0 5.71417e+08 5.71675e+08 5.72695e+08 5.7295e+08 0 0
310 2 0 5.80577e+08 5.8083e+08 5.8185e+08 5.82712e+08 1 0
311 2 1 5.90982e+08 5.91235e+08 5.92254e+08 5.94899e+08 1 1
312 2 0 5.9838e+08 5.98632e+08 5.99652e+08 6.00352e+08 0 0
313 2 0 6.08087e+08 6.08336e+08 6.09355e+08 6.10072e+08 1 0
314 2 0 6.17179e+08 6.17437e+08 6.18457e+08 6.2191e+08 1 0
315 2 1 6.29119e+08 6.29378e+08 6.30397e+08 6.31983e+08 1 1
316 1 0 6.40514e+08 6.40762e+08 6.41781e+08 6.4623e+08 0 1
317 1 0 6.49108e+08 6.4936e+08 6.5038e+08 6.51582e+08 0 1
318 1 0 6.54306e+08 6.54567e+08 6.55587e+08 6.5623e+08 0 1
319 1 0 6.598e+08 6.60051e+08 6.61071e+08 6.6278e+08 0 1
320 1 1 6.65409e+08 6.65675e+08 6.66694e+08 6.6809e+08 0 0
321 1 1 6.75453e+08 6.75696e+08 6.76716e+08 6.82849e+08 1 0
322 1 1 6.91116e+08 6.91377e+08 6.92397e+08 6.95884e+08 1 0
323 1 1 7.04054e+08 7.04309e+08 7.05329e+08 7.09422e+08 1 0
324 1 1 7.18054e+08 7.18307e+08 7.19326e+08 7.19889e+08 0 0
325 2 0 7.27208e+08 7.27464e+08 7.28484e+08 7.3439e+08 0 0
326 2 0 7.41731e+08 7.4198e+08 7.43e+08 7.46601e+08 0 0
327 2 1 7.53829e+08 7.54085e+08 7.55104e+08 7.62953e+08 0 1
328 2 0 7.68806e+08 7.69068e+08 7.70087e+08 7.72944e+08 0 0
329 2 0 7.80017e+08 7.80272e+08 7.81291e+08 7.83699e+08 1 0
330 2 0 7.90818e+08 7.91059e+08 7.92079e+08 8.08521e+08 1 0
331 2 0 8.1565e+08 8.159e+08 8.16919e+08 8.48086e+08 1 0
332 2 1 8.56327e+08 8.56587e+08 8.57607e+08 8.70328e+08 0 1
333 1 0 8.73209e+08 8.73472e+08 8.74491e+08 9.14586e+08 0 1
334 1 0 9.17399e+08 9.17651e+08 9.18671e+08 9.37685e+08 0 1
335 1 0 9.40541e+08 9.40803e+08 9.41823e+08 9.86356e+08 0 1
336 1 0 9.89073e+08 9.89337e+08 9.90357e+08 9.96527e+08 0 1
337 2 0 9.99306e+08 9.99564e+08 1.00058e+09 1.06522e+09 0 0
338 2 1 1.07273e+09 1.07298e+09 1.074e+09 1.85096e+09 1 1
339 1 0 1.85415e+09 1.8544e+09 1.85542e+09 1.97096e+09 0 1
340 2 0 1.97398e+09 1.97423e+09 1.97525e+09 2.0198e+09 0 0
341 2 1 2.02732e+09 2.02759e+09 2.02861e+09 2.04326e+09 1 1
342 2 0 2.046e+09 2.04625e+09 2.04727e+09 2.07747e+09 0 0
343 2 0 2.08496e+09 2.08521e+09 2.08623e+09 2.27915e+09 1 0
