trial trialType response stillTime stimOnset stimOffset respTime correctionTrial correct
001 1 0 6.76354e+06 7.08653e+06 8.10614e+06 1.11876e+07 0 1
002 2 0 2.29775e+07 2.32537e+07 2.42734e+07 2.44384e+07 0 0
003 2 0 3.16703e+07 3.19474e+07 3.2967e+07 3.40151e+07 1 0
004 2 1 4.66494e+07 4.68994e+07 4.7919e+07 4.86596e+07 1 1
005 2 0 6.43512e+07 6.461e+07 6.56296e+07 6.7804e+07 0 0
006 2 0 7.80974e+07 7.83646e+07 7.93842e+07 7.99966e+07 1 0
007 2 1 8.81592e+07 8.84227e+07 8.94423e+07 8.96858e+07 1 1
008 1 1 1.03997e+08 1.04264e+08 1.05283e+08 1.05895e+08 0 0
009 1 0 1.45598e+08 1.45847e+08 1.46867e+08 1.47006e+08 1 1
010 1 0 1.50489e+08 1.50764e+08 1.51783e+08 1.51875e+08 0 1
011 2 0 1.80874e+08 1.81141e+08 1.82161e+08 1.83014e+08 0 0
012 2 1 1.91344e+08 1.91597e+08 1.92616e+08 1.92827e+08 1 1
013 1 1 1.95867e+08 1.96116e+08 1.97136e+08 1.97731e+08 0 0
014 1 0 2.05771e+08 2.06031e+08 2.07051e+08 2.07161e+08 1 1
015 2 1 2.25899e+08 2.26163e+08 2.27182e+08 2.28e+08 0 1
016 1 1 2.30554e+08 2.30798e+08 2.31818e+08 2.32413e+08 0 0
017 1 0 2.40248e+08 2.40497e+08 2.41517e+08 2.42607e+08 1 1
018 2 0 2.45372e+08 2.45632e+08 2.46651e+08 2.46662e+08 0 0
019 2 1 2.5988e+08 2.60137e+08 2.61156e+08 2.61174e+08 1 1
020 1 0 2.63848e+08 2.64106e+08 2.65126e+08 2.66389e+08 0 1
021 2 1 3.00825e+08 3.0109e+08 3.0211e+08 3.02564e+08 0 1
022 2 0 3.0527e+08 3.05518e+08 3.06538e+08 3.07199e+08 0 0
023 2 1 3.18561e+08 3.18813e+08 3.19832e+08 3.21483e+08 1 1
024 1 1 3.24182e+08 3.24446e+08 3.25465e+08 3.26615e+08 0 0
025 1 1 3.34832e+08 3.35083e+08 3.36102e+08 3.36792e+08 1 0
026 1 1 3.48177e+08 3.48425e+08 3.49445e+08 3.50556e+08 1 0
027 1 1 3.61946e+08 3.622e+08 3.6322e+08 3.6401e+08 1 0
028 1 1 3.73111e+08 3.73378e+08 3.74397e+08 3.74452e+08 0 0
029 2 0 3.85395e+08 3.85649e+08 3.86669e+08 3.87087e+08 0 0
030 2 1 3.97081e+08 3.97341e+08 3.98361e+08 3.99144e+08 0 1
031 1 0 4.13424e+08 4.13678e+08 4.14698e+08 4.1502e+08 0 1
032 2 0 4.17897e+08 4.18148e+08 4.19168e+08 4.19572e+08 0 0
033 2 0 4.27946e+08 4.28206e+08 4.29226e+08 4.29416e+08 1 0
034 2 1 4.46656e+08 4.4691e+08 4.47929e+08 4.48342e+08 1 1
035 1 0 4.79468e+08 4.79718e+08 4.80738e+08 4.80852e+08 0 1
036 1 0 4.89742e+08 4.89994e+08 4.91013e+08 4.91973e+08 0 1
037 1 0 4.94938e+08 4.95197e+08 4.96216e+08 4.96663e+08 0 1
038 1 0 5.00423e+08 5.00688e+08 5.01707e+08 5.01887e+08 0 1
039 1 1 5.1762e+08 5.17864e+08 5.18883e+08 5.19716e+08 0 0
040 1 0 5.28408e+08 5.28663e+08 5.29682e+08 5.29697e+08 1 1
041 2 1 5.32734e+08 5.32986e+08 5.34005e+08 5.34658e+08 0 1
042 1 0 5.41068e+08 5.41324e+08 5.42344e+08 5.42554e+08 0 1
043 2 0 5.45512e+08 5.45763e+08 5.46782e+08 5.4701e+08 0 0
044 2 1 5.57936e+08 5.58186e+08 5.59206e+08 5.60224e+08 1 1
045 2 1 5.63286e+08 5.63543e+08 5.64562e+08 5.6521e+08 0 1
046 2 1 5.82518e+08 5.8277e+08 5.8379e+08 5.83947e+08 0 1
047 2 1 5.86683e+08 5.86926e+08 5.87946e+08 5.87958e+08 0 1
048 2 0 5.90641e+08 5.90903e+08 5.91922e+08 5.9213e+08 0 0
049 2 1 6.18371e+08 6.18621e+08 6.19641e+08 6.20293e+08 1 1
050 1 0 6.2322e+08 6.23477e+08 6.24497e+08 6.28512e+08 0 1
051 1 0 6.31109e+08 6.3136e+08 6.3238e+08 6.32994e+08 0 1
052 1 0 6.35724e+08 6.35974e+08 6.36994e+08 6.37991e+08 0 1
053 2 0 6.40681e+08 6.40935e+08 6.41955e+08 6.42038e+08 0 0
054 2 0 6.76818e+08 6.77076e+08 6.78095e+08 6.78446e+08 1 0
055 2 0 6.94441e+08 6.94691e+08 6.95711e+08 6.98619e+08 1 0
056 2 0 7.09851e+08 7.10099e+08 7.11118e+08 7.21863e+08 1 0
057 1 0 7.29735e+08 7.29987e+08 7.31006e+08 7.34521e+08 0 1
058 1 0 7.52462e+08 7.52714e+08 7.53734e+08 7.54336e+08 0 1
059 1 1 7.66319e+08 7.6658e+08 7.67599e+08 7.67867e+08 0 0
060 1 1 7.80717e+08 7.80982e+08 7.82001e+08 7.82424e+08 1 0
061 1 1 7.9159e+08 7.91854e+08 7.92874e+08 7.98671e+08 1 0
062 1 1 8.06834e+08 8.07092e+08 8.08111e+08 8.08553e+08 1 0
063 1 1 8.15704e+08 8.15951e+08 8.16971e+08 8.26897e+08 0 0
064 2 1 8.34652e+08 8.34912e+08 8.35931e+08 8.58406e+08 0 1
065 2 1 8.61292e+08 8.61545e+08 8.62565e+08 8.78633e+08 0 1
066 2 1 8.81583e+08 8.81842e+08 8.82861e+08 8.85751e+08 0 1
067 2 1 8.88711e+08 8.88955e+08 8.89974e+08 8.92527e+08 0 1
068 1 1 9.16317e+08 9.16573e+08 9.17593e+08 9.18745e+08 0 0
069 1 0 9.28317e+08 9.28577e+08 9.29596e+08 9.30023e+08 1 1
070 2 0 9.64135e+08 9.64389e+08 9.65408e+08 9.66045e+08 0 0
071 2 0 9.73371e+08 9.7363e+08 9.74649e+08 9.76085e+08 1 0
072 2 0 9.85803e+08 9.8605e+08 9.87069e+08 9.89691e+08 1 0
073 2 0 9.97182e+08 9.9743e+08 9.98449e+08 9.98829e+08 1 0
074 1 0 1.00746e+09 1.00772e+09 1.00874e+09 1.01045e+09 0 1
075 2 0 1.01392e+09 1.01417e+09 1.01519e+09 1.01559e+09 0 0
076 2 0 1.03845e+09 1.03869e+09 1.03971e+09 1.04031e+09 1 0
077 2 0 1.04741e+09 1.04766e+09 1.04868e+09 1.05088e+09 1 0
078 2 0 1.06192e+09 1.06218e+09 1.0632e+09 1.06331e+09 1 0
079 2 0 1.07083e+09 1.0711e+09 1.07212e+09 1.0746e+09 0 0
080 1 0 1.08188e+09 1.08214e+09 1.08316e+09 1.08343e+09 0 1
081 1 1 1.08612e+09 1.08637e+09 1.08739e+09 1.0876e+09 0 0
082 1 0 1.0971e+09 1.09736e+09 1.09838e+09 1.09853e+09 1 1
083 1 0 1.11153e+09 1.11178e+09 1.1128e+09 1.11545e+09 0 1
084 2 0 1.11803e+09 1.1183e+09 1.11932e+09 1.11963e+09 0 0
085 2 0 1.13102e+09 1.13128e+09 1.1323e+09 1.13253e+09 1 0
086 2 0 1.1406e+09 1.14085e+09 1.14187e+09 1.1423e+09 1 0
087 2 0 1.15419e+09 1.15445e+09 1.15547e+09 1.15584e+09 1 0
088 1 0 1.16335e+09 1.16361e+09 1.16463e+09 1.16478e+09 0 1
089 1 0 1.16782e+09 1.16808e+09 1.1691e+09 1.16915e+09 0 1
090 2 1 1.17193e+09 1.17218e+09 1.1732e+09 1.17328e+09 0 1
091 2 1 1.17594e+09 1.17621e+09 1.17723e+09 1.17768e+09 0 1
092 1 1 1.18028e+09 1.18054e+09 1.18156e+09 1.18213e+09 0 0
093 1 1 1.19074e+09 1.19099e+09 1.19201e+09 1.1934e+09 1 0
094 1 0 1.20321e+09 1.20347e+09 1.20449e+09 1.20473e+09 1 1
095 1 0 1.22609e+09 1.22635e+09 1.22737e+09 1.22767e+09 0 1
096 1 0 1.25272e+09 1.25296e+09 1.25398e+09 1.25413e+09 0 1
097 2 0 1.26517e+09 1.26543e+09 1.26645e+09 1.26658e+09 0 0
098 2 0 1.28251e+09 1.28275e+09 1.28377e+09 1.28438e+09 1 0
099 2 0 1.29345e+09 1.29371e+09 1.29473e+09 1.29509e+09 1 0
100 2 0 1.30275e+09 1.303e+09 1.30402e+09 1.30403e+09 1 0
101 2 1 1.31247e+09 1.31273e+09 1.31375e+09 1.31385e+09 0 1
102 2 0 1.33779e+09 1.33807e+09 1.33909e+09 1.33913e+09 0 0
103 2 0 1.34881e+09 1.34906e+09 1.35008e+09 1.35014e+09 1 0
104 2 1 1.35749e+09 1.35774e+09 1.35876e+09 1.3593e+09 1 1
105 1 0 1.37111e+09 1.37139e+09 1.37241e+09 1.37244e+09 0 1
106 1 1 1.37528e+09 1.37555e+09 1.37657e+09 1.3769e+09 0 0
107 1 1 1.38868e+09 1.38894e+09 1.38996e+09 1.39206e+09 1 0
108 1 0 1.40173e+09 1.40199e+09 1.40301e+09 1.4049e+09 1 1
109 1 0 1.43486e+09 1.43513e+09 1.43615e+09 1.43626e+09 0 1
110 1 1 1.43916e+09 1.43941e+09 1.44042e+09 1.44076e+09 0 0
111 1 0 1.46524e+09 1.4655e+09 1.46652e+09 1.46707e+09 1 1
112 1 0 1.47524e+09 1.4755e+09 1.47652e+09 1.47654e+09 0 1
113 2 0 1.48106e+09 1.48132e+09 1.48234e+09 1.48237e+09 0 0
114 2 1 1.49236e+09 1.49262e+09 1.49364e+09 1.49371e+09 1 1
115 2 0 1.49632e+09 1.49658e+09 1.4976e+09 1.49829e+09 0 0
116 2 0 1.50643e+09 1.50669e+09 1.50771e+09 1.50777e+09 1 0
117 2 0 1.51864e+09 1.51889e+09 1.51991e+09 1.51996e+09 1 0
118 2 0 1.53576e+09 1.53603e+09 1.53705e+09 1.53706e+09 1 0
119 1 0 1.56152e+09 1.56177e+09 1.56279e+09 1.5628e+09 0 1
120 2 0 1.59036e+09 1.59062e+09 1.59164e+09 1.59168e+09 0 0
121 2 0 1.59899e+09 1.59924e+09 1.60026e+09 1.6003e+09 1 0
122 2 1 1.60898e+09 1.60923e+09 1.61025e+09 1.61034e+09 1 1
123 1 0 1.62912e+09 1.62937e+09 1.63039e+09 1.63101e+09 0 1
124 2 0 1.63348e+09 1.63375e+09 1.63477e+09 1.63479e+09 0 0
125 2 0 1.65547e+09 1.65574e+09 1.65676e+09 1.65855e+09 1 0
126 2 0 1.68959e+09 1.68986e+09 1.69088e+09 1.69149e+09 1 0
127 2 0 1.69913e+09 1.69939e+09 1.70041e+09 1.70052e+09 1 0
128 2 0 1.70975e+09 1.71002e+09 1.71103e+09 1.71104e+09 0 0
129 2 0 1.71971e+09 1.71995e+09 1.72097e+09 1.72239e+09 0 0
130 1 0 1.73204e+09 1.7323e+09 1.73332e+09 1.7336e+09 0 1
131 1 1 1.74363e+09 1.74387e+09 1.74489e+09 1.74496e+09 0 0
132 1 0 1.75491e+09 1.75517e+09 1.75619e+09 1.75642e+09 1 1
133 1 0 1.75899e+09 1.75925e+09 1.76027e+09 1.76029e+09 0 1
134 2 0 1.78328e+09 1.78354e+09 1.78456e+09 1.78479e+09 0 0
135 2 0 1.79227e+09 1.79253e+09 1.79355e+09 1.7944e+09 1 0
136 2 1 1.83279e+09 1.83305e+09 1.83407e+09 1.8342e+09 1 1
137 1 0 1.84508e+09 1.84533e+09 1.84635e+09 1.84946e+09 0 1
138 2 0 1.85216e+09 1.85242e+09 1.85344e+09 1.85346e+09 0 0
139 2 0 1.87035e+09 1.87062e+09 1.87164e+09 1.87173e+09 1 0
140 2 0 1.88343e+09 1.88368e+09 1.8847e+09 1.88493e+09 1 0
141 2 1 1.89258e+09 1.89284e+09 1.89386e+09 1.89388e+09 1 1
142 1 0 1.89668e+09 1.89695e+09 1.89797e+09 1.89812e+09 0 1
143 1 0 1.90084e+09 1.9011e+09 1.90212e+09 1.90222e+09 0 1
144 2 0 1.90595e+09 1.90621e+09 1.90723e+09 1.90728e+09 0 0
145 2 1 1.92766e+09 1.92792e+09 1.92894e+09 1.93058e+09 1 1
146 2 0 1.94237e+09 1.94263e+09 1.94365e+09 1.94385e+09 0 0
147 2 0 1.9517e+09 1.95196e+09 1.95298e+09 1.95895e+09 1 0
148 2 1 1.96789e+09 1.96816e+09 1.96917e+09 1.97017e+09 1 1
149 1 0 1.98936e+09 1.98962e+09 1.99064e+09 1.99067e+09 0 1
150 2 1 1.99408e+09 1.99433e+09 1.99535e+09 1.99553e+09 0 1
151 2 0 1.99851e+09 1.99876e+09 1.99978e+09 2.0008e+09 0 0
152 2 0 2.02128e+09 2.02154e+09 2.02256e+09 2.02278e+09 1 0
153 2 0 2.03811e+09 2.03837e+09 2.03939e+09 2.04113e+09 1 0
154 2 1 2.0571e+09 2.05735e+09 2.05837e+09 2.05916e+09 1 1
155 1 0 2.07814e+09 2.0784e+09 2.07942e+09 2.0795e+09 0 1
156 1 0 2.09718e+09 2.09744e+09 2.09846e+09 2.09924e+09 0 1
157 2 0 2.10201e+09 2.10226e+09 2.10328e+09 2.10363e+09 0 0
158 2 0 2.11571e+09 2.11596e+09 2.11698e+09 2.11718e+09 1 0
159 2 0 2.12682e+09 2.12707e+09 2.12809e+09 2.12885e+09 1 0
160 2 0 2.14568e+09 2.14594e+09 2.14696e+09 2.1478e+09 1 0
161 2 0 2.15812e+09 2.15837e+09 2.15939e+09 2.16016e+09 0 0
162 2 0 2.16905e+09 2.16931e+09 2.17033e+09 2.17056e+09 0 0
163 2 0 2.17796e+09 2.17822e+09 2.17924e+09 2.17955e+09 0 0
164 2 1 2.18932e+09 2.18957e+09 2.19059e+09 2.19078e+09 0 1
165 2 0 2.2081e+09 2.20835e+09 2.20937e+09 2.20952e+09 0 0
166 2 0 2.21664e+09 2.2169e+09 2.21792e+09 2.22012e+09 1 0
167 2 1 2.22841e+09 2.22867e+09 2.22969e+09 2.26478e+09 1 1
168 1 0 2.28123e+09 2.28149e+09 2.28251e+09 2.28328e+09 0 1
169 2 0 2.29486e+09 2.29512e+09 2.29614e+09 2.29759e+09 0 0
170 2 1 2.3075e+09 2.30776e+09 2.30878e+09 2.30901e+09 1 1
171 1 1 2.32226e+09 2.32252e+09 2.32354e+09 2.32504e+09 0 0
172 1 1 2.34972e+09 2.34998e+09 2.351e+09 2.3517e+09 1 0
173 1 1 2.37016e+09 2.37043e+09 2.37145e+09 2.3715e+09 1 0
174 1 1 2.38763e+09 2.38789e+09 2.38891e+09 2.39011e+09 1 0
175 2 0 2.39833e+09 2.39858e+09 2.3996e+09 2.40058e+09 0 0
176 1 1 2.40861e+09 2.40887e+09 2.40989e+09 2.41315e+09 0 0
177 2 0 2.42124e+09 2.42149e+09 2.42251e+09 2.43257e+09 0 0
178 1 1 2.44231e+09 2.44258e+09 2.4436e+09 2.44405e+09 0 0
179 1 1 2.45127e+09 2.45153e+09 2.45255e+09 2.45272e+09 0 0
180 2 0 2.46028e+09 2.46054e+09 2.46156e+09 2.46299e+09 0 0
181 1 0 2.47205e+09 2.4723e+09 2.47332e+09 2.47385e+09 0 1
182 1 1 2.47656e+09 2.47682e+09 2.47784e+09 2.478e+09 0 0
183 1 0 2.4909e+09 2.49116e+09 2.49218e+09 2.49246e+09 1 1
184 1 0 2.49499e+09 2.49525e+09 2.49627e+09 2.49635e+09 0 1
185 1 1 2.49908e+09 2.49933e+09 2.50035e+09 2.50051e+09 0 0
186 1 0 2.5085e+09 2.50875e+09 2.50977e+09 2.50997e+09 1 1
187 2 1 2.51322e+09 2.51348e+09 2.5145e+09 2.51603e+09 0 1
188 2 0 2.51892e+09 2.51918e+09 2.5202e+09 2.52129e+09 0 0
189 2 0 2.53458e+09 2.53484e+09 2.53586e+09 2.53645e+09 1 0
190 2 0 2.54683e+09 2.54709e+09 2.54811e+09 2.54845e+09 1 0
191 2 1 2.55757e+09 2.55784e+09 2.55885e+09 2.5615e+09 1 1
192 1 0 2.58006e+09 2.58032e+09 2.58134e+09 2.58224e+09 0 1
193 1 0 2.58498e+09 2.58523e+09 2.58625e+09 2.58743e+09 0 1
194 1 0 2.59638e+09 2.59663e+09 2.59765e+09 2.598e+09 0 1
195 1 1 2.6104e+09 2.61065e+09 2.61167e+09 2.61203e+09 0 0
196 1 1 2.62124e+09 2.62149e+09 2.62251e+09 2.6234e+09 1 0
197 1 1 2.63047e+09 2.63073e+09 2.63175e+09 2.63198e+09 1 0
198 1 0 2.63903e+09 2.63927e+09 2.64029e+09 2.64302e+09 1 1
199 2 1 2.65092e+09 2.65118e+09 2.6522e+09 2.65223e+09 0 1
200 1 1 2.66604e+09 2.6663e+09 2.66732e+09 2.6676e+09 0 0
201 1 0 2.67767e+09 2.67794e+09 2.67896e+09 2.67943e+09 1 1
202 2 0 2.69029e+09 2.69056e+09 2.69158e+09 2.69191e+09 0 0
203 2 0 2.70022e+09 2.70048e+09 2.7015e+09 2.70244e+09 1 0
204 2 1 2.71113e+09 2.71138e+09 2.7124e+09 2.71611e+09 1 1
205 2 0 2.71881e+09 2.71906e+09 2.72008e+09 2.7205e+09 0 0
206 2 0 2.72788e+09 2.72814e+09 2.72916e+09 2.72924e+09 1 0
207 2 0 2.73815e+09 2.73841e+09 2.73943e+09 2.73949e+09 1 0
208 2 0 2.74734e+09 2.74759e+09 2.74861e+09 2.74868e+09 1 0
209 2 1 2.75871e+09 2.75897e+09 2.75999e+09 2.76034e+09 0 1
210 1 1 2.76325e+09 2.76351e+09 2.76453e+09 2.76469e+09 0 0
211 1 0 2.7726e+09 2.77285e+09 2.77387e+09 2.7744e+09 1 1
212 1 0 2.77804e+09 2.7783e+09 2.77932e+09 2.77997e+09 0 1
213 1 0 2.79944e+09 2.79969e+09 2.80071e+09 2.80107e+09 0 1
214 1 0 2.81558e+09 2.81584e+09 2.81686e+09 2.81803e+09 0 1
215 1 0 2.82071e+09 2.82096e+09 2.82198e+09 2.82204e+09 0 1
216 2 0 2.82474e+09 2.825e+09 2.82602e+09 2.82623e+09 0 0
217 2 0 2.8349e+09 2.83516e+09 2.83618e+09 2.8362e+09 1 0
218 2 0 2.84732e+09 2.84757e+09 2.84859e+09 2.84921e+09 1 0
219 2 0 2.8584e+09 2.85866e+09 2.85968e+09 2.86186e+09 1 0
220 2 1 2.87025e+09 2.87052e+09 2.87154e+09 2.87166e+09 0 1
221 2 1 2.88102e+09 2.88128e+09 2.8823e+09 2.88232e+09 0 1
222 2 0 2.90593e+09 2.90618e+09 2.9072e+09 2.90777e+09 0 0
223 2 0 2.91529e+09 2.91555e+09 2.91657e+09 2.92047e+09 1 0
224 2 1 2.92859e+09 2.92884e+09 2.92986e+09 2.93006e+09 1 1
225 1 0 2.9408e+09 2.94106e+09 2.94208e+09 2.94524e+09 0 1
226 1 0 2.95828e+09 2.95853e+09 2.95955e+09 2.95957e+09 0 1
227 1 1 2.98281e+09 2.98308e+09 2.98409e+09 2.98414e+09 0 0
228 1 0 2.99378e+09 2.99403e+09 2.99505e+09 2.99532e+09 1 1
229 2 0 3.00207e+09 3.00233e+09 3.00335e+09 3.00382e+09 0 0
230 2 0 3.01115e+09 3.0114e+09 3.01242e+09 3.01287e+09 1 0
231 2 1 3.02263e+09 3.02289e+09 3.0239e+09 3.02446e+09 1 1
232 2 1 3.02702e+09 3.02728e+09 3.0283e+09 3.02832e+09 0 1
233 1 1 3.03647e+09 3.03673e+09 3.03775e+09 3.03814e+09 0 0
234 1 0 3.05463e+09 3.0549e+09 3.05592e+09 3.0565e+09 1 1
235 2 0 3.06345e+09 3.0637e+09 3.06472e+09 3.06531e+09 0 0
236 2 1 3.07264e+09 3.07289e+09 3.07391e+09 3.07527e+09 1 1
237 1 0 3.09379e+09 3.09404e+09 3.09506e+09 3.09665e+09 0 1
238 1 1 3.10011e+09 3.10037e+09 3.10139e+09 3.10141e+09 0 0
239 1 0 3.11196e+09 3.11221e+09 3.11323e+09 3.11326e+09 1 1
240 2 1 3.1195e+09 3.11977e+09 3.12079e+09 3.12168e+09 0 1
241 2 0 3.12437e+09 3.12461e+09 3.12563e+09 3.12632e+09 0 0
242 2 0 3.13464e+09 3.13491e+09 3.13593e+09 3.13639e+09 1 0
243 2 0 3.14688e+09 3.14714e+09 3.14816e+09 3.14818e+09 1 0
244 2 1 3.15523e+09 3.15549e+09 3.15651e+09 3.15716e+09 1 1
245 2 0 3.16013e+09 3.16039e+09 3.16141e+09 3.16142e+09 0 0
246 2 0 3.17253e+09 3.1728e+09 3.17381e+09 3.17505e+09 1 0
247 2 1 3.18346e+09 3.18372e+09 3.18474e+09 3.18619e+09 1 1
248 1 0 3.2012e+09 3.20145e+09 3.20247e+09 3.20253e+09 0 1
249 1 1 3.20529e+09 3.20554e+09 3.20656e+09 3.20701e+09 0 0
250 1 0 3.21846e+09 3.21873e+09 3.21975e+09 3.22014e+09 1 1
251 2 0 3.2278e+09 3.22806e+09 3.22908e+09 3.22966e+09 0 0
252 2 1 3.24826e+09 3.24852e+09 3.24954e+09 3.24962e+09 1 1
253 2 0 3.25245e+09 3.25271e+09 3.25373e+09 3.25379e+09 0 0
254 2 1 3.27089e+09 3.27115e+09 3.27217e+09 3.27294e+09 1 1
255 1 1 3.27559e+09 3.27584e+09 3.27686e+09 3.27694e+09 0 0
256 1 1 3.28433e+09 3.28458e+09 3.2856e+09 3.28636e+09 1 0
257 1 1 3.2936e+09 3.29386e+09 3.29488e+09 3.29579e+09 1 0
258 1 0 3.30305e+09 3.30332e+09 3.30434e+09 3.30456e+09 1 1
259 2 0 3.30711e+09 3.30736e+09 3.30838e+09 3.30847e+09 0 0
260 2 0 3.31878e+09 3.31903e+09 3.32005e+09 3.32269e+09 1 0
261 2 1 3.33015e+09 3.33042e+09 3.33144e+09 3.33212e+09 1 1
262 2 1 3.35158e+09 3.35185e+09 3.35287e+09 3.35372e+09 0 1
263 2 1 3.35625e+09 3.3565e+09 3.35752e+09 3.35756e+09 0 1
264 2 1 3.36766e+09 3.36792e+09 3.36894e+09 3.36907e+09 0 1
265 1 0 3.38819e+09 3.38844e+09 3.38946e+09 3.38995e+09 0 1
266 1 0 3.39269e+09 3.39296e+09 3.39398e+09 3.394e+09 0 1
267 2 0 3.39682e+09 3.39707e+09 3.39809e+09 3.39899e+09 0 0
268 2 0 3.41099e+09 3.41125e+09 3.41227e+09 3.41239e+09 1 0
269 2 1 3.41984e+09 3.42009e+09 3.42111e+09 3.42309e+09 1 1
270 2 0 3.42563e+09 3.42588e+09 3.4269e+09 3.42695e+09 0 0
271 2 1 3.4434e+09 3.44366e+09 3.44468e+09 3.4476e+09 1 1
272 2 1 3.45013e+09 3.45039e+09 3.45141e+09 3.45177e+09 0 1
273 1 1 3.45448e+09 3.45474e+09 3.45576e+09 3.45607e+09 0 0
274 1 0 3.4697e+09 3.46994e+09 3.47096e+09 3.47174e+09 1 1
275 2 0 3.47434e+09 3.47459e+09 3.47561e+09 3.47609e+09 0 0
276 2 1 3.48549e+09 3.48573e+09 3.48675e+09 3.48677e+09 1 1
277 1 1 3.48957e+09 3.48983e+09 3.49085e+09 3.49116e+09 0 0
278 1 0 3.49977e+09 3.50003e+09 3.50105e+09 3.50129e+09 1 1
279 2 0 3.51042e+09 3.51068e+09 3.5117e+09 3.51303e+09 0 0
280 2 1 3.5223e+09 3.52256e+09 3.52358e+09 3.52591e+09 1 1
281 2 0 3.5491e+09 3.54936e+09 3.55038e+09 3.55045e+09 0 0
282 2 1 3.55789e+09 3.55815e+09 3.55917e+09 3.56146e+09 1 1
283 2 0 3.56402e+09 3.56428e+09 3.5653e+09 3.56577e+09 0 0
284 2 1 3.57428e+09 3.57453e+09 3.57555e+09 3.57661e+09 1 1
285 2 1 3.57949e+09 3.57975e+09 3.58077e+09 3.58088e+09 0 1
286 2 0 3.6041e+09 3.60435e+09 3.60537e+09 3.60549e+09 0 0
287 2 0 3.61398e+09 3.61424e+09 3.61526e+09 3.61677e+09 1 0
288 2 1 3.62402e+09 3.62427e+09 3.62529e+09 3.62546e+09 1 1
289 2 1 3.63162e+09 3.63187e+09 3.63289e+09 3.63389e+09 0 1
290 1 0 3.63983e+09 3.64008e+09 3.6411e+09 3.64112e+09 0 1
291 1 0 3.64384e+09 3.64409e+09 3.64511e+09 3.64518e+09 0 1
292 2 1 3.64782e+09 3.64808e+09 3.6491e+09 3.64959e+09 0 1
293 1 0 3.65218e+09 3.65243e+09 3.65345e+09 3.65364e+09 0 1
294 1 0 3.66236e+09 3.66261e+09 3.66363e+09 3.66415e+09 0 1
295 2 1 3.67825e+09 3.67851e+09 3.67953e+09 3.67957e+09 0 1
296 2 1 3.68218e+09 3.68243e+09 3.68345e+09 3.68381e+09 0 1
297 1 1 3.68938e+09 3.68964e+09 3.69066e+09 3.69167e+09 0 0
298 1 0 3.70114e+09 3.70139e+09 3.70241e+09 3.7033e+09 1 1
299 2 1 3.71159e+09 3.71185e+09 3.71287e+09 3.71306e+09 0 1
300 1 0 3.71932e+09 3.71957e+09 3.72059e+09 3.72063e+09 0 1
301 2 1 3.72467e+09 3.72492e+09 3.72594e+09 3.72707e+09 0 1
302 1 0 3.7313e+09 3.73155e+09 3.73257e+09 3.73275e+09 0 1
303 2 0 3.74038e+09 3.74063e+09 3.74165e+09 3.74209e+09 0 0
304 2 0 3.74968e+09 3.74994e+09 3.75096e+09 3.75104e+09 1 0
305 2 1 3.75848e+09 3.75874e+09 3.75976e+09 3.76446e+09 1 1
306 2 1 3.77144e+09 3.7717e+09 3.77272e+09 3.77278e+09 0 1
307 2 1 3.77789e+09 3.77813e+09 3.77915e+09 3.78035e+09 0 1
308 1 1 3.78402e+09 3.78427e+09 3.78529e+09 3.7853e+09 0 0
309 1 0 3.79447e+09 3.79472e+09 3.79574e+09 3.79853e+09 1 1
310 2 0 3.80363e+09 3.80388e+09 3.8049e+09 3.80692e+09 0 0
311 2 0 3.8141e+09 3.81436e+09 3.81538e+09 3.83185e+09 1 0
312 2 0 3.84119e+09 3.84145e+09 3.84247e+09 3.84258e+09 1 0
313 2 1 3.84967e+09 3.84992e+09 3.85094e+09 3.86741e+09 1 1
314 2 0 3.87001e+09 3.87026e+09 3.87128e+09 3.87218e+09 0 0
315 2 0 3.8794e+09 3.87966e+09 3.88068e+09 3.88424e+09 1 0
316 2 1 3.89153e+09 3.89178e+09 3.8928e+09 3.89291e+09 1 1
317 1 0 3.89581e+09 3.89609e+09 3.89711e+09 3.91695e+09 0 1
318 1 1 3.92016e+09 3.92041e+09 3.92143e+09 3.92331e+09 0 0
319 1 0 3.93276e+09 3.93302e+09 3.93404e+09 3.93447e+09 1 1
320 1 1 3.93719e+09 3.93745e+09 3.93847e+09 3.93865e+09 0 0
321 1 0 3.946e+09 3.94626e+09 3.94728e+09 3.94762e+09 1 1
322 1 0 3.95037e+09 3.95062e+09 3.95164e+09 3.95279e+09 0 1
323 2 0 3.95737e+09 3.95762e+09 3.95864e+09 3.95974e+09 0 0
324 2 0 3.96687e+09 3.96712e+09 3.96814e+09 3.98654e+09 1 0
325 2 0 3.99436e+09 3.99461e+09 3.99563e+09 4.00151e+09 1 0
326 2 0 4.00891e+09 4.00917e+09 4.01019e+09 4.01094e+09 1 0
327 2 0 4.01817e+09 4.01843e+09 4.01945e+09 4.02869e+09 0 0
328 1 0 4.03598e+09 4.03623e+09 4.03725e+09 4.03775e+09 0 1
329 2 1 4.04029e+09 4.04054e+09 4.04156e+09 4.04437e+09 0 1
330 1 0 4.04771e+09 4.04797e+09 4.04899e+09 4.05324e+09 0 1
331 1 0 4.05587e+09 4.05612e+09 4.05714e+09 4.06569e+09 0 1
332 1 0 4.06981e+09 4.07006e+09 4.07108e+09 4.1285e+09 0 1
333 1 0 4.13141e+09 4.13167e+09 4.13269e+09 4.13728e+09 0 1
334 2 0 4.1401e+09 4.14036e+09 4.14138e+09 4.15151e+09 0 0
335 2 0 4.15891e+09 4.15916e+09 4.16018e+09 4.16784e+09 1 0
336 2 0 4.17585e+09 4.1761e+09 4.17712e+09 4.18831e+09 1 0
337 2 0 4.1956e+09 4.19585e+09 4.19687e+09 4.19938e+09 1 0
338 2 0 4.20693e+09 4.20719e+09 4.20821e+09 4.21407e+09 0 0
339 2 1 4.22158e+09 4.22184e+09 4.22286e+09 4.22445e+09 0 1
340 1 1 4.22743e+09 4.22768e+09 4.2287e+09 4.2327e+09 0 0
341 1 0 4.24126e+09 4.24152e+09 4.24254e+09 4.25391e+09 1 1
342 1 0 4.25666e+09 4.25692e+09 4.25794e+09 4.26658e+09 0 1
343 1 0 4.26954e+09 4.2698e+09 4.27082e+09 4.27395e+09 0 1
344 2 0 4.27653e+09 4.27677e+09 4.27779e+09 4.28115e+09 0 0
345 2 0 4.28828e+09 4.28853e+09 4.28955e+09 4.29118e+09 1 0
346 2 0 6.84852e+06 7.10431e+06 8.12392e+06 1.66868e+07 1 0
347 2 0 2.37292e+07 2.39858e+07 2.50054e+07 2.99221e+07 1 0
348 2 1 3.74651e+07 3.77156e+07 3.87352e+07 4.21075e+07 0 1
349 1 0 4.50202e+07 4.5269e+07 4.62886e+07 4.87968e+07 0 1
350 1 0 5.17038e+07 5.19591e+07 5.29787e+07 5.66588e+07 0 1
351 1 0 5.92906e+07 5.95344e+07 6.05541e+07 6.57191e+07 0 1
352 2 0 6.90657e+07 6.93193e+07 7.03389e+07 7.53575e+07 0 0
353 2 0 8.24853e+07 8.27405e+07 8.37601e+07 9.57492e+07 1 0
354 2 0 1.0315e+08 1.03407e+08 1.04427e+08 1.09675e+08 1 0
355 2 0 1.17058e+08 1.17312e+08 1.18331e+08 1.20016e+08 1 0
356 1 0 1.31019e+08 1.3127e+08 1.32289e+08 1.3376e+08 0 1
357 1 0 1.36645e+08 1.36902e+08 1.37921e+08 1.43479e+08 0 1
358 1 0 1.47442e+08 1.47691e+08 1.48711e+08 1.55849e+08 0 1
359 2 0 1.58599e+08 1.58856e+08 1.59876e+08 1.65214e+08 0 0
360 2 0 1.72269e+08 1.72514e+08 1.73534e+08 1.78646e+08 1 0
361 2 0 1.85751e+08 1.86003e+08 1.87023e+08 1.92539e+08 1 0
362 2 0 1.99679e+08 1.9994e+08 2.0096e+08 2.0537e+08 1 0
363 1 0 2.1288e+08 2.13129e+08 2.14149e+08 2.25321e+08 0 1
364 2 0 2.28e+08 2.28244e+08 2.29264e+08 2.34749e+08 0 0
365 2 0 2.44429e+08 2.44679e+08 2.45698e+08 2.49207e+08 1 0
366 2 0 2.56711e+08 2.56953e+08 2.57973e+08 2.76611e+08 1 0
367 2 0 2.83894e+08 2.84145e+08 2.85165e+08 2.92496e+08 1 0
368 1 0 2.99849e+08 3.00093e+08 3.01113e+08 3.12278e+08 0 1
369 2 0 3.152e+08 3.15459e+08 3.16478e+08 3.22334e+08 0 0
370 2 0 3.29671e+08 3.29926e+08 3.30946e+08 3.32427e+08 1 0
371 2 0 3.39942e+08 3.40187e+08 3.41207e+08 3.51362e+08 1 0
372 2 0 3.58952e+08 3.59213e+08 3.60233e+08 3.65539e+08 1 0
373 1 0 3.72869e+08 3.73126e+08 3.74146e+08 3.80916e+08 0 1
374 2 1 3.84628e+08 3.84875e+08 3.85895e+08 3.92051e+08 0 1
375 2 0 3.9475e+08 3.94995e+08 3.96014e+08 4.10896e+08 0 0
376 2 1 4.2052e+08 4.20768e+08 4.21788e+08 4.28061e+08 1 1
377 1 1 4.31868e+08 4.32114e+08 4.33134e+08 4.45782e+08 0 0
378 1 0 4.53237e+08 4.5348e+08 4.54499e+08 4.58339e+08 1 1
379 2 0 4.61176e+08 4.61425e+08 4.62444e+08 4.72834e+08 0 0
380 2 0 4.80006e+08 4.80252e+08 4.81272e+08 4.81487e+08 1 0
381 2 1 4.88995e+08 4.89253e+08 4.90272e+08 4.95626e+08 1 1
382 1 0 4.98244e+08 4.98501e+08 4.99521e+08 5.20588e+08 0 1
383 2 0 5.24016e+08 5.24265e+08 5.25285e+08 5.66168e+08 0 0
384 2 1 5.73618e+08 5.73873e+08 5.74892e+08 5.76451e+08 1 1
385 1 1 5.79422e+08 5.79677e+08 5.80697e+08 5.84562e+08 0 0
386 1 0 5.91824e+08 5.92083e+08 5.93102e+08 5.98541e+08 1 1
387 2 0 6.01556e+08 6.01801e+08 6.0282e+08 6.1559e+08 0 0
388 2 0 6.22818e+08 6.23065e+08 6.24085e+08 6.47354e+08 1 0
389 2 0 6.54784e+08 6.55034e+08 6.56054e+08 6.65324e+08 1 0
390 2 0 6.7272e+08 6.72965e+08 6.73985e+08 6.79179e+08 1 0
391 1 0 6.86309e+08 6.86557e+08 6.87577e+08 6.90672e+08 0 1
392 2 1 6.93465e+08 6.93724e+08 6.94744e+08 7.06768e+08 0 1
393 2 0 7.09292e+08 7.09557e+08 7.10576e+08 7.1549e+08 0 0
394 2 1 7.22695e+08 7.22953e+08 7.23972e+08 7.31401e+08 1 1
395 1 1 7.34376e+08 7.34621e+08 7.3564e+08 7.47658e+08 0 0
396 1 0 7.59449e+08 7.59699e+08 7.60719e+08 7.69143e+08 1 1
397 2 0 7.71956e+08 7.72203e+08 7.73222e+08 7.77965e+08 0 0
398 2 0 7.86631e+08 7.86884e+08 7.87903e+08 7.9257e+08 1 0
399 2 0 7.99943e+08 8.00189e+08 8.01208e+08 8.0683e+08 1 0
400 2 0 8.1394e+08 8.14193e+08 8.15212e+08 8.3478e+08 1 0
401 1 0 8.43125e+08 8.43401e+08 8.44421e+08 8.50251e+08 0 1
402 2 0 8.52827e+08 8.53089e+08 8.54108e+08 8.59712e+08 0 0
403 2 0 8.67481e+08 8.67732e+08 8.68751e+08 8.80027e+08 1 0
404 2 1 8.87338e+08 8.87592e+08 8.88611e+08 8.9073e+08 1 1
405 2 0 8.93571e+08 8.93814e+08 8.94834e+08 9.05053e+08 0 0
406 2 0 9.12467e+08 9.12718e+08 9.13738e+08 9.16091e+08 1 0
407 2 0 9.23615e+08 9.2387e+08 9.24889e+08 9.26159e+08 1 0
408 2 0 9.33671e+08 9.33931e+08 9.34951e+08 9.37506e+08 1 0
409 1 0 9.44638e+08 9.44883e+08 9.45903e+08 9.46539e+08 0 1
410 2 0 9.49284e+08 9.4954e+08 9.5056e+08 9.62003e+08 0 0
411 2 0 9.72725e+08 9.72983e+08 9.74003e+08 9.8273e+08 1 0
412 2 1 9.91112e+08 9.91359e+08 9.92379e+08 9.99427e+08 1 1
413 1 0 1.00219e+09 1.00245e+09 1.00347e+09 1.01867e+09 0 1
414 1 0 1.02152e+09 1.02177e+09 1.02279e+09 1.02666e+09 0 1
415 1 1 1.03021e+09 1.03046e+09 1.03148e+09 1.03321e+09 0 0
416 1 0 1.04055e+09 1.0408e+09 1.04182e+09 1.04216e+09 1 1
417 1 0 1.0449e+09 1.04516e+09 1.04618e+09 1.05431e+09 0 1
418 2 1 1.05697e+09 1.05723e+09 1.05825e+09 1.06509e+09 0 1
419 2 0 1.06789e+09 1.06815e+09 1.06917e+09 1.0766e+09 0 0
420 2 1 1.08377e+09 1.08403e+09 1.08505e+09 1.08647e+09 1 1
421 1 1 1.08925e+09 1.0895e+09 1.09052e+09 1.09454e+09 0 0
422 1 1 1.10204e+09 1.1023e+09 1.10332e+09 1.10355e+09 1 0
423 1 0 1.11077e+09 1.11101e+09 1.11203e+09 1.11643e+09 1 1
424 2 0 1.11923e+09 1.11948e+09 1.1205e+09 1.13204e+09 0 0
425 2 1 1.13914e+09 1.13938e+09 1.1404e+09 1.14242e+09 1 1
426 1 1 1.145e+09 1.14526e+09 1.14628e+09 1.1603e+09 0 0
427 1 1 1.16743e+09 1.16769e+09 1.16871e+09 1.17592e+09 1 0
428 1 0 1.18321e+09 1.18347e+09 1.18449e+09 1.21107e+09 1 1
429 2 0 1.21405e+09 1.21429e+09 1.21531e+09 1.22022e+09 0 0
430 2 0 1.22725e+09 1.2275e+09 1.22852e+09 1.23425e+09 1 0
431 2 0 1.24134e+09 1.24161e+09 1.24263e+09 1.24653e+09 1 0
432 2 1 1.25502e+09 1.25527e+09 1.25629e+09 1.25887e+09 1 1
433 1 0 1.26162e+09 1.26188e+09 1.26289e+09 1.27313e+09 0 1
434 1 0 1.27575e+09 1.27601e+09 1.27702e+09 1.28086e+09 0 1
435 1 0 1.28428e+09 1.28452e+09 1.28554e+09 1.29005e+09 0 1
436 2 0 1.29287e+09 1.29311e+09 1.29413e+09 1.29972e+09 0 0
437 2 1 1.3069e+09 1.30715e+09 1.30817e+09 1.31431e+09 1 1
438 1 1 1.31724e+09 1.31749e+09 1.31851e+09 1.32255e+09 0 0
439 1 0 1.33204e+09 1.33229e+09 1.33331e+09 1.33747e+09 1 1
440 2 0 1.34002e+09 1.34027e+09 1.34129e+09 1.34985e+09 0 0
441 2 1 1.35691e+09 1.35717e+09 1.35819e+09 1.36052e+09 1 1
442 1 0 1.36333e+09 1.36359e+09 1.3646e+09 1.36979e+09 0 1
443 2 0 1.37367e+09 1.37392e+09 1.37494e+09 1.38051e+09 0 0
444 2 0 1.38907e+09 1.38931e+09 1.39033e+09 1.40338e+09 1 0
445 2 0 1.41042e+09 1.41067e+09 1.41169e+09 1.41572e+09 1 0
446 2 0 1.42281e+09 1.42306e+09 1.42408e+09 1.43144e+09 1 0
447 1 0 1.43885e+09 1.43912e+09 1.44014e+09 1.47045e+09 0 1
448 2 0 1.47317e+09 1.47343e+09 1.47445e+09 1.49386e+09 0 0
449 2 0 1.50116e+09 1.50142e+09 1.50244e+09 1.50905e+09 1 0
450 2 0 1.51609e+09 1.51635e+09 1.51737e+09 1.51821e+09 1 0
451 2 0 1.52544e+09 1.52568e+09 1.5267e+09 1.53007e+09 1 0
452 2 0 1.53733e+09 1.53758e+09 1.5386e+09 1.5517e+09 0 0
453 2 0 1.56044e+09 1.56069e+09 1.56171e+09 1.56908e+09 0 0
454 1 0 1.57626e+09 1.57651e+09 1.57753e+09 1.58563e+09 0 1
455 1 0 1.58821e+09 1.58847e+09 1.58948e+09 1.58983e+09 0 1
456 1 1 1.59244e+09 1.5927e+09 1.59372e+09 1.59772e+09 0 0
457 1 0 1.6052e+09 1.60545e+09 1.60647e+09 1.60894e+09 1 1
458 1 0 1.61172e+09 1.61196e+09 1.61298e+09 1.6217e+09 0 1
459 2 1 1.62465e+09 1.62491e+09 1.62593e+09 1.63479e+09 0 1
460 1 0 1.63768e+09 1.63794e+09 1.63896e+09 1.65406e+09 0 1
461 1 1 1.65692e+09 1.65717e+09 1.65819e+09 1.66809e+09 0 0
462 1 0 1.67526e+09 1.67551e+09 1.67653e+09 1.68055e+09 1 1
463 2 1 1.68348e+09 1.68373e+09 1.68475e+09 1.69249e+09 0 1
464 1 1 1.69523e+09 1.69548e+09 1.69649e+09 1.71809e+09 0 0
465 1 0 1.72544e+09 1.7257e+09 1.72672e+09 1.7318e+09 1 1
466 1 0 1.73515e+09 1.7354e+09 1.73642e+09 1.7439e+09 0 1
467 2 0 1.74835e+09 1.7486e+09 1.74962e+09 1.76059e+09 0 0
468 2 0 1.76791e+09 1.76816e+09 1.76918e+09 1.77168e+09 1 0
469 2 0 1.78008e+09 1.78033e+09 1.78135e+09 1.79414e+09 1 0
470 2 0 1.80302e+09 1.80327e+09 1.80429e+09 1.81068e+09 1 0
471 2 0 1.81881e+09 1.81906e+09 1.82008e+09 1.82161e+09 0 0
472 2 1 1.82871e+09 1.82896e+09 1.82998e+09 1.8331e+09 0 1
473 2 0 1.83681e+09 1.83706e+09 1.83808e+09 1.84565e+09 0 0
474 2 0 1.85302e+09 1.85327e+09 1.85429e+09 1.86215e+09 1 0
475 2 1 1.86949e+09 1.86974e+09 1.87076e+09 1.87669e+09 1 1
476 1 0 1.87969e+09 1.87995e+09 1.88097e+09 1.88979e+09 0 1
477 2 0 1.89427e+09 1.89453e+09 1.89555e+09 1.90349e+09 0 0
478 2 0 1.91089e+09 1.91114e+09 1.91216e+09 1.91658e+09 1 0
479 2 0 1.92383e+09 1.92409e+09 1.9251e+09 1.93045e+09 1 0
480 2 0 1.9379e+09 1.93816e+09 1.93918e+09 1.94062e+09 1 0
481 2 0 1.94795e+09 1.9482e+09 1.94922e+09 1.94983e+09 0 0
482 2 0 1.95696e+09 1.95721e+09 1.95823e+09 1.96205e+09 0 0
483 1 1 1.96946e+09 1.96971e+09 1.97073e+09 1.97589e+09 0 0
484 2 0 1.98341e+09 1.98367e+09 1.98469e+09 2.00949e+09 0 0
485 1 0 2.01683e+09 2.01708e+09 2.0181e+09 2.02913e+09 0 1
486 1 0 2.03188e+09 2.03213e+09 2.03315e+09 2.04707e+09 0 1
487 2 0 2.0518e+09 2.05206e+09 2.05308e+09 2.06634e+09 0 0
488 2 0 2.07374e+09 2.07398e+09 2.075e+09 2.07681e+09 1 0
489 2 0 2.08414e+09 2.08439e+09 2.08541e+09 2.09461e+09 1 0
490 2 0 2.102e+09 2.10225e+09 2.10327e+09 2.11709e+09 1 0
491 1 0 2.12459e+09 2.12484e+09 2.12586e+09 2.13011e+09 0 1
492 1 0 2.13273e+09 2.13298e+09 2.134e+09 2.14042e+09 0 1
493 2 0 2.14318e+09 2.14343e+09 2.14444e+09 2.20457e+09 0 0
494 2 0 2.21172e+09 2.21198e+09 2.213e+09 2.23275e+09 1 0
495 2 0 2.23986e+09 2.24011e+09 2.24113e+09 2.24632e+09 1 0
496 2 0 2.25373e+09 2.25398e+09 2.255e+09 2.25509e+09 1 0
497 2 0 2.26344e+09 2.26369e+09 2.26471e+09 2.26516e+09 0 0
498 1 0 2.27268e+09 2.27294e+09 2.27396e+09 2.27405e+09 0 1
499 1 0 2.27678e+09 2.27704e+09 2.27806e+09 2.28149e+09 0 1
500 2 0 2.28446e+09 2.28472e+09 2.28574e+09 2.28643e+09 0 0
501 2 0 2.29378e+09 2.29404e+09 2.29506e+09 2.30829e+09 1 0
502 2 0 2.31621e+09 2.31646e+09 2.31748e+09 2.31826e+09 1 0
503 2 1 2.32569e+09 2.32594e+09 2.32696e+09 2.32814e+09 1 1
504 2 0 2.33318e+09 2.33344e+09 2.33446e+09 2.33596e+09 0 0
505 2 1 2.34697e+09 2.34723e+09 2.34825e+09 2.46728e+09 1 1
