trial trialType response stillTime stimOnset stimOffset respTime correctionTrial correct
001 2 1 9.80379e+06 1.01044e+07 1.1124e+07 3.96447e+08 0 1
002 1 0 4.18915e+08 4.19186e+08 4.20206e+08 4.22422e+08 0 1
003 1 1 4.45881e+08 4.46153e+08 4.47172e+08 4.47886e+08 0 0
004 1 0 4.5693e+08 4.57188e+08 4.58208e+08 4.58748e+08 1 1
005 1 0 4.61857e+08 4.62109e+08 4.63128e+08 4.64836e+08 0 1
006 1 0 4.72452e+08 4.72712e+08 4.73732e+08 4.73735e+08 0 1
007 2 0 4.76629e+08 4.76881e+08 4.77901e+08 4.78953e+08 0 0
008 2 0 4.96243e+08 4.96496e+08 4.97516e+08 5.00562e+08 1 0
009 2 0 5.12404e+08 5.12663e+08 5.13683e+08 5.14923e+08 1 0
010 2 0 5.22164e+08 5.22414e+08 5.23433e+08 5.28061e+08 1 0
011 2 1 5.41886e+08 5.42146e+08 5.43166e+08 5.43322e+08 0 1
012 1 0 5.51378e+08 5.51643e+08 5.52663e+08 5.52998e+08 0 1
013 1 0 5.61926e+08 5.62189e+08 5.63209e+08 5.63586e+08 0 1
014 2 1 5.66904e+08 5.67158e+08 5.68178e+08 5.68187e+08 0 1
015 1 1 6.03696e+08 6.03959e+08 6.04979e+08 6.04991e+08 0 0
016 1 0 6.14796e+08 6.15048e+08 6.16068e+08 6.16075e+08 1 1
017 2 1 6.37566e+08 6.37817e+08 6.38836e+08 6.39081e+08 0 1
018 2 0 6.45878e+08 6.46136e+08 6.47156e+08 6.47717e+08 0 0
019 2 1 6.5942e+08 6.59672e+08 6.60692e+08 6.61136e+08 1 1
020 1 0 6.66682e+08 6.6694e+08 6.6796e+08 6.68912e+08 0 1
021 2 0 6.82049e+08 6.82312e+08 6.83331e+08 6.84492e+08 0 0
022 2 0 6.93191e+08 6.93451e+08 6.9447e+08 6.95364e+08 1 0
023 2 1 7.08705e+08 7.08967e+08 7.09987e+08 7.10942e+08 1 1
024 1 0 7.25078e+08 7.25339e+08 7.26358e+08 7.26435e+08 0 1
025 2 1 7.29655e+08 7.29916e+08 7.30935e+08 7.30955e+08 0 1
026 1 0 7.58309e+08 7.58553e+08 7.59573e+08 7.59681e+08 0 1
027 1 0 7.64836e+08 7.65103e+08 7.66122e+08 7.66138e+08 0 1
028 2 0 7.732e+08 7.73449e+08 7.74469e+08 7.7495e+08 0 0
029 2 1 7.83824e+08 7.84076e+08 7.85096e+08 7.85207e+08 1 1
030 2 0 7.9568e+08 7.95929e+08 7.96948e+08 7.96952e+08 0 0
031 2 0 8.06176e+08 8.06428e+08 8.07447e+08 8.07719e+08 1 0
032 2 0 8.2275e+08 8.22994e+08 8.24013e+08 8.24244e+08 1 0
033 2 1 8.34437e+08 8.34702e+08 8.35721e+08 8.36132e+08 1 1
034 2 1 8.46326e+08 8.46586e+08 8.47606e+08 8.48209e+08 0 1
035 2 0 8.5786e+08 8.58122e+08 8.59141e+08 8.5918e+08 0 0
036 2 0 8.67581e+08 8.67844e+08 8.68863e+08 8.69504e+08 1 0
037 2 1 8.78927e+08 8.7918e+08 8.80199e+08 8.83566e+08 1 1
038 2 0 8.95728e+08 8.95984e+08 8.97003e+08 8.97024e+08 0 0
039 2 0 9.04272e+08 9.0453e+08 9.0555e+08 9.05851e+08 1 0
040 2 1 9.13195e+08 9.13456e+08 9.14475e+08 9.15188e+08 1 1
041 2 1 9.18802e+08 9.1906e+08 9.2008e+08 9.23813e+08 0 1
042 2 1 9.28894e+08 9.2915e+08 9.3017e+08 9.31006e+08 0 1
043 2 1 9.35314e+08 9.35561e+08 9.36581e+08 9.38034e+08 0 1
044 1 0 9.45442e+08 9.45694e+08 9.46713e+08 9.46828e+08 0 1
045 1 1 9.54923e+08 9.55175e+08 9.56195e+08 9.57333e+08 0 0
046 1 0 9.66196e+08 9.66452e+08 9.67472e+08 9.70069e+08 1 1
047 2 0 9.73766e+08 9.74029e+08 9.75048e+08 9.75134e+08 0 0
048 2 1 9.82904e+08 9.8315e+08 9.84169e+08 9.84473e+08 1 1
049 1 0 9.90537e+08 9.90795e+08 9.91814e+08 9.93053e+08 0 1
050 2 0 1.01609e+09 1.01634e+09 1.01736e+09 1.01781e+09 0 0
051 2 0 1.02817e+09 1.02843e+09 1.02945e+09 1.03003e+09 1 0
052 2 0 1.03939e+09 1.03964e+09 1.04066e+09 1.04095e+09 1 0
053 2 0 1.05055e+09 1.05079e+09 1.05181e+09 1.05259e+09 1 0
054 2 1 1.06561e+09 1.06586e+09 1.06688e+09 1.06777e+09 0 1
055 2 1 1.07625e+09 1.0765e+09 1.07752e+09 1.07756e+09 0 1
056 2 1 1.0862e+09 1.08645e+09 1.08747e+09 1.09047e+09 0 1
057 2 0 1.09825e+09 1.0985e+09 1.09952e+09 1.10093e+09 0 0
058 2 1 1.10935e+09 1.10961e+09 1.11063e+09 1.11159e+09 1 1
059 1 1 1.11449e+09 1.11474e+09 1.11576e+09 1.11584e+09 0 0
060 1 0 1.12502e+09 1.12528e+09 1.12629e+09 1.12697e+09 1 1
061 1 1 1.13195e+09 1.13221e+09 1.13322e+09 1.1344e+09 0 0
062 1 0 1.14591e+09 1.14618e+09 1.1472e+09 1.14889e+09 1 1
063 1 0 1.15307e+09 1.15333e+09 1.15435e+09 1.15476e+09 0 1
064 1 0 1.15725e+09 1.15752e+09 1.15854e+09 1.15855e+09 0 1
065 1 0 1.16131e+09 1.16157e+09 1.16259e+09 1.16293e+09 0 1
066 2 0 1.16671e+09 1.16696e+09 1.16798e+09 1.16838e+09 0 0
067 2 0 1.17589e+09 1.17614e+09 1.17716e+09 1.17826e+09 1 0
068 2 0 1.18703e+09 1.18728e+09 1.1883e+09 1.18905e+09 1 0
069 2 0 1.1966e+09 1.19685e+09 1.19787e+09 1.19836e+09 1 0
070 2 1 1.20766e+09 1.20792e+09 1.20894e+09 1.20979e+09 0 1
071 1 0 1.21428e+09 1.21453e+09 1.21555e+09 1.21576e+09 0 1
072 1 0 1.22296e+09 1.22322e+09 1.22424e+09 1.22424e+09 0 1
073 2 1 1.23206e+09 1.23232e+09 1.23334e+09 1.23375e+09 0 1
074 2 0 1.23851e+09 1.23877e+09 1.23979e+09 1.23981e+09 0 0
075 2 1 1.25039e+09 1.25066e+09 1.25168e+09 1.25221e+09 1 1
076 2 1 1.26183e+09 1.26208e+09 1.2631e+09 1.26321e+09 0 1
077 1 0 1.26874e+09 1.269e+09 1.27002e+09 1.27012e+09 0 1
078 2 0 1.27485e+09 1.2751e+09 1.27612e+09 1.27655e+09 0 0
079 2 1 1.28409e+09 1.28435e+09 1.28537e+09 1.28538e+09 1 1
080 2 0 1.29738e+09 1.29763e+09 1.29865e+09 1.29984e+09 0 0
081 2 0 1.31153e+09 1.31179e+09 1.31281e+09 1.31291e+09 1 0
082 2 1 1.3204e+09 1.32064e+09 1.32166e+09 1.32366e+09 1 1
083 2 1 1.32695e+09 1.32721e+09 1.32823e+09 1.33e+09 0 1
084 2 1 1.33722e+09 1.33748e+09 1.3385e+09 1.33902e+09 0 1
085 2 0 1.34223e+09 1.34248e+09 1.3435e+09 1.34351e+09 0 0
086 2 0 1.35075e+09 1.351e+09 1.35202e+09 1.35271e+09 1 0
087 2 1 1.36047e+09 1.36072e+09 1.36174e+09 1.36186e+09 1 1
088 2 1 1.36689e+09 1.36715e+09 1.36816e+09 1.36848e+09 0 1
089 2 1 1.37363e+09 1.37389e+09 1.37491e+09 1.37706e+09 0 1
090 1 1 1.38169e+09 1.38194e+09 1.38296e+09 1.38466e+09 0 0
091 1 1 1.39236e+09 1.39262e+09 1.39364e+09 1.39651e+09 1 0
092 1 0 1.40427e+09 1.40452e+09 1.40554e+09 1.40623e+09 1 1
093 1 1 1.40902e+09 1.40926e+09 1.41028e+09 1.41031e+09 0 0
094 1 0 1.42331e+09 1.42357e+09 1.42459e+09 1.42528e+09 1 1
095 2 1 1.4323e+09 1.43255e+09 1.43357e+09 1.43386e+09 0 1
096 1 0 1.44241e+09 1.44266e+09 1.44368e+09 1.44369e+09 0 1
097 1 0 1.44639e+09 1.44665e+09 1.44767e+09 1.44804e+09 0 1
098 1 1 1.45316e+09 1.4534e+09 1.45442e+09 1.45446e+09 0 0
099 1 0 1.4678e+09 1.46806e+09 1.46908e+09 1.47016e+09 1 1
100 2 0 1.4802e+09 1.48045e+09 1.48147e+09 1.48196e+09 0 0
101 2 0 1.49043e+09 1.49069e+09 1.49171e+09 1.49462e+09 1 0
102 2 0 1.50348e+09 1.50373e+09 1.50475e+09 1.50597e+09 1 0
103 2 0 1.51928e+09 1.51953e+09 1.52054e+09 1.52091e+09 1 0
104 1 0 1.53525e+09 1.5355e+09 1.53652e+09 1.53671e+09 0 1
105 2 1 1.55287e+09 1.55311e+09 1.55413e+09 1.55447e+09 0 1
106 1 1 1.55995e+09 1.56021e+09 1.56123e+09 1.56271e+09 0 0
107 1 0 1.56993e+09 1.57018e+09 1.5712e+09 1.57265e+09 1 1
108 1 1 1.57801e+09 1.57827e+09 1.57929e+09 1.57944e+09 0 0
109 1 0 1.58684e+09 1.58709e+09 1.58811e+09 1.58834e+09 1 1
110 1 0 1.59753e+09 1.59778e+09 1.5988e+09 1.5993e+09 0 1
111 2 0 1.60331e+09 1.60356e+09 1.60458e+09 1.60465e+09 0 0
112 2 0 1.61372e+09 1.61396e+09 1.61498e+09 1.61581e+09 1 0
113 2 0 1.62712e+09 1.62737e+09 1.62839e+09 1.632e+09 1 0
114 2 1 1.64008e+09 1.64033e+09 1.64135e+09 1.64577e+09 1 1
115 2 0 1.65277e+09 1.65303e+09 1.65405e+09 1.65465e+09 0 0
116 2 0 1.66208e+09 1.66234e+09 1.66336e+09 1.66505e+09 1 0
117 2 0 1.67389e+09 1.67414e+09 1.67516e+09 1.67608e+09 1 0
118 2 1 1.68444e+09 1.6847e+09 1.68572e+09 1.68739e+09 1 1
119 1 0 1.69442e+09 1.69467e+09 1.69569e+09 1.69635e+09 0 1
120 2 0 1.70348e+09 1.70375e+09 1.70477e+09 1.70486e+09 0 0
121 2 1 1.71395e+09 1.7142e+09 1.71522e+09 1.71568e+09 1 1
122 1 0 1.71822e+09 1.71847e+09 1.71949e+09 1.71949e+09 0 1
123 1 0 1.72782e+09 1.72807e+09 1.72909e+09 1.7291e+09 0 1
124 2 0 1.73216e+09 1.73241e+09 1.73343e+09 1.73434e+09 0 0
125 2 0 1.74355e+09 1.74381e+09 1.74483e+09 1.74533e+09 1 0
126 2 0 1.75509e+09 1.75535e+09 1.75637e+09 1.75691e+09 1 0
127 2 1 1.77061e+09 1.77086e+09 1.77188e+09 1.77222e+09 1 1
128 1 1 1.78073e+09 1.78099e+09 1.78201e+09 1.78237e+09 0 0
129 1 0 1.78941e+09 1.78967e+09 1.79069e+09 1.79118e+09 1 1
130 1 0 1.79898e+09 1.79923e+09 1.80025e+09 1.80068e+09 0 1
131 1 0 1.81189e+09 1.81215e+09 1.81317e+09 1.8151e+09 0 1
132 2 1 1.83629e+09 1.83655e+09 1.83757e+09 1.83814e+09 0 1
133 1 1 1.841e+09 1.84125e+09 1.84227e+09 1.84303e+09 0 0
134 1 0 1.85071e+09 1.85098e+09 1.852e+09 1.85214e+09 1 1
135 1 1 1.85965e+09 1.85991e+09 1.86092e+09 1.86131e+09 0 0
136 1 0 1.86867e+09 1.86892e+09 1.86994e+09 1.87e+09 1 1
137 2 0 1.88308e+09 1.88333e+09 1.88435e+09 1.88445e+09 0 0
138 2 1 1.89243e+09 1.8927e+09 1.89372e+09 1.89448e+09 1 1
139 2 1 1.89716e+09 1.89741e+09 1.89843e+09 1.89868e+09 0 1
140 1 0 1.91257e+09 1.91283e+09 1.91385e+09 1.91492e+09 0 1
141 2 0 1.91759e+09 1.91783e+09 1.91885e+09 1.9195e+09 0 0
142 2 1 1.92795e+09 1.9282e+09 1.92922e+09 1.92923e+09 1 1
143 1 0 1.93263e+09 1.93289e+09 1.93391e+09 1.9346e+09 0 1
144 1 1 1.939e+09 1.93926e+09 1.94028e+09 1.94083e+09 0 0
145 1 0 1.94822e+09 1.94848e+09 1.9495e+09 1.95111e+09 1 1
146 1 0 1.95819e+09 1.95844e+09 1.95946e+09 1.95962e+09 0 1
147 2 0 1.96386e+09 1.96411e+09 1.96513e+09 1.96722e+09 0 0
148 2 0 1.9745e+09 1.97476e+09 1.97578e+09 1.97588e+09 1 0
149 2 0 1.98531e+09 1.98556e+09 1.98658e+09 1.98719e+09 1 0
150 2 1 1.99423e+09 1.99448e+09 1.9955e+09 1.99705e+09 1 1
151 2 1 2.00079e+09 2.00104e+09 2.00206e+09 2.00297e+09 0 1
152 1 0 2.00567e+09 2.00593e+09 2.00695e+09 2.00731e+09 0 1
153 2 0 2.01299e+09 2.01325e+09 2.01427e+09 2.01492e+09 0 0
154 2 0 2.02248e+09 2.02273e+09 2.02375e+09 2.02387e+09 1 0
155 2 1 2.03407e+09 2.03433e+09 2.03534e+09 2.03562e+09 1 1
156 1 0 2.03941e+09 2.03967e+09 2.04069e+09 2.041e+09 0 1
157 1 1 2.04954e+09 2.04979e+09 2.05081e+09 2.05093e+09 0 0
158 1 0 2.06272e+09 2.06297e+09 2.06399e+09 2.06446e+09 1 1
159 1 1 2.07577e+09 2.07603e+09 2.07705e+09 2.07706e+09 0 0
160 1 0 2.08698e+09 2.08723e+09 2.08825e+09 2.09017e+09 1 1
161 2 0 2.09611e+09 2.09636e+09 2.09738e+09 2.09817e+09 0 0
162 2 1 2.10521e+09 2.10547e+09 2.10649e+09 2.10659e+09 1 1
163 1 1 2.11565e+09 2.1159e+09 2.11692e+09 2.11723e+09 0 0
164 1 0 2.12454e+09 2.1248e+09 2.12582e+09 2.12582e+09 1 1
165 2 1 2.12855e+09 2.12881e+09 2.12983e+09 2.13046e+09 0 1
166 1 0 2.13681e+09 2.13707e+09 2.13809e+09 2.13825e+09 0 1
167 1 1 2.14917e+09 2.14943e+09 2.15045e+09 2.15179e+09 0 0
168 1 0 2.1592e+09 2.15946e+09 2.16048e+09 2.164e+09 1 1
169 2 1 2.17354e+09 2.17379e+09 2.17481e+09 2.17498e+09 0 1
170 1 1 2.17953e+09 2.17978e+09 2.1808e+09 2.18121e+09 0 0
171 1 0 2.19211e+09 2.19237e+09 2.19338e+09 2.19368e+09 1 1
172 2 1 2.1967e+09 2.19696e+09 2.19798e+09 2.19818e+09 0 1
173 1 1 2.21692e+09 2.21717e+09 2.21819e+09 2.21823e+09 0 0
174 1 0 2.22847e+09 2.22873e+09 2.22975e+09 2.23034e+09 1 1
175 2 0 2.24927e+09 2.24952e+09 2.25054e+09 2.25058e+09 0 0
176 2 0 2.25846e+09 2.25872e+09 2.25974e+09 2.25977e+09 1 0
177 2 1 2.2679e+09 2.26816e+09 2.26918e+09 2.27143e+09 1 1
178 1 1 2.27425e+09 2.27451e+09 2.27553e+09 2.27579e+09 0 0
179 1 0 2.28652e+09 2.28677e+09 2.28779e+09 2.28823e+09 1 1
180 2 1 2.30132e+09 2.30158e+09 2.3026e+09 2.30265e+09 0 1
181 2 1 2.32129e+09 2.32155e+09 2.32257e+09 2.32484e+09 0 1
182 2 0 2.33308e+09 2.33333e+09 2.33435e+09 2.33561e+09 0 0
183 2 1 2.34334e+09 2.34359e+09 2.34461e+09 2.34505e+09 1 1
184 1 1 2.35448e+09 2.35474e+09 2.35576e+09 2.35818e+09 0 0
185 1 1 2.36862e+09 2.36887e+09 2.36989e+09 2.36995e+09 1 0
186 1 1 2.37769e+09 2.37794e+09 2.37896e+09 2.37899e+09 1 0
187 1 1 2.38846e+09 2.38872e+09 2.38974e+09 2.3898e+09 1 0
188 2 1 2.39969e+09 2.39994e+09 2.40096e+09 2.40101e+09 0 1
189 2 1 2.40793e+09 2.40817e+09 2.40919e+09 2.40947e+09 0 1
190 2 0 2.42709e+09 2.42734e+09 2.42836e+09 2.42962e+09 0 0
191 2 0 2.43819e+09 2.43844e+09 2.43946e+09 2.43947e+09 1 0
192 2 1 2.44912e+09 2.44937e+09 2.45039e+09 2.45115e+09 1 1
193 2 0 2.45479e+09 2.45505e+09 2.45606e+09 2.45609e+09 0 0
194 2 0 2.46353e+09 2.46379e+09 2.46481e+09 2.46575e+09 1 0
195 2 1 2.47343e+09 2.47369e+09 2.47471e+09 2.4754e+09 1 1
196 2 0 2.47791e+09 2.47817e+09 2.47919e+09 2.47919e+09 0 0
197 2 0 2.4863e+09 2.48655e+09 2.48757e+09 2.48836e+09 1 0
198 2 1 2.4954e+09 2.49566e+09 2.49668e+09 2.49674e+09 1 1
199 1 0 2.50817e+09 2.50842e+09 2.50944e+09 2.50969e+09 0 1
200 1 0 2.51235e+09 2.5126e+09 2.51362e+09 2.51375e+09 0 1
201 1 0 2.51789e+09 2.51814e+09 2.51916e+09 2.5197e+09 0 1
202 1 1 2.53183e+09 2.53208e+09 2.5331e+09 2.53316e+09 0 0
203 1 1 2.54052e+09 2.54078e+09 2.5418e+09 2.54251e+09 1 0
204 1 0 2.55211e+09 2.55236e+09 2.55338e+09 2.5534e+09 1 1
205 2 0 2.55619e+09 2.55644e+09 2.55746e+09 2.55785e+09 0 0
206 2 0 2.57159e+09 2.57185e+09 2.57287e+09 2.5736e+09 1 0
207 2 1 2.58113e+09 2.58139e+09 2.58241e+09 2.58265e+09 1 1
208 1 1 2.58532e+09 2.58559e+09 2.5866e+09 2.58826e+09 0 0
209 1 1 2.59547e+09 2.59573e+09 2.59675e+09 2.59714e+09 1 0
210 1 1 2.60641e+09 2.60667e+09 2.60768e+09 2.60892e+09 1 0
211 1 1 2.61673e+09 2.61699e+09 2.61801e+09 2.61833e+09 1 0
212 2 1 2.62828e+09 2.62853e+09 2.62954e+09 2.62977e+09 0 1
213 2 1 2.63728e+09 2.63754e+09 2.63856e+09 2.63869e+09 0 1
214 1 0 2.64391e+09 2.64417e+09 2.64519e+09 2.64544e+09 0 1
215 1 1 2.6507e+09 2.65096e+09 2.65198e+09 2.65233e+09 0 0
216 1 0 2.66115e+09 2.66141e+09 2.66243e+09 2.66303e+09 1 1
217 2 1 2.67484e+09 2.67508e+09 2.6761e+09 2.67688e+09 0 1
218 1 0 2.6896e+09 2.68986e+09 2.69088e+09 2.69102e+09 0 1
219 2 0 2.69376e+09 2.69401e+09 2.69503e+09 2.69585e+09 0 0
220 2 1 2.70479e+09 2.70505e+09 2.70607e+09 2.70608e+09 1 1
221 1 1 2.71128e+09 2.71154e+09 2.71256e+09 2.71263e+09 0 0
222 1 0 2.72184e+09 2.7221e+09 2.72312e+09 2.72342e+09 1 1
223 1 1 2.73211e+09 2.73236e+09 2.73338e+09 2.73428e+09 0 0
224 1 1 2.74159e+09 2.74184e+09 2.74286e+09 2.7436e+09 1 0
225 1 0 2.75174e+09 2.75198e+09 2.753e+09 2.75355e+09 1 1
226 1 0 2.76314e+09 2.7634e+09 2.76442e+09 2.76472e+09 0 1
227 2 0 2.77709e+09 2.77735e+09 2.77837e+09 2.77883e+09 0 0
228 2 0 2.79322e+09 2.79347e+09 2.79449e+09 2.7954e+09 1 0
229 2 0 2.8029e+09 2.80315e+09 2.80417e+09 2.80423e+09 1 0
230 2 1 2.81809e+09 2.81835e+09 2.81937e+09 2.8194e+09 1 1
231 1 0 2.82737e+09 2.82762e+09 2.82864e+09 2.83644e+09 0 1
232 2 0 2.83983e+09 2.8401e+09 2.84112e+09 2.84122e+09 0 0
233 2 1 2.85002e+09 2.85028e+09 2.8513e+09 2.85134e+09 1 1
234 1 0 2.85967e+09 2.85993e+09 2.86095e+09 2.8622e+09 0 1
235 1 1 2.86911e+09 2.86937e+09 2.87038e+09 2.87055e+09 0 0
236 1 0 2.87787e+09 2.87813e+09 2.87915e+09 2.88113e+09 1 1
237 2 0 2.88687e+09 2.88713e+09 2.88815e+09 2.88845e+09 0 0
238 2 1 2.89838e+09 2.89862e+09 2.89964e+09 2.89989e+09 1 1
239 1 0 2.91001e+09 2.91028e+09 2.9113e+09 2.9113e+09 0 1
240 1 1 2.91459e+09 2.91485e+09 2.91587e+09 2.91687e+09 0 0
241 1 1 2.92702e+09 2.92728e+09 2.9283e+09 2.92853e+09 1 0
242 1 1 2.93882e+09 2.93908e+09 2.9401e+09 2.94244e+09 1 0
243 1 0 2.94983e+09 2.95008e+09 2.9511e+09 2.95245e+09 1 1
244 2 0 2.95495e+09 2.9552e+09 2.95622e+09 2.9568e+09 0 0
245 2 0 2.96447e+09 2.96473e+09 2.96575e+09 2.96797e+09 1 0
246 2 0 2.97518e+09 2.97544e+09 2.97646e+09 2.9789e+09 1 0
247 2 1 2.98619e+09 2.98644e+09 2.98746e+09 2.98837e+09 1 1
248 2 1 2.99157e+09 2.99182e+09 2.99284e+09 2.99306e+09 0 1
249 2 0 2.99932e+09 2.99958e+09 3.0006e+09 3.0014e+09 0 0
250 2 0 3.00992e+09 3.01017e+09 3.01119e+09 3.01167e+09 1 0
251 2 0 3.02331e+09 3.02357e+09 3.02459e+09 3.02461e+09 1 0
252 2 1 3.03452e+09 3.03478e+09 3.0358e+09 3.03663e+09 1 1
253 2 0 3.0433e+09 3.04355e+09 3.04457e+09 3.04716e+09 0 0
254 2 0 3.05501e+09 3.05527e+09 3.05628e+09 3.05634e+09 1 0
255 2 0 3.06411e+09 3.06436e+09 3.06538e+09 3.06786e+09 1 0
256 2 0 3.07523e+09 3.07549e+09 3.07651e+09 3.07656e+09 1 0
257 1 1 3.08386e+09 3.08412e+09 3.08514e+09 3.08678e+09 0 0
258 1 1 3.0941e+09 3.09436e+09 3.09538e+09 3.09574e+09 0 0
259 1 0 3.10407e+09 3.10433e+09 3.10535e+09 3.10653e+09 0 1
260 2 1 3.11e+09 3.11025e+09 3.11127e+09 3.11133e+09 0 1
261 2 0 3.12246e+09 3.12271e+09 3.12373e+09 3.12433e+09 0 0
262 2 0 3.13963e+09 3.13989e+09 3.14091e+09 3.14218e+09 1 0
263 2 1 3.15051e+09 3.15076e+09 3.15178e+09 3.15236e+09 1 1
264 1 0 3.1558e+09 3.15606e+09 3.15708e+09 3.1574e+09 0 1
265 1 1 3.16032e+09 3.16057e+09 3.16159e+09 3.16217e+09 0 0
266 1 0 3.1695e+09 3.16976e+09 3.17078e+09 3.17082e+09 1 1
267 2 0 3.17337e+09 3.17363e+09 3.17465e+09 3.1748e+09 0 0
268 2 1 3.18372e+09 3.18397e+09 3.18499e+09 3.18713e+09 1 1
269 2 1 3.19156e+09 3.19181e+09 3.19283e+09 3.1932e+09 0 1
270 1 1 3.19575e+09 3.196e+09 3.19702e+09 3.19814e+09 0 0
271 1 0 3.20713e+09 3.20739e+09 3.20841e+09 3.20875e+09 1 1
272 2 0 3.21126e+09 3.21152e+09 3.21254e+09 3.21305e+09 0 0
273 2 0 3.22029e+09 3.22054e+09 3.22156e+09 3.22163e+09 1 0
274 2 1 3.22977e+09 3.23002e+09 3.23104e+09 3.23161e+09 1 1
275 2 0 3.2342e+09 3.23446e+09 3.23548e+09 3.23647e+09 0 0
276 2 1 3.24362e+09 3.24387e+09 3.24489e+09 3.2459e+09 1 1
277 2 0 3.24855e+09 3.24881e+09 3.24983e+09 3.25002e+09 0 0
278 2 0 3.25736e+09 3.25761e+09 3.25863e+09 3.25874e+09 1 0
279 2 0 3.26596e+09 3.2662e+09 3.26722e+09 3.26843e+09 1 0
280 2 0 3.27562e+09 3.27587e+09 3.27689e+09 3.27696e+09 1 0
281 1 0 3.28452e+09 3.28478e+09 3.2858e+09 3.28621e+09 0 1
282 2 0 3.29484e+09 3.29509e+09 3.29611e+09 3.29631e+09 0 0
283 2 0 3.30341e+09 3.30366e+09 3.30468e+09 3.30927e+09 1 0
284 2 1 3.31775e+09 3.31799e+09 3.31901e+09 3.31921e+09 1 1
285 2 1 3.3217e+09 3.32196e+09 3.32298e+09 3.32355e+09 0 1
286 2 0 3.33203e+09 3.3323e+09 3.33332e+09 3.33553e+09 0 0
287 2 0 3.34282e+09 3.34308e+09 3.3441e+09 3.34499e+09 1 0
288 2 0 3.35209e+09 3.35234e+09 3.35336e+09 3.35539e+09 1 0
289 2 1 3.36476e+09 3.36501e+09 3.36603e+09 3.36691e+09 1 1
290 2 1 3.37031e+09 3.37057e+09 3.37159e+09 3.37175e+09 0 1
291 2 1 3.38057e+09 3.38083e+09 3.38185e+09 3.38332e+09 0 1
292 1 1 3.39163e+09 3.39188e+09 3.3929e+09 3.39364e+09 0 0
293 1 0 3.4032e+09 3.40345e+09 3.40447e+09 3.40713e+09 1 1
294 2 0 3.4112e+09 3.41146e+09 3.41248e+09 3.41263e+09 0 0
295 2 1 3.43431e+09 3.43456e+09 3.43558e+09 3.43569e+09 1 1
296 1 0 3.4383e+09 3.43856e+09 3.43958e+09 3.44319e+09 0 1
297 2 1 3.44985e+09 3.4501e+09 3.45112e+09 3.45114e+09 0 1
298 1 0 3.45947e+09 3.45972e+09 3.46074e+09 3.46119e+09 0 1
299 1 0 3.46509e+09 3.46535e+09 3.46637e+09 3.4684e+09 0 1
300 1 0 3.47379e+09 3.47404e+09 3.47506e+09 3.47588e+09 0 1
301 2 0 3.47843e+09 3.47869e+09 3.47971e+09 3.48101e+09 0 0
302 2 0 3.48832e+09 3.48857e+09 3.48959e+09 3.48961e+09 1 0
303 2 1 3.49898e+09 3.49923e+09 3.50025e+09 3.50189e+09 1 1
304 1 0 3.50476e+09 3.50502e+09 3.50604e+09 3.50608e+09 0 1
305 1 0 3.50899e+09 3.50926e+09 3.51027e+09 3.51035e+09 0 1
306 2 0 3.5205e+09 3.52076e+09 3.52178e+09 3.52216e+09 0 0
307 2 0 3.53226e+09 3.53251e+09 3.53353e+09 3.53399e+09 1 0
308 2 0 3.54645e+09 3.5467e+09 3.54772e+09 3.54792e+09 1 0
309 2 1 3.55498e+09 3.55522e+09 3.55624e+09 3.5571e+09 1 1
310 1 0 3.56431e+09 3.56456e+09 3.56558e+09 3.56652e+09 0 1
311 1 1 3.57049e+09 3.57076e+09 3.57177e+09 3.5718e+09 0 0
312 1 1 3.57896e+09 3.57922e+09 3.58024e+09 3.58254e+09 1 0
313 1 0 3.58964e+09 3.58988e+09 3.5909e+09 3.59129e+09 1 1
314 2 1 3.5995e+09 3.59975e+09 3.60077e+09 3.60078e+09 0 1
315 2 1 3.60771e+09 3.60798e+09 3.609e+09 3.61015e+09 0 1
316 1 0 3.61719e+09 3.61745e+09 3.61847e+09 3.61979e+09 0 1
317 1 0 3.62454e+09 3.6248e+09 3.62582e+09 3.62584e+09 0 1
318 1 0 3.63056e+09 3.63081e+09 3.63183e+09 3.63268e+09 0 1
319 1 0 3.6431e+09 3.64335e+09 3.64437e+09 3.64508e+09 0 1
320 1 0 3.64831e+09 3.64857e+09 3.64959e+09 3.64973e+09 0 1
321 2 1 3.65432e+09 3.65457e+09 3.65559e+09 3.6559e+09 0 1
322 1 0 3.66051e+09 3.66076e+09 3.66178e+09 3.66179e+09 0 1
323 2 0 3.66722e+09 3.66748e+09 3.6685e+09 3.66903e+09 0 0
324 2 0 3.67662e+09 3.67687e+09 3.67789e+09 3.67814e+09 1 0
325 2 1 3.68734e+09 3.68759e+09 3.68861e+09 3.68899e+09 1 1
326 2 0 3.69219e+09 3.69246e+09 3.69348e+09 3.69349e+09 0 0
327 2 0 3.70066e+09 3.70091e+09 3.70193e+09 3.70248e+09 1 0
328 2 0 3.70971e+09 3.70997e+09 3.71099e+09 3.71154e+09 1 0
329 2 0 3.71861e+09 3.71888e+09 3.7199e+09 3.72261e+09 1 0
330 1 0 3.72978e+09 3.73005e+09 3.73106e+09 3.73169e+09 0 1
331 1 0 3.73564e+09 3.73588e+09 3.7369e+09 3.73693e+09 0 1
332 1 0 3.73988e+09 3.74013e+09 3.74115e+09 3.74148e+09 0 1
333 2 0 3.74668e+09 3.74693e+09 3.74795e+09 3.74849e+09 0 0
334 2 0 3.75582e+09 3.75608e+09 3.7571e+09 3.7614e+09 1 0
335 2 0 3.76879e+09 3.76905e+09 3.77007e+09 3.77043e+09 1 0
336 2 1 3.77766e+09 3.77792e+09 3.77894e+09 3.77964e+09 1 1
337 2 1 3.78278e+09 3.78304e+09 3.78406e+09 3.78518e+09 0 1
338 2 0 3.7919e+09 3.79217e+09 3.79319e+09 3.79359e+09 0 0
339 2 1 3.81348e+09 3.81374e+09 3.81476e+09 3.81563e+09 1 1
340 1 1 3.81862e+09 3.81888e+09 3.8199e+09 3.82075e+09 0 0
341 1 0 3.83031e+09 3.83056e+09 3.83158e+09 3.83258e+09 1 1
342 1 0 3.83617e+09 3.83641e+09 3.83743e+09 3.83827e+09 0 1
343 2 1 3.84122e+09 3.84149e+09 3.8425e+09 3.84597e+09 0 1
344 2 1 3.84852e+09 3.84877e+09 3.84979e+09 3.84981e+09 0 1
345 1 0 3.85542e+09 3.85569e+09 3.8567e+09 3.85686e+09 0 1
346 1 1 3.86182e+09 3.86208e+09 3.8631e+09 3.86413e+09 0 0
347 1 1 3.87179e+09 3.87203e+09 3.87305e+09 3.8753e+09 1 0
348 1 1 3.88276e+09 3.883e+09 3.88402e+09 3.88551e+09 1 0
349 1 1 3.89381e+09 3.89405e+09 3.89507e+09 3.89517e+09 1 0
350 1 0 3.90327e+09 3.90353e+09 3.90455e+09 3.90487e+09 0 1
351 2 0 3.91036e+09 3.91062e+09 3.91164e+09 3.91241e+09 0 0
352 2 0 3.92105e+09 3.9213e+09 3.92232e+09 3.9226e+09 1 0
353 2 0 3.93091e+09 3.93116e+09 3.93218e+09 3.93239e+09 1 0
354 2 0 3.93978e+09 3.94004e+09 3.94106e+09 3.94293e+09 1 0
355 1 0 3.95037e+09 3.95063e+09 3.95165e+09 3.95174e+09 0 1
356 2 0 3.9571e+09 3.95735e+09 3.95837e+09 3.95961e+09 0 0
357 2 1 3.97176e+09 3.97201e+09 3.97303e+09 3.97339e+09 1 1
358 1 0 3.97917e+09 3.97944e+09 3.98046e+09 3.98061e+09 0 1
359 1 1 3.98717e+09 3.98743e+09 3.98845e+09 3.98862e+09 0 0
360 1 0 3.99567e+09 3.99592e+09 3.99694e+09 3.99694e+09 1 1
361 2 0 3.99953e+09 3.99979e+09 4.00081e+09 4.00095e+09 0 0
362 2 1 4.00809e+09 4.00834e+09 4.00936e+09 4.01101e+09 1 1
363 2 0 4.01773e+09 4.01798e+09 4.019e+09 4.02011e+09 0 0
364 2 0 4.0273e+09 4.02756e+09 4.02858e+09 4.02918e+09 1 0
365 2 0 4.04264e+09 4.0429e+09 4.04392e+09 4.04402e+09 1 0
366 2 0 4.05922e+09 4.05946e+09 4.06048e+09 4.06072e+09 1 0
367 1 1 4.06805e+09 4.06832e+09 4.06934e+09 4.0699e+09 0 0
368 2 0 4.07784e+09 4.0781e+09 4.07912e+09 4.08466e+09 0 0
369 2 0 4.09215e+09 4.09241e+09 4.09343e+09 4.09465e+09 0 0
370 2 0 4.10205e+09 4.10231e+09 4.10333e+09 4.1043e+09 0 0
371 2 0 4.11484e+09 4.11509e+09 4.11611e+09 4.11648e+09 0 0
372 1 0 4.12368e+09 4.12394e+09 4.12496e+09 4.12716e+09 0 1
373 2 1 4.13041e+09 4.13067e+09 4.13169e+09 4.13564e+09 0 1
374 1 1 4.14635e+09 4.14661e+09 4.14763e+09 4.15068e+09 0 0
375 1 1 4.15897e+09 4.15923e+09 4.16025e+09 4.16367e+09 1 0
376 1 0 4.17116e+09 4.17142e+09 4.17244e+09 4.17285e+09 1 1
377 1 0 4.17675e+09 4.177e+09 4.17802e+09 4.18221e+09 0 1
378 1 1 4.18738e+09 4.18763e+09 4.18865e+09 4.19196e+09 0 0
379 1 1 4.20138e+09 4.20163e+09 4.20265e+09 4.21094e+09 1 0
380 1 0 4.21863e+09 4.21889e+09 4.21991e+09 4.22187e+09 1 1
381 2 1 4.22508e+09 4.22534e+09 4.22636e+09 4.22812e+09 0 1
382 2 0 4.23104e+09 4.23129e+09 4.23231e+09 4.23329e+09 0 0
383 2 0 4.2422e+09 4.24245e+09 4.24347e+09 4.25137e+09 1 0
384 2 1 4.25946e+09 4.2597e+09 4.26072e+09 4.2634e+09 1 1
385 1 0 4.26636e+09 4.26662e+09 4.26764e+09 4.26958e+09 0 1
386 1 1 4.27863e+09 4.27888e+09 4.2799e+09 4.28229e+09 0 0
387 1 1 4.29432e+09 4.29457e+09 623052 1.32375e+07 1 0
388 1 0 2.53e+07 2.55593e+07 2.65789e+07 3.61381e+07 1 1
389 1 0 3.91117e+07 3.93709e+07 4.03905e+07 4.06115e+07 0 1
390 2 1 4.49086e+07 4.51706e+07 4.61903e+07 4.84988e+07 0 1
391 2 0 5.20653e+07 5.2316e+07 5.33356e+07 5.3485e+07 0 0
392 2 1 6.12362e+07 6.14998e+07 6.25194e+07 6.39559e+07 1 1
393 1 0 6.6476e+07 6.67341e+07 6.77537e+07 6.78581e+07 0 1
394 2 0 7.05864e+07 7.08468e+07 7.18665e+07 7.19046e+07 0 0
395 2 1 8.02263e+07 8.04871e+07 8.15068e+07 8.24318e+07 1 1
396 1 1 8.59535e+07 8.62032e+07 8.72228e+07 8.88757e+07 0 0
397 1 0 9.61925e+07 9.64401e+07 9.74597e+07 9.8637e+07 1 1
398 2 1 1.0153e+08 1.01791e+08 1.0281e+08 1.06414e+08 0 1
399 1 1 1.15661e+08 1.1593e+08 1.1695e+08 1.32559e+08 0 0
400 1 1 1.39668e+08 1.39923e+08 1.40943e+08 1.57633e+08 1 0
401 1 0 1.64716e+08 1.64959e+08 1.65979e+08 1.91241e+08 1 1
402 2 1 1.93798e+08 1.94053e+08 1.95073e+08 1.98281e+08 0 1
403 1 0 2.01046e+08 2.01296e+08 2.02315e+08 2.02404e+08 0 1
404 1 1 2.12211e+08 2.12469e+08 2.13489e+08 2.21055e+08 0 0
405 1 1 2.28407e+08 2.28663e+08 2.29683e+08 2.36167e+08 1 0
406 1 0 2.44058e+08 2.44309e+08 2.45328e+08 2.4535e+08 1 1
407 2 0 2.48378e+08 2.48627e+08 2.49647e+08 2.50148e+08 0 0
408 2 1 2.57653e+08 2.5791e+08 2.5893e+08 2.67804e+08 1 1
409 1 0 2.7067e+08 2.70913e+08 2.71933e+08 2.72558e+08 0 1
410 2 0 2.76809e+08 2.77075e+08 2.78094e+08 2.78704e+08 0 0
411 2 0 2.85877e+08 2.86142e+08 2.87162e+08 2.91344e+08 1 0
412 2 0 2.98873e+08 2.99135e+08 3.00155e+08 3.03942e+08 1 0
413 2 0 3.11684e+08 3.11935e+08 3.12955e+08 3.20963e+08 1 0
414 1 0 3.31389e+08 3.31642e+08 3.32662e+08 3.34634e+08 0 1
415 1 0 3.37388e+08 3.37644e+08 3.38664e+08 3.45978e+08 0 1
416 2 0 3.48807e+08 3.49071e+08 3.5009e+08 3.51502e+08 0 0
417 2 0 3.59126e+08 3.59387e+08 3.60407e+08 3.65619e+08 1 0
418 2 0 3.7278e+08 3.73025e+08 3.74045e+08 3.75186e+08 1 0
419 2 0 3.83812e+08 3.84056e+08 3.85076e+08 3.86712e+08 1 0
420 2 0 3.95641e+08 3.9589e+08 3.9691e+08 3.9957e+08 0 0
421 2 1 4.09354e+08 4.0961e+08 4.1063e+08 4.21005e+08 0 1
422 1 0 4.27831e+08 4.28084e+08 4.29104e+08 4.34533e+08 0 1
423 2 1 4.37247e+08 4.37508e+08 4.38527e+08 4.51339e+08 0 1
424 2 0 4.54119e+08 4.54376e+08 4.55396e+08 4.63586e+08 0 0
425 2 0 4.70681e+08 4.70933e+08 4.71953e+08 4.77178e+08 1 0
426 2 0 4.84593e+08 4.84846e+08 4.85865e+08 4.91004e+08 1 0
427 2 1 4.98134e+08 4.98391e+08 4.9941e+08 5.0001e+08 1 1
428 1 0 5.03801e+08 5.04056e+08 5.05076e+08 5.06216e+08 0 1
429 1 0 5.09176e+08 5.09438e+08 5.10458e+08 5.10688e+08 0 1
430 1 0 5.13211e+08 5.13467e+08 5.14487e+08 5.17496e+08 0 1
431 1 0 5.20066e+08 5.20309e+08 5.21329e+08 5.33341e+08 0 1
432 1 0 5.36869e+08 5.37116e+08 5.38135e+08 5.43092e+08 0 1
433 2 0 5.47216e+08 5.47463e+08 5.48482e+08 5.49105e+08 0 0
434 2 0 5.56528e+08 5.56789e+08 5.57808e+08 5.63699e+08 1 0
435 2 0 5.7259e+08 5.72838e+08 5.73858e+08 5.75536e+08 1 0
436 2 1 5.82839e+08 5.831e+08 5.84119e+08 6.14216e+08 1 1
437 2 0 6.16888e+08 6.17143e+08 6.18162e+08 6.19795e+08 0 0
438 2 0 6.27245e+08 6.27502e+08 6.28522e+08 6.28615e+08 1 0
439 2 0 6.35966e+08 6.36217e+08 6.37237e+08 6.82726e+08 1 0
440 2 0 6.89781e+08 6.90025e+08 6.91045e+08 6.92029e+08 1 0
441 1 0 6.99127e+08 6.99373e+08 7.00392e+08 7.01898e+08 0 1
442 2 1 7.08923e+08 7.09178e+08 7.10197e+08 7.11727e+08 0 1
443 1 0 7.14921e+08 7.15184e+08 7.16203e+08 7.34282e+08 0 1
444 2 0 7.36946e+08 7.37211e+08 7.38231e+08 7.65219e+08 0 0
445 2 0 7.72262e+08 7.72505e+08 7.73525e+08 7.7371e+08 1 0
446 2 0 7.80797e+08 7.81044e+08 7.82064e+08 7.82096e+08 1 0
447 2 0 7.91605e+08 7.91867e+08 7.92887e+08 7.94206e+08 1 0
448 1 1 8.01804e+08 8.02048e+08 8.03068e+08 8.03312e+08 0 0
449 2 0 8.10648e+08 8.10904e+08 8.11924e+08 8.11937e+08 0 0
450 1 1 8.19034e+08 8.19292e+08 8.20312e+08 8.2033e+08 0 0
451 2 0 8.28701e+08 8.28947e+08 8.29966e+08 8.31345e+08 0 0
452 2 0 8.38615e+08 8.38871e+08 8.39891e+08 8.52645e+08 0 0
453 1 1 8.60148e+08 8.60397e+08 8.61416e+08 8.61424e+08 0 0
454 2 0 8.68601e+08 8.68864e+08 8.69883e+08 8.73304e+08 0 0
455 1 1 8.81056e+08 8.81313e+08 8.82333e+08 8.96507e+08 0 0
456 1 0 9.03662e+08 9.03906e+08 9.04926e+08 9.20125e+08 0 1
457 2 0 9.23728e+08 9.23987e+08 9.25007e+08 9.34853e+08 0 0
458 2 0 9.42134e+08 9.42389e+08 9.43409e+08 9.49276e+08 1 0
459 2 1 9.5671e+08 9.56958e+08 9.57978e+08 9.62393e+08 1 1
460 2 0 9.66023e+08 9.66265e+08 9.67285e+08 9.70282e+08 0 0
461 2 0 9.77624e+08 9.77875e+08 9.78895e+08 9.85423e+08 1 0
462 2 0 9.93587e+08 9.93837e+08 9.94856e+08 9.99125e+08 1 0
463 2 0 1.00984e+09 1.0101e+09 1.01112e+09 1.01874e+09 1 0
464 1 0 1.02603e+09 1.02628e+09 1.0273e+09 1.03374e+09 0 1
465 1 0 1.03657e+09 1.03681e+09 1.03783e+09 1.07104e+09 0 1
466 1 0 1.07412e+09 1.07438e+09 1.0754e+09 1.08049e+09 0 1
467 1 0 1.08337e+09 1.08362e+09 1.08464e+09 1.10435e+09 0 1
468 1 0 1.10716e+09 1.10742e+09 1.10844e+09 1.11391e+09 0 1
469 2 0 1.11805e+09 1.1183e+09 1.11932e+09 1.12406e+09 0 0
470 2 0 1.13121e+09 1.13146e+09 1.13248e+09 1.13583e+09 1 0
471 2 0 1.14299e+09 1.14325e+09 1.14427e+09 1.1474e+09 1 0
472 2 0 1.15537e+09 1.15563e+09 1.15665e+09 1.16061e+09 1 0
473 2 0 1.16823e+09 1.16849e+09 1.16951e+09 1.17006e+09 0 0
474 2 0 1.1775e+09 1.17775e+09 1.17877e+09 1.18034e+09 0 0
475 1 1 1.18995e+09 1.1902e+09 1.19122e+09 1.19134e+09 0 0
476 1 0 1.19891e+09 1.19916e+09 1.20018e+09 1.20029e+09 0 1
477 2 0 1.20482e+09 1.20508e+09 1.2061e+09 1.23624e+09 0 0
478 2 0 1.24365e+09 1.24389e+09 1.24491e+09 1.25719e+09 1 0
479 2 0 1.26465e+09 1.2649e+09 1.26592e+09 1.26737e+09 1 0
480 2 0 1.275e+09 1.27526e+09 1.27628e+09 1.28973e+09 1 0
481 2 0 1.29707e+09 1.29733e+09 1.29835e+09 1.30619e+09 0 0
482 1 0 1.31334e+09 1.31359e+09 1.31461e+09 1.32004e+09 0 1
483 2 0 1.32633e+09 1.32658e+09 1.3276e+09 1.3317e+09 0 0
484 2 0 1.34114e+09 1.34139e+09 1.34241e+09 1.35297e+09 1 0
485 2 0 1.36025e+09 1.36051e+09 1.36153e+09 1.37209e+09 1 0
486 2 1 1.37931e+09 1.37956e+09 1.38058e+09 1.38713e+09 1 1
487 1 0 1.39143e+09 1.39168e+09 1.3927e+09 1.39631e+09 0 1
