trial trialType response stillTime stimOnset stimOffset respTime correctionTrial correct
001 1 0 9.7956e+06 1.01186e+07 1.11382e+07 1.16983e+07 0 1
002 2 1 2.10186e+07 2.12851e+07 2.23047e+07 2.2416e+07 0 1
003 2 0 3.16109e+07 3.18931e+07 3.29127e+07 3.29412e+07 0 0
004 2 1 4.14761e+07 4.17333e+07 4.27529e+07 4.31034e+07 1 1
005 2 1 6.48387e+07 6.5101e+07 6.61206e+07 6.667e+07 0 1
006 1 0 6.97764e+07 7.004e+07 7.10596e+07 7.15147e+07 0 1
007 2 1 7.60464e+07 7.63046e+07 7.73242e+07 7.73915e+07 0 1
008 1 0 8.11448e+07 8.14051e+07 8.24247e+07 8.27184e+07 0 1
009 2 1 8.74977e+07 8.77535e+07 8.87731e+07 8.97432e+07 0 1
010 2 0 9.51552e+07 9.54247e+07 9.64443e+07 9.73659e+07 0 0
011 2 1 1.07166e+08 1.07422e+08 1.08442e+08 1.08872e+08 1 1
012 2 1 1.14404e+08 1.14655e+08 1.15675e+08 1.16587e+08 0 1
013 1 0 1.34978e+08 1.35233e+08 1.36252e+08 1.3697e+08 0 1
014 1 0 1.39694e+08 1.39952e+08 1.40972e+08 1.41509e+08 0 1
015 2 1 1.44866e+08 1.45119e+08 1.46139e+08 1.46268e+08 0 1
016 1 0 1.50292e+08 1.50551e+08 1.51571e+08 1.52041e+08 0 1
017 1 0 1.5891e+08 1.59173e+08 1.60192e+08 1.60803e+08 0 1
018 2 1 1.63817e+08 1.64071e+08 1.6509e+08 1.65633e+08 0 1
019 2 1 1.83997e+08 1.84256e+08 1.85275e+08 1.85683e+08 0 1
020 1 0 1.88336e+08 1.88591e+08 1.89611e+08 1.90117e+08 0 1
021 1 1 1.94116e+08 1.94376e+08 1.95396e+08 1.95911e+08 0 0
022 1 1 2.03148e+08 2.03398e+08 2.04417e+08 2.04701e+08 1 0
023 1 0 2.13185e+08 2.13441e+08 2.1446e+08 2.1449e+08 1 1
024 2 1 2.2342e+08 2.23679e+08 2.24699e+08 2.2525e+08 0 1
025 2 1 2.2884e+08 2.29096e+08 2.30116e+08 2.30829e+08 0 1
026 1 0 2.54589e+08 2.54844e+08 2.55864e+08 2.55883e+08 0 1
027 1 0 2.62059e+08 2.62323e+08 2.63342e+08 2.63703e+08 0 1
028 1 0 2.66655e+08 2.66908e+08 2.67928e+08 2.68042e+08 0 1
029 1 0 2.75784e+08 2.7604e+08 2.77059e+08 2.77339e+08 0 1
030 2 1 2.87905e+08 2.88164e+08 2.89184e+08 2.90674e+08 0 1
031 2 1 2.94733e+08 2.94978e+08 2.95997e+08 2.96552e+08 0 1
032 2 1 3.05096e+08 3.05351e+08 3.06371e+08 3.07169e+08 0 1
033 1 0 3.13868e+08 3.14123e+08 3.15142e+08 3.15707e+08 0 1
034 1 0 3.18491e+08 3.18754e+08 3.19773e+08 3.19885e+08 0 1
035 1 0 3.25551e+08 3.25801e+08 3.26821e+08 3.27276e+08 0 1
036 1 1 3.29898e+08 3.30158e+08 3.31177e+08 3.31612e+08 0 0
037 1 1 3.39685e+08 3.39942e+08 3.40961e+08 3.41049e+08 1 0
038 1 0 3.49575e+08 3.49831e+08 3.50851e+08 3.5108e+08 1 1
039 1 1 3.60732e+08 3.60983e+08 3.62003e+08 3.62153e+08 0 0
040 1 1 3.69737e+08 3.6999e+08 3.71009e+08 3.71716e+08 1 0
041 1 0 3.81998e+08 3.82245e+08 3.83265e+08 3.8331e+08 1 1
042 1 1 3.94905e+08 3.9516e+08 3.96179e+08 3.96592e+08 0 0
043 1 0 4.1035e+08 4.1061e+08 4.11629e+08 4.11918e+08 1 1
044 2 1 4.14857e+08 4.1511e+08 4.16129e+08 4.17377e+08 0 1
045 2 1 4.36574e+08 4.36841e+08 4.37861e+08 4.39576e+08 0 1
046 1 1 4.47845e+08 4.48106e+08 4.49125e+08 4.49174e+08 0 0
047 1 0 4.56708e+08 4.56961e+08 4.57981e+08 4.58038e+08 1 1
048 2 0 4.64722e+08 4.64989e+08 4.66008e+08 4.66032e+08 0 0
049 2 1 4.73462e+08 4.73723e+08 4.74743e+08 4.74914e+08 1 1
050 1 0 4.79372e+08 4.79629e+08 4.80648e+08 4.80826e+08 0 1
051 1 0 4.86249e+08 4.86506e+08 4.87526e+08 4.87533e+08 0 1
052 2 1 4.94542e+08 4.94807e+08 4.95826e+08 4.96028e+08 0 1
053 1 0 5.04295e+08 5.04548e+08 5.05568e+08 5.06866e+08 0 1
054 2 1 5.10163e+08 5.10425e+08 5.11445e+08 5.11559e+08 0 1
055 2 1 5.15335e+08 5.15588e+08 5.16608e+08 5.17818e+08 0 1
056 2 1 5.3509e+08 5.35344e+08 5.36364e+08 5.36659e+08 0 1
057 2 1 5.42419e+08 5.42673e+08 5.43692e+08 5.43703e+08 0 1
058 1 0 5.52029e+08 5.52285e+08 5.53305e+08 5.53534e+08 0 1
059 1 0 5.59686e+08 5.59939e+08 5.60958e+08 5.61028e+08 0 1
060 1 0 5.639e+08 5.64153e+08 5.65173e+08 5.65959e+08 0 1
061 2 1 5.68692e+08 5.68945e+08 5.69964e+08 5.70284e+08 0 1
062 2 0 5.72946e+08 5.73207e+08 5.74226e+08 5.74673e+08 0 0
063 2 0 5.84719e+08 5.84973e+08 5.85992e+08 5.86025e+08 1 0
064 2 0 5.93093e+08 5.93352e+08 5.94372e+08 5.95504e+08 1 0
065 2 1 6.0578e+08 6.06035e+08 6.07055e+08 6.07425e+08 1 1
066 1 0 6.31734e+08 6.31994e+08 6.33013e+08 6.33114e+08 0 1
067 1 0 6.46948e+08 6.47198e+08 6.48218e+08 6.48538e+08 0 1
068 2 1 6.54912e+08 6.55176e+08 6.56196e+08 6.58115e+08 0 1
069 2 1 6.67547e+08 6.678e+08 6.6882e+08 6.69472e+08 0 1
070 1 0 6.7963e+08 6.79888e+08 6.80907e+08 6.80975e+08 0 1
071 2 1 6.88354e+08 6.88606e+08 6.89625e+08 6.90803e+08 0 1
072 2 1 6.97235e+08 6.9749e+08 6.9851e+08 7.03782e+08 0 1
073 1 0 7.06403e+08 7.06666e+08 7.07686e+08 7.07954e+08 0 1
074 1 0 7.10611e+08 7.10877e+08 7.11897e+08 7.12111e+08 0 1
075 1 0 7.14953e+08 7.1521e+08 7.1623e+08 7.1625e+08 0 1
076 1 1 7.24274e+08 7.24527e+08 7.25547e+08 7.27589e+08 0 0
077 1 0 7.34743e+08 7.34996e+08 7.36015e+08 7.36827e+08 1 1
078 2 0 7.39352e+08 7.39611e+08 7.4063e+08 7.41422e+08 0 0
079 2 1 7.49657e+08 7.49911e+08 7.50931e+08 7.52442e+08 1 1
080 2 1 7.55094e+08 7.55345e+08 7.56365e+08 7.58289e+08 0 1
081 2 1 7.60892e+08 7.61152e+08 7.62172e+08 7.64007e+08 0 1
082 1 0 7.69074e+08 7.69334e+08 7.70353e+08 7.70467e+08 0 1
083 1 0 7.76331e+08 7.76597e+08 7.77616e+08 7.77637e+08 0 1
084 1 0 7.80484e+08 7.80744e+08 7.81764e+08 7.82006e+08 0 1
085 2 1 7.8772e+08 7.87976e+08 7.88996e+08 7.89457e+08 0 1
086 1 0 7.95294e+08 7.9555e+08 7.96569e+08 7.9704e+08 0 1
087 2 0 7.99738e+08 7.99988e+08 8.01008e+08 8.01333e+08 0 0
088 2 1 8.08776e+08 8.09027e+08 8.10046e+08 8.10501e+08 1 1
089 1 0 8.13426e+08 8.13681e+08 8.147e+08 8.14715e+08 0 1
090 2 1 8.24194e+08 8.24456e+08 8.25476e+08 8.27887e+08 0 1
091 2 1 8.32809e+08 8.33067e+08 8.34087e+08 8.34774e+08 0 1
092 2 1 8.41185e+08 8.41444e+08 8.42463e+08 8.42552e+08 0 1
093 1 0 8.45044e+08 8.45299e+08 8.46319e+08 8.46727e+08 0 1
094 2 1 8.54326e+08 8.54581e+08 8.55601e+08 8.5679e+08 0 1
095 2 1 8.59521e+08 8.59786e+08 8.60806e+08 8.67032e+08 0 1
096 2 1 8.69578e+08 8.69831e+08 8.7085e+08 8.74912e+08 0 1
097 1 0 8.77607e+08 8.77859e+08 8.78879e+08 8.78896e+08 0 1
098 1 0 8.89054e+08 8.89303e+08 8.90322e+08 8.90328e+08 0 1
099 1 0 8.95313e+08 8.95578e+08 8.96598e+08 8.96813e+08 0 1
100 2 1 9.00709e+08 9.00955e+08 9.01975e+08 9.02462e+08 0 1
101 2 1 9.05836e+08 9.06088e+08 9.07108e+08 9.08679e+08 0 1
102 2 1 9.13743e+08 9.14007e+08 9.15026e+08 9.15607e+08 0 1
103 2 1 9.18465e+08 9.18718e+08 9.19738e+08 9.24377e+08 0 1
104 2 1 9.28272e+08 9.28521e+08 9.29541e+08 9.33446e+08 0 1
105 1 1 9.36076e+08 9.36332e+08 9.37351e+08 9.37564e+08 0 0
106 1 1 9.44955e+08 9.4521e+08 9.4623e+08 9.50774e+08 1 0
107 1 0 9.58924e+08 9.59199e+08 9.60218e+08 9.6063e+08 1 1
108 1 0 9.6352e+08 9.63778e+08 9.64797e+08 9.64987e+08 0 1
109 1 0 9.70626e+08 9.70889e+08 9.71909e+08 9.72781e+08 0 1
110 2 1 9.75836e+08 9.76089e+08 9.77109e+08 9.78262e+08 0 1
111 2 1 9.83369e+08 9.83627e+08 9.84647e+08 9.85587e+08 0 1
112 2 1 9.89769e+08 9.90021e+08 9.9104e+08 9.91507e+08 0 1
113 1 0 9.94247e+08 9.94509e+08 9.95529e+08 9.95833e+08 0 1
114 1 1 9.98491e+08 9.98748e+08 9.99768e+08 1.002e+09 0 0
115 1 1 1.0093e+09 1.00956e+09 1.01058e+09 1.01097e+09 1 0
116 1 1 1.01919e+09 1.01944e+09 1.02046e+09 1.02365e+09 1 0
117 1 0 1.03083e+09 1.03109e+09 1.03211e+09 1.03214e+09 1 1
118 2 1 1.04196e+09 1.04222e+09 1.04324e+09 1.0434e+09 0 1
119 2 1 1.04636e+09 1.04662e+09 1.04763e+09 1.04833e+09 0 1
120 1 0 1.05123e+09 1.0515e+09 1.05252e+09 1.05261e+09 0 1
121 1 0 1.05538e+09 1.05563e+09 1.05665e+09 1.05726e+09 0 1
122 1 1 1.05979e+09 1.06004e+09 1.06106e+09 1.06124e+09 0 0
123 1 0 1.07082e+09 1.07108e+09 1.0721e+09 1.07223e+09 1 1
124 1 0 1.07594e+09 1.0762e+09 1.07722e+09 1.07759e+09 0 1
125 2 1 1.0814e+09 1.08165e+09 1.08267e+09 1.08337e+09 0 1
126 1 0 1.09248e+09 1.09273e+09 1.09375e+09 1.09379e+09 0 1
127 2 1 1.10079e+09 1.10105e+09 1.10207e+09 1.10773e+09 0 1
128 1 0 1.11129e+09 1.11155e+09 1.11257e+09 1.1126e+09 0 1
129 2 0 1.11655e+09 1.1168e+09 1.11782e+09 1.11795e+09 0 0
130 2 0 1.12717e+09 1.12742e+09 1.12844e+09 1.13214e+09 1 0
131 2 1 1.1396e+09 1.13986e+09 1.14088e+09 1.14565e+09 1 1
132 1 0 1.14852e+09 1.14877e+09 1.14979e+09 1.15049e+09 0 1
133 1 0 1.15306e+09 1.15331e+09 1.15433e+09 1.15453e+09 0 1
134 1 0 1.15736e+09 1.15761e+09 1.15863e+09 1.15922e+09 0 1
135 1 0 1.1686e+09 1.16886e+09 1.16988e+09 1.17053e+09 0 1
136 2 0 1.18286e+09 1.18311e+09 1.18413e+09 1.18424e+09 0 0
137 2 1 1.19448e+09 1.19473e+09 1.19575e+09 1.19766e+09 1 1
138 2 1 1.20037e+09 1.20062e+09 1.20164e+09 1.2117e+09 0 1
139 1 0 1.21619e+09 1.21644e+09 1.21746e+09 1.21762e+09 0 1
140 2 0 1.22089e+09 1.22116e+09 1.22218e+09 1.22222e+09 0 0
141 2 0 1.23021e+09 1.23047e+09 1.23149e+09 1.23164e+09 1 0
142 2 1 1.2404e+09 1.24064e+09 1.24166e+09 1.24869e+09 1 1
143 2 0 1.25167e+09 1.25191e+09 1.25293e+09 1.25941e+09 0 0
144 2 1 1.2665e+09 1.26677e+09 1.26779e+09 1.273e+09 1 1
145 2 1 1.27562e+09 1.27589e+09 1.27691e+09 1.28149e+09 0 1
146 2 1 1.28429e+09 1.28454e+09 1.28556e+09 1.28957e+09 0 1
147 1 0 1.29249e+09 1.29273e+09 1.29375e+09 1.29386e+09 0 1
148 1 1 1.29692e+09 1.29717e+09 1.29819e+09 1.29902e+09 0 0
149 1 0 1.30926e+09 1.30951e+09 1.31053e+09 1.31131e+09 1 1
150 1 0 1.31442e+09 1.31468e+09 1.3157e+09 1.31571e+09 0 1
151 2 1 1.31868e+09 1.31894e+09 1.31996e+09 1.32048e+09 0 1
152 1 0 1.32314e+09 1.32339e+09 1.32441e+09 1.32443e+09 0 1
153 2 0 1.3329e+09 1.33316e+09 1.33418e+09 1.33617e+09 0 0
154 2 1 1.34476e+09 1.34501e+09 1.34603e+09 1.34615e+09 1 1
155 2 1 1.3518e+09 1.35206e+09 1.35308e+09 1.35405e+09 0 1
156 1 0 1.36342e+09 1.36367e+09 1.36468e+09 1.3647e+09 0 1
157 2 0 1.3675e+09 1.36775e+09 1.36877e+09 1.36892e+09 0 0
158 2 1 1.37814e+09 1.37841e+09 1.37943e+09 1.37959e+09 1 1
159 2 1 1.38935e+09 1.3896e+09 1.39062e+09 1.39065e+09 0 1
160 1 1 1.39329e+09 1.39355e+09 1.39457e+09 1.39481e+09 0 0
161 1 1 1.40318e+09 1.40344e+09 1.40446e+09 1.4045e+09 1 0
162 1 0 1.41278e+09 1.41302e+09 1.41404e+09 1.4141e+09 1 1
163 2 0 1.42362e+09 1.42388e+09 1.4249e+09 1.42672e+09 0 0
164 2 1 1.43407e+09 1.43431e+09 1.43533e+09 1.43549e+09 1 1
165 2 1 1.43974e+09 1.43999e+09 1.44101e+09 1.44138e+09 0 1
166 2 0 1.44397e+09 1.44424e+09 1.44526e+09 1.44528e+09 0 0
167 2 1 1.45372e+09 1.45397e+09 1.45499e+09 1.45639e+09 1 1
168 1 0 1.46354e+09 1.4638e+09 1.46482e+09 1.46484e+09 0 1
169 2 0 1.4677e+09 1.46796e+09 1.46898e+09 1.4691e+09 0 0
170 2 1 1.47785e+09 1.47811e+09 1.47913e+09 1.48119e+09 1 1
171 2 1 1.4839e+09 1.48415e+09 1.48517e+09 1.48797e+09 0 1
172 1 1 1.49482e+09 1.49508e+09 1.4961e+09 1.49614e+09 0 0
173 1 1 1.50484e+09 1.5051e+09 1.50612e+09 1.50619e+09 1 0
174 1 1 1.51682e+09 1.51709e+09 1.51811e+09 1.51852e+09 1 0
175 1 0 1.52837e+09 1.52862e+09 1.52964e+09 1.52966e+09 1 1
176 1 0 1.53254e+09 1.53279e+09 1.53381e+09 1.53387e+09 0 1
177 1 1 1.53951e+09 1.53976e+09 1.54078e+09 1.54092e+09 0 0
178 1 1 1.55241e+09 1.55268e+09 1.5537e+09 1.55373e+09 1 0
179 1 0 1.56088e+09 1.56113e+09 1.56215e+09 1.56267e+09 1 1
180 2 1 1.57053e+09 1.57077e+09 1.57179e+09 1.57288e+09 0 1
181 2 1 1.57576e+09 1.57602e+09 1.57704e+09 1.5854e+09 0 1
182 1 0 1.58811e+09 1.58837e+09 1.58939e+09 1.58975e+09 0 1
183 2 1 1.59406e+09 1.59431e+09 1.59533e+09 1.5963e+09 0 1
184 2 0 1.59884e+09 1.59909e+09 1.60011e+09 1.60033e+09 0 0
185 2 1 1.60858e+09 1.60883e+09 1.60985e+09 1.61178e+09 1 1
186 1 0 1.61469e+09 1.61494e+09 1.61596e+09 1.61597e+09 0 1
187 1 0 1.61947e+09 1.61972e+09 1.62074e+09 1.62105e+09 0 1
188 2 1 1.62861e+09 1.62885e+09 1.62987e+09 1.63013e+09 0 1
189 2 1 1.63274e+09 1.633e+09 1.63402e+09 1.63406e+09 0 1
190 1 1 1.63698e+09 1.63724e+09 1.63826e+09 1.63837e+09 0 0
191 1 0 1.64862e+09 1.64887e+09 1.64989e+09 1.65007e+09 1 1
192 2 1 1.66023e+09 1.66049e+09 1.66151e+09 1.66296e+09 0 1
193 2 1 1.67151e+09 1.67176e+09 1.67278e+09 1.67617e+09 0 1
194 2 1 1.67909e+09 1.67936e+09 1.68038e+09 1.68446e+09 0 1
195 2 1 1.68708e+09 1.68734e+09 1.68836e+09 1.68956e+09 0 1
196 2 1 1.69209e+09 1.69234e+09 1.69336e+09 1.70103e+09 0 1
197 2 1 1.70357e+09 1.70383e+09 1.70485e+09 1.70809e+09 0 1
198 1 1 1.7106e+09 1.71085e+09 1.71187e+09 1.72062e+09 0 0
199 1 1 1.72824e+09 1.72849e+09 1.72951e+09 1.72961e+09 1 0
200 1 1 1.73679e+09 1.73706e+09 1.73808e+09 1.7384e+09 1 0
201 1 1 1.74625e+09 1.7465e+09 1.74752e+09 1.74756e+09 1 0
202 1 0 1.75495e+09 1.7552e+09 1.75622e+09 1.75624e+09 0 1
203 2 0 1.76283e+09 1.76308e+09 1.7641e+09 1.76483e+09 0 0
204 2 0 1.77412e+09 1.77437e+09 1.77539e+09 1.77543e+09 1 0
205 2 1 1.79191e+09 1.79216e+09 1.79318e+09 1.79345e+09 1 1
206 1 0 1.80087e+09 1.80114e+09 1.80215e+09 1.80239e+09 0 1
207 2 0 1.80757e+09 1.80782e+09 1.80884e+09 1.80935e+09 0 0
208 2 1 1.81965e+09 1.81991e+09 1.82093e+09 1.82094e+09 1 1
209 2 0 1.83465e+09 1.83491e+09 1.83593e+09 1.83604e+09 0 0
210 2 1 1.84553e+09 1.84579e+09 1.84681e+09 1.84907e+09 1 1
211 2 1 1.85163e+09 1.85187e+09 1.85289e+09 1.85347e+09 0 1
212 1 0 1.85602e+09 1.85627e+09 1.85729e+09 1.8574e+09 0 1
213 1 0 1.86089e+09 1.86115e+09 1.86217e+09 1.86237e+09 0 1
214 1 1 1.86508e+09 1.86533e+09 1.86635e+09 1.86651e+09 0 0
215 1 1 1.87405e+09 1.87429e+09 1.87531e+09 1.87541e+09 1 0
216 1 0 1.88485e+09 1.8851e+09 1.88612e+09 1.88627e+09 1 1
217 1 1 1.89118e+09 1.89143e+09 1.89245e+09 1.89249e+09 0 0
218 1 0 1.90181e+09 1.90208e+09 1.90309e+09 1.90311e+09 1 1
219 2 1 1.90632e+09 1.90657e+09 1.90759e+09 1.90862e+09 0 1
220 1 0 1.91208e+09 1.91233e+09 1.91335e+09 1.91375e+09 0 1
221 2 1 1.91659e+09 1.91684e+09 1.91786e+09 1.91846e+09 0 1
222 1 0 1.9291e+09 1.92936e+09 1.93038e+09 1.93068e+09 0 1
223 1 1 1.93383e+09 1.93409e+09 1.93511e+09 1.93512e+09 0 0
224 1 1 1.94294e+09 1.94319e+09 1.94421e+09 1.94455e+09 1 0
225 1 0 1.95469e+09 1.95494e+09 1.95596e+09 1.95609e+09 1 1
226 2 1 1.95904e+09 1.9593e+09 1.96032e+09 1.96041e+09 0 1
227 1 0 1.96972e+09 1.96997e+09 1.97099e+09 1.97101e+09 0 1
228 1 1 1.97929e+09 1.97954e+09 1.98056e+09 1.98072e+09 0 0
229 1 1 1.9878e+09 1.98806e+09 1.98908e+09 1.99772e+09 1 0
230 1 0 2.00605e+09 2.00631e+09 2.00733e+09 2.00747e+09 1 1
231 1 1 2.01035e+09 2.01062e+09 2.01163e+09 2.01196e+09 0 0
232 1 0 2.02162e+09 2.02187e+09 2.02289e+09 2.02312e+09 1 1
233 1 0 2.03015e+09 2.03041e+09 2.03143e+09 2.03205e+09 0 1
234 2 1 2.03879e+09 2.03905e+09 2.04007e+09 2.04204e+09 0 1
235 2 1 2.0448e+09 2.04507e+09 2.04609e+09 2.04634e+09 0 1
236 2 0 2.05224e+09 2.05249e+09 2.05351e+09 2.05376e+09 0 0
237 2 1 2.06197e+09 2.06222e+09 2.06324e+09 2.08175e+09 1 1
238 1 0 2.08426e+09 2.08453e+09 2.08555e+09 2.08578e+09 0 1
239 1 0 2.09111e+09 2.09137e+09 2.09239e+09 2.09256e+09 0 1
240 1 0 2.09532e+09 2.09558e+09 2.0966e+09 2.097e+09 0 1
241 1 0 2.10003e+09 2.10028e+09 2.1013e+09 2.10132e+09 0 1
242 1 0 2.10684e+09 2.10709e+09 2.10811e+09 2.10831e+09 0 1
243 2 1 2.1222e+09 2.12246e+09 2.12348e+09 2.1235e+09 0 1
244 2 1 2.126e+09 2.12625e+09 2.12727e+09 2.12793e+09 0 1
245 1 0 2.13715e+09 2.13741e+09 2.13843e+09 2.13845e+09 0 1
246 1 0 2.14149e+09 2.14175e+09 2.14277e+09 2.14279e+09 0 1
247 1 0 2.14914e+09 2.14938e+09 2.1504e+09 2.15049e+09 0 1
248 1 0 2.1531e+09 2.15335e+09 2.15437e+09 2.15467e+09 0 1
249 2 0 2.15743e+09 2.15769e+09 2.15871e+09 2.16005e+09 0 0
250 2 1 2.16996e+09 2.17022e+09 2.17124e+09 2.17125e+09 1 1
251 2 1 2.17412e+09 2.17438e+09 2.1754e+09 2.17624e+09 0 1
252 1 1 2.17892e+09 2.17918e+09 2.1802e+09 2.18044e+09 0 0
253 1 0 2.18839e+09 2.18865e+09 2.18967e+09 2.18984e+09 1 1
254 1 1 2.19887e+09 2.19911e+09 2.20013e+09 2.20049e+09 0 0
255 1 0 2.21113e+09 2.21139e+09 2.21241e+09 2.21252e+09 1 1
256 2 1 2.22068e+09 2.22094e+09 2.22196e+09 2.22206e+09 0 1
257 2 0 2.22679e+09 2.22706e+09 2.22808e+09 2.22828e+09 0 0
258 2 1 2.23846e+09 2.23871e+09 2.23973e+09 2.24135e+09 1 1
259 1 0 2.24429e+09 2.24455e+09 2.24557e+09 2.24579e+09 0 1
260 1 1 2.25069e+09 2.25094e+09 2.25196e+09 2.25202e+09 0 0
261 1 0 2.26222e+09 2.26249e+09 2.26351e+09 2.26377e+09 1 1
262 1 0 2.26656e+09 2.26682e+09 2.26784e+09 2.26786e+09 0 1
263 2 0 2.27285e+09 2.27311e+09 2.27413e+09 2.27435e+09 0 0
264 2 1 2.2854e+09 2.28566e+09 2.28668e+09 2.28858e+09 1 1
265 2 1 2.29447e+09 2.29472e+09 2.29574e+09 2.29673e+09 0 1
266 2 1 2.30259e+09 2.30284e+09 2.30386e+09 2.30594e+09 0 1
267 2 0 2.31291e+09 2.31318e+09 2.3142e+09 2.31475e+09 0 0
268 2 1 2.32204e+09 2.3223e+09 2.32332e+09 2.32336e+09 1 1
269 2 1 2.32873e+09 2.32899e+09 2.33001e+09 2.33191e+09 0 1
270 1 0 2.33663e+09 2.33688e+09 2.3379e+09 2.33812e+09 0 1
271 1 1 2.34135e+09 2.3416e+09 2.34262e+09 2.34283e+09 0 0
272 1 0 2.35317e+09 2.35342e+09 2.35444e+09 2.35449e+09 1 1
273 2 0 2.36656e+09 2.36683e+09 2.36785e+09 2.3693e+09 0 0
274 2 0 2.37692e+09 2.37718e+09 2.3782e+09 2.39141e+09 1 0
275 2 0 2.39978e+09 2.40004e+09 2.40106e+09 2.40111e+09 1 0
276 2 1 2.40824e+09 2.4085e+09 2.40952e+09 2.41053e+09 1 1
277 2 0 2.41319e+09 2.41345e+09 2.41447e+09 2.41461e+09 0 0
278 2 1 2.42411e+09 2.42436e+09 2.42538e+09 2.42547e+09 1 1
279 1 0 2.42804e+09 2.42829e+09 2.42931e+09 2.42972e+09 0 1
280 1 1 2.43239e+09 2.43264e+09 2.43366e+09 2.43372e+09 0 0
281 1 1 2.44276e+09 2.44301e+09 2.44403e+09 2.44417e+09 1 0
282 1 0 2.45228e+09 2.45255e+09 2.45357e+09 2.45376e+09 1 1
283 1 1 2.45794e+09 2.4582e+09 2.45922e+09 2.45936e+09 0 0
284 1 0 2.4686e+09 2.46887e+09 2.46989e+09 2.46991e+09 1 1
285 2 1 2.47243e+09 2.47268e+09 2.4737e+09 2.47467e+09 0 1
286 1 0 2.48339e+09 2.48365e+09 2.48467e+09 2.48533e+09 0 1
287 1 0 2.48962e+09 2.48987e+09 2.49089e+09 2.4909e+09 0 1
288 1 0 2.50225e+09 2.5025e+09 2.50352e+09 2.50356e+09 0 1
289 2 1 2.50729e+09 2.50756e+09 2.50858e+09 2.5104e+09 0 1
290 1 0 2.52171e+09 2.52196e+09 2.52298e+09 2.523e+09 0 1
291 1 0 2.52618e+09 2.52643e+09 2.52745e+09 2.52825e+09 0 1
292 1 0 2.53431e+09 2.53457e+09 2.53559e+09 2.53573e+09 0 1
293 1 1 2.54468e+09 2.54493e+09 2.54595e+09 2.54597e+09 0 0
294 1 0 2.5541e+09 2.55436e+09 2.55538e+09 2.55567e+09 1 1
295 2 0 2.56311e+09 2.56337e+09 2.56439e+09 2.56608e+09 0 0
296 2 1 2.5744e+09 2.57465e+09 2.57567e+09 2.57787e+09 1 1
297 1 1 2.58066e+09 2.58091e+09 2.58193e+09 2.58234e+09 0 0
298 1 1 2.58978e+09 2.59003e+09 2.59105e+09 2.5911e+09 1 0
299 1 1 2.60072e+09 2.60097e+09 2.60199e+09 2.60228e+09 1 0
300 1 1 2.61056e+09 2.61081e+09 2.61183e+09 2.61614e+09 1 0
301 2 1 2.62329e+09 2.62354e+09 2.62455e+09 2.63533e+09 0 1
302 2 1 2.63806e+09 2.63831e+09 2.63933e+09 2.64679e+09 0 1
303 1 0 2.64967e+09 2.64992e+09 2.65094e+09 2.65103e+09 0 1
304 1 1 2.6539e+09 2.65417e+09 2.65519e+09 2.65533e+09 0 0
305 1 0 2.66313e+09 2.66339e+09 2.6644e+09 2.66485e+09 1 1
306 1 0 2.67416e+09 2.67443e+09 2.67545e+09 2.67556e+09 0 1
307 2 1 2.6833e+09 2.68355e+09 2.68457e+09 2.68506e+09 0 1
308 1 0 2.68786e+09 2.68812e+09 2.68914e+09 2.68919e+09 0 1
309 1 0 2.69529e+09 2.69555e+09 2.69657e+09 2.69696e+09 0 1
310 1 0 2.70039e+09 2.70064e+09 2.70166e+09 2.70178e+09 0 1
311 2 1 2.70672e+09 2.70698e+09 2.708e+09 2.70982e+09 0 1
312 1 0 2.71315e+09 2.7134e+09 2.71442e+09 2.71454e+09 0 1
313 1 0 2.71713e+09 2.7174e+09 2.71842e+09 2.7195e+09 0 1
314 1 1 2.7221e+09 2.72236e+09 2.72338e+09 2.7245e+09 0 0
315 1 0 2.73207e+09 2.73232e+09 2.73334e+09 2.73406e+09 1 1
316 2 0 2.73686e+09 2.73712e+09 2.73814e+09 2.73816e+09 0 0
317 2 1 2.7479e+09 2.74815e+09 2.74917e+09 2.74995e+09 1 1
318 2 1 2.75267e+09 2.75291e+09 2.75393e+09 2.75518e+09 0 1
319 1 0 2.76607e+09 2.76633e+09 2.76735e+09 2.76736e+09 0 1
320 2 1 2.77e+09 2.77026e+09 2.77128e+09 2.77154e+09 0 1
321 2 1 2.77438e+09 2.77463e+09 2.77565e+09 2.77653e+09 0 1
322 2 1 2.78053e+09 2.78079e+09 2.78181e+09 2.78256e+09 0 1
323 2 1 2.78523e+09 2.78547e+09 2.78649e+09 2.78758e+09 0 1
324 2 1 2.79388e+09 2.79414e+09 2.79516e+09 2.79654e+09 0 1
325 1 0 2.7993e+09 2.79956e+09 2.80058e+09 2.80089e+09 0 1
326 1 1 2.80791e+09 2.80816e+09 2.80918e+09 2.80921e+09 0 0
327 1 0 2.81637e+09 2.81663e+09 2.81765e+09 2.81807e+09 1 1
328 2 1 2.82224e+09 2.82249e+09 2.82351e+09 2.82353e+09 0 1
329 2 1 2.82659e+09 2.82685e+09 2.82787e+09 2.8279e+09 0 1
330 2 1 2.83915e+09 2.8394e+09 2.84042e+09 2.84159e+09 0 1
331 2 0 2.84621e+09 2.84645e+09 2.84747e+09 2.84749e+09 0 0
332 2 0 2.85578e+09 2.85604e+09 2.85706e+09 2.85895e+09 1 0
333 2 0 2.86981e+09 2.87006e+09 2.87108e+09 2.87238e+09 1 0
334 2 1 2.88446e+09 2.88473e+09 2.88575e+09 2.88579e+09 1 1
335 1 0 2.88869e+09 2.88895e+09 2.88997e+09 2.89018e+09 0 1
336 1 0 2.89812e+09 2.89838e+09 2.8994e+09 2.90013e+09 0 1
337 1 0 2.90291e+09 2.90317e+09 2.90419e+09 2.9042e+09 0 1
338 1 0 2.90718e+09 2.90745e+09 2.90847e+09 2.90856e+09 0 1
339 2 1 2.91149e+09 2.91175e+09 2.91277e+09 2.91435e+09 0 1
340 2 1 2.92622e+09 2.92648e+09 2.9275e+09 2.92768e+09 0 1
341 2 1 2.94439e+09 2.94465e+09 2.94567e+09 2.94583e+09 0 1
342 1 0 2.94867e+09 2.94892e+09 2.94994e+09 2.9503e+09 0 1
343 2 1 2.9533e+09 2.95355e+09 2.95457e+09 2.95544e+09 0 1
344 2 1 2.96151e+09 2.96176e+09 2.96278e+09 2.96367e+09 0 1
345 2 0 2.96676e+09 2.96702e+09 2.96804e+09 2.96805e+09 0 0
346 2 0 2.97612e+09 2.97638e+09 2.9774e+09 2.97788e+09 1 0
347 2 0 2.98492e+09 2.98517e+09 2.98619e+09 2.98647e+09 1 0
348 2 1 2.99408e+09 2.99434e+09 2.99536e+09 2.9958e+09 1 1
349 2 0 2.99865e+09 2.99891e+09 2.99993e+09 2.99997e+09 0 0
350 2 1 3.00735e+09 3.00761e+09 3.00863e+09 3.01015e+09 1 1
351 2 1 3.01433e+09 3.01458e+09 3.0156e+09 3.01564e+09 0 1
352 1 1 3.01827e+09 3.01853e+09 3.01955e+09 3.01994e+09 0 0
353 1 0 3.0283e+09 3.02854e+09 3.02956e+09 3.02957e+09 1 1
354 1 0 3.03247e+09 3.03275e+09 3.03376e+09 3.03378e+09 0 1
355 1 0 3.04404e+09 3.04429e+09 3.04531e+09 3.04553e+09 0 1
356 1 0 3.04848e+09 3.04874e+09 3.04976e+09 3.04978e+09 0 1
357 1 1 3.05945e+09 3.05971e+09 3.06073e+09 3.06075e+09 0 0
358 1 0 3.07076e+09 3.07102e+09 3.07204e+09 3.07217e+09 1 1
359 2 1 3.07578e+09 3.07604e+09 3.07705e+09 3.07761e+09 0 1
360 1 0 3.08477e+09 3.08503e+09 3.08605e+09 3.08653e+09 0 1
361 1 0 3.08913e+09 3.08938e+09 3.09039e+09 3.09049e+09 0 1
362 2 0 3.09499e+09 3.09525e+09 3.09627e+09 3.09667e+09 0 0
363 2 1 3.10412e+09 3.10438e+09 3.1054e+09 3.10694e+09 1 1
364 1 0 3.11613e+09 3.11638e+09 3.1174e+09 3.11744e+09 0 1
365 2 1 3.12312e+09 3.12338e+09 3.1244e+09 3.1259e+09 0 1
366 2 1 3.13209e+09 3.13235e+09 3.13337e+09 3.13972e+09 0 1
367 1 1 3.14251e+09 3.14276e+09 3.14378e+09 3.14382e+09 0 0
368 1 0 3.15112e+09 3.15138e+09 3.1524e+09 3.15274e+09 1 1
369 1 0 3.15622e+09 3.15649e+09 3.15751e+09 3.1576e+09 0 1
370 2 1 3.16527e+09 3.16554e+09 3.16656e+09 3.16934e+09 0 1
371 2 1 3.17558e+09 3.17584e+09 3.17686e+09 3.17804e+09 0 1
372 2 1 3.18067e+09 3.18093e+09 3.18195e+09 3.18477e+09 0 1
373 2 1 3.1884e+09 3.18865e+09 3.18967e+09 3.20311e+09 0 1
374 2 0 3.20602e+09 3.20626e+09 3.20728e+09 3.24293e+09 0 0
375 2 0 3.25125e+09 3.25151e+09 3.25253e+09 3.25297e+09 1 0
376 2 1 3.26611e+09 3.26636e+09 3.26738e+09 3.26841e+09 1 1
377 1 0 3.27698e+09 3.27723e+09 3.27825e+09 3.27844e+09 0 1
378 1 0 3.28153e+09 3.28179e+09 3.28281e+09 3.28284e+09 0 1
379 2 1 3.28657e+09 3.28684e+09 3.28786e+09 3.28816e+09 0 1
380 1 0 3.29606e+09 3.29631e+09 3.29733e+09 3.29755e+09 0 1
381 2 1 3.30055e+09 3.30082e+09 3.30183e+09 3.30344e+09 0 1
382 2 0 3.30608e+09 3.30633e+09 3.30735e+09 3.30781e+09 0 0
383 2 1 3.31706e+09 3.31731e+09 3.31833e+09 3.31972e+09 1 1
384 1 1 3.32492e+09 3.32517e+09 3.32619e+09 3.32628e+09 0 0
385 1 1 3.33494e+09 3.33519e+09 3.33621e+09 3.33901e+09 1 0
386 1 0 3.34627e+09 3.34652e+09 3.34754e+09 3.34993e+09 1 1
387 1 0 3.3534e+09 3.35365e+09 3.35467e+09 3.3549e+09 0 1
388 2 0 3.36354e+09 3.36381e+09 3.36483e+09 3.36485e+09 0 0
389 2 1 3.37228e+09 3.37253e+09 3.37355e+09 3.38115e+09 1 1
390 2 0 3.38371e+09 3.38395e+09 3.38497e+09 3.3851e+09 0 0
391 2 1 3.39217e+09 3.39243e+09 3.39345e+09 3.3957e+09 1 1
392 1 0 3.39851e+09 3.39876e+09 3.39978e+09 3.39994e+09 0 1
393 1 0 3.40322e+09 3.40347e+09 3.40449e+09 3.40473e+09 0 1
394 1 0 3.40742e+09 3.40767e+09 3.40869e+09 3.40872e+09 0 1
395 1 1 3.41173e+09 3.41198e+09 3.413e+09 3.41328e+09 0 0
396 1 0 3.42174e+09 3.42199e+09 3.42301e+09 3.42309e+09 1 1
397 2 1 3.42687e+09 3.42712e+09 3.42814e+09 3.42815e+09 0 1
398 2 1 3.43231e+09 3.43256e+09 3.43358e+09 3.43514e+09 0 1
399 2 1 3.43803e+09 3.43829e+09 3.43931e+09 3.44088e+09 0 1
400 2 1 3.44634e+09 3.44659e+09 3.44761e+09 3.44773e+09 0 1
401 2 1 3.45031e+09 3.45057e+09 3.45159e+09 3.45266e+09 0 1
402 2 1 3.45721e+09 3.45747e+09 3.45849e+09 3.46079e+09 0 1
403 1 0 3.46576e+09 3.46602e+09 3.46704e+09 3.46714e+09 0 1
404 1 0 3.47303e+09 3.47328e+09 3.4743e+09 3.47431e+09 0 1
405 2 1 3.48065e+09 3.48091e+09 3.48193e+09 3.48233e+09 0 1
406 1 0 3.49173e+09 3.49199e+09 3.49301e+09 3.49304e+09 0 1
407 1 0 3.50422e+09 3.50448e+09 3.5055e+09 3.50551e+09 0 1
408 2 1 3.50861e+09 3.50887e+09 3.50989e+09 3.50993e+09 0 1
409 1 0 3.51252e+09 3.51278e+09 3.5138e+09 3.51382e+09 0 1
410 2 0 3.51679e+09 3.51704e+09 3.51806e+09 3.51808e+09 0 0
411 2 1 3.52879e+09 3.52904e+09 3.53006e+09 3.53007e+09 1 1
412 1 1 3.5331e+09 3.53335e+09 3.53436e+09 3.53441e+09 0 0
413 1 0 3.54167e+09 3.54193e+09 3.54295e+09 3.54299e+09 1 1
414 1 0 3.54678e+09 3.54704e+09 3.54806e+09 3.54826e+09 0 1
415 1 0 3.55141e+09 3.55166e+09 3.55268e+09 3.55302e+09 0 1
416 2 0 3.55584e+09 3.5561e+09 3.55712e+09 3.55728e+09 0 0
417 2 0 3.56454e+09 3.56479e+09 3.56581e+09 3.56652e+09 1 0
418 2 1 3.57491e+09 3.57516e+09 3.57618e+09 3.58063e+09 1 1
419 2 1 3.58483e+09 3.58509e+09 3.58611e+09 3.58847e+09 0 1
420 2 0 3.59114e+09 3.59138e+09 3.5924e+09 3.61322e+09 0 0
421 2 0 3.62278e+09 3.62302e+09 3.62404e+09 3.63014e+09 1 0
422 2 0 3.63763e+09 3.63788e+09 3.6389e+09 3.64082e+09 1 0
423 2 1 3.64941e+09 3.64966e+09 3.65068e+09 3.65438e+09 1 1
424 1 0 3.65745e+09 3.6577e+09 3.65872e+09 3.65882e+09 0 1
425 1 0 3.66249e+09 3.66274e+09 3.66376e+09 3.66377e+09 0 1
426 2 1 3.66667e+09 3.66692e+09 3.66794e+09 3.66823e+09 0 1
427 1 0 3.67299e+09 3.67324e+09 3.67426e+09 3.67434e+09 0 1
428 1 0 3.67713e+09 3.67738e+09 3.6784e+09 3.67841e+09 0 1
429 1 0 3.68256e+09 3.68282e+09 3.68384e+09 3.68397e+09 0 1
430 1 0 3.68651e+09 3.68676e+09 3.68778e+09 3.68795e+09 0 1
431 1 0 3.69053e+09 3.69078e+09 3.6918e+09 3.69204e+09 0 1
432 2 0 3.69492e+09 3.69517e+09 3.69619e+09 3.69629e+09 0 0
433 2 1 3.70523e+09 3.70549e+09 3.70651e+09 3.7066e+09 1 1
434 2 0 3.71005e+09 3.7103e+09 3.71132e+09 3.71142e+09 0 0
435 2 1 3.71959e+09 3.71985e+09 3.72087e+09 3.72264e+09 1 1
436 2 1 3.72616e+09 3.72641e+09 3.72743e+09 3.72874e+09 0 1
437 1 0 3.73148e+09 3.73173e+09 3.73275e+09 3.73309e+09 0 1
438 2 1 3.73604e+09 3.73629e+09 3.73731e+09 3.73734e+09 0 1
439 1 0 3.74019e+09 3.74045e+09 3.74147e+09 3.74196e+09 0 1
440 2 0 3.74451e+09 3.74476e+09 3.74578e+09 3.74585e+09 0 0
441 2 1 3.7529e+09 3.75315e+09 3.75417e+09 3.75473e+09 1 1
442 2 1 3.75814e+09 3.7584e+09 3.75942e+09 3.76066e+09 0 1
443 1 0 3.77167e+09 3.77193e+09 3.77295e+09 3.77301e+09 0 1
444 2 1 3.77568e+09 3.77594e+09 3.77696e+09 3.77741e+09 0 1
445 1 0 3.78252e+09 3.78276e+09 3.78378e+09 3.78441e+09 0 1
446 1 0 3.79316e+09 3.79341e+09 3.79443e+09 3.79444e+09 0 1
447 1 0 3.79731e+09 3.79756e+09 3.79858e+09 3.79859e+09 0 1
448 1 0 3.80132e+09 3.80157e+09 3.80259e+09 3.80274e+09 0 1
449 1 0 3.80555e+09 3.80581e+09 3.80683e+09 3.80697e+09 0 1
450 2 0 3.80952e+09 3.80977e+09 3.81079e+09 3.81086e+09 0 0
451 2 0 3.81972e+09 3.81997e+09 3.82099e+09 3.82423e+09 1 0
452 2 0 3.83143e+09 3.83169e+09 3.83271e+09 3.83394e+09 1 0
453 2 0 3.84152e+09 3.84177e+09 3.84279e+09 3.84333e+09 1 0
454 2 0 3.85052e+09 3.85077e+09 3.85179e+09 3.85278e+09 0 0
455 1 0 3.86141e+09 3.86166e+09 3.86268e+09 3.88693e+09 0 1
456 2 0 3.89185e+09 3.89211e+09 3.89312e+09 3.90076e+09 0 0
457 2 0 3.90824e+09 3.9085e+09 3.90952e+09 3.91048e+09 1 0
458 2 0 3.91903e+09 3.9193e+09 3.92032e+09 3.93193e+09 1 0
459 2 0 3.93938e+09 3.93964e+09 3.94066e+09 3.94246e+09 1 0
460 1 0 3.94992e+09 3.95018e+09 3.9512e+09 3.9519e+09 0 1
461 2 0 3.95476e+09 3.95502e+09 3.95604e+09 3.96008e+09 0 0
462 2 0 3.96945e+09 3.9697e+09 3.97072e+09 3.98309e+09 1 0
463 2 0 3.99054e+09 3.9908e+09 3.99182e+09 3.99432e+09 1 0
464 2 0 4.00155e+09 4.00181e+09 4.00283e+09 4.00434e+09 1 0
465 1 0 4.01173e+09 4.01199e+09 4.01301e+09 4.02758e+09 0 1
466 2 0 4.03035e+09 4.0306e+09 4.03162e+09 4.04172e+09 0 0
467 2 0 4.04958e+09 4.04983e+09 4.05085e+09 4.05762e+09 1 0
468 2 0 4.0651e+09 4.06535e+09 4.06637e+09 4.0681e+09 1 0
469 2 0 4.07555e+09 4.07581e+09 4.07683e+09 4.0805e+09 1 0
470 1 0 4.08772e+09 4.08797e+09 4.08899e+09 4.09496e+09 0 1
471 2 0 4.09764e+09 4.0979e+09 4.09892e+09 4.10969e+09 0 0
472 2 0 4.11675e+09 4.117e+09 4.11802e+09 4.1246e+09 1 0
473 2 0 4.13198e+09 4.13222e+09 4.13324e+09 4.13765e+09 1 0
474 2 0 4.14504e+09 4.14528e+09 4.1463e+09 4.14733e+09 1 0
475 2 0 4.15473e+09 4.15497e+09 4.15599e+09 4.16461e+09 0 0
476 1 0 4.17217e+09 4.17242e+09 4.17344e+09 4.1839e+09 0 1
477 1 0 4.18691e+09 4.18716e+09 4.18817e+09 4.19246e+09 0 1
478 2 0 4.19536e+09 4.19562e+09 4.19664e+09 4.21312e+09 0 0
479 2 0 4.22037e+09 4.22062e+09 4.22164e+09 4.23437e+09 1 0
480 2 0 4.24381e+09 4.24407e+09 4.24509e+09 4.26406e+09 1 0
481 2 0 4.27133e+09 4.27159e+09 4.27261e+09 4.27362e+09 1 0
482 1 0 4.28077e+09 4.28102e+09 4.28204e+09 4.28506e+09 0 1
483 2 1 4.28905e+09 4.2893e+09 4.29032e+09 1.32207e+08 0 1
