trial trialType response stillTime stimOnset stimOffset respTime correctionTrial correct
001 2 1 6.87003e+06 7.18444e+06 8.20402e+06 8.57902e+06 0 1
002 1 0 1.35731e+07 1.3856e+07 1.48756e+07 1.51448e+07 0 1
003 2 1 1.99813e+07 2.0268e+07 2.12876e+07 2.13077e+07 0 1
004 2 1 2.73449e+07 2.76089e+07 2.86285e+07 2.86392e+07 0 1
005 1 0 4.17505e+07 4.20199e+07 4.30395e+07 4.30989e+07 0 1
006 1 0 4.69607e+07 4.72288e+07 4.82484e+07 4.91961e+07 0 1
007 1 0 5.1798e+07 5.20696e+07 5.30892e+07 5.33242e+07 0 1
008 1 0 5.82666e+07 5.85187e+07 5.95383e+07 5.97739e+07 0 1
009 1 0 6.82691e+07 6.85325e+07 6.95521e+07 6.96385e+07 0 1
010 1 0 7.24245e+07 7.26812e+07 7.37008e+07 7.37509e+07 0 1
011 1 0 7.93252e+07 7.95839e+07 8.06035e+07 8.06494e+07 0 1
012 2 1 8.33618e+07 8.36235e+07 8.46431e+07 8.59347e+07 0 1
013 1 1 9.18661e+07 9.21275e+07 9.31471e+07 9.33937e+07 0 0
014 1 0 1.0047e+08 1.00725e+08 1.01745e+08 1.01769e+08 1 1
015 2 1 1.21146e+08 1.21401e+08 1.2242e+08 1.23143e+08 0 1
016 2 1 1.25677e+08 1.25942e+08 1.26962e+08 1.2732e+08 0 1
017 2 1 1.30193e+08 1.30447e+08 1.31467e+08 1.3148e+08 0 1
018 1 0 1.50761e+08 1.51022e+08 1.52041e+08 1.52434e+08 0 1
019 1 0 1.62433e+08 1.62689e+08 1.63709e+08 1.63777e+08 0 1
020 1 0 1.70265e+08 1.70519e+08 1.71539e+08 1.71667e+08 0 1
021 1 0 1.74519e+08 1.74775e+08 1.75795e+08 1.75865e+08 0 1
022 2 1 1.78574e+08 1.7883e+08 1.79849e+08 1.79861e+08 0 1
023 1 0 1.8573e+08 1.85992e+08 1.87012e+08 1.87062e+08 0 1
024 2 1 1.89755e+08 1.9001e+08 1.9103e+08 1.91291e+08 0 1
025 1 0 1.96087e+08 1.96344e+08 1.97363e+08 1.97571e+08 0 1
026 2 1 2.03365e+08 2.03624e+08 2.04643e+08 2.05779e+08 0 1
027 2 1 2.08456e+08 2.08715e+08 2.09735e+08 2.09822e+08 0 1
028 2 1 2.13552e+08 2.13809e+08 2.14828e+08 2.1596e+08 0 1
029 1 0 2.26363e+08 2.2663e+08 2.2765e+08 2.27811e+08 0 1
030 1 0 2.34763e+08 2.3502e+08 2.36039e+08 2.3639e+08 0 1
031 1 0 2.40784e+08 2.41042e+08 2.42062e+08 2.42323e+08 0 1
032 2 1 2.45189e+08 2.45455e+08 2.46474e+08 2.47799e+08 0 1
033 1 0 2.50388e+08 2.5065e+08 2.5167e+08 2.51706e+08 0 1
034 1 0 2.54489e+08 2.54755e+08 2.55774e+08 2.55789e+08 0 1
035 1 0 2.60921e+08 2.61173e+08 2.62192e+08 2.62295e+08 0 1
036 1 0 2.6491e+08 2.65166e+08 2.66185e+08 2.66214e+08 0 1
037 2 1 2.71624e+08 2.71872e+08 2.72892e+08 2.73376e+08 0 1
038 2 1 2.78988e+08 2.79244e+08 2.80264e+08 2.80824e+08 0 1
039 2 1 2.84356e+08 2.84611e+08 2.8563e+08 2.8713e+08 0 1
040 2 0 2.89954e+08 2.9021e+08 2.91229e+08 2.92566e+08 0 0
041 2 1 3.01587e+08 3.01833e+08 3.02852e+08 3.03714e+08 1 1
042 1 0 3.1232e+08 3.12568e+08 3.13588e+08 3.14525e+08 0 1
043 2 1 3.26206e+08 3.26463e+08 3.27482e+08 3.27765e+08 0 1
044 2 1 3.32909e+08 3.33169e+08 3.34188e+08 3.35273e+08 0 1
045 2 0 3.43139e+08 3.43389e+08 3.44409e+08 3.45625e+08 0 0
046 2 1 3.52914e+08 3.53176e+08 3.54196e+08 3.55049e+08 1 1
047 2 1 3.5785e+08 3.58111e+08 3.59131e+08 3.59152e+08 0 1
048 2 1 3.70455e+08 3.7072e+08 3.7174e+08 3.72115e+08 0 1
049 1 0 3.79647e+08 3.79897e+08 3.80917e+08 3.8156e+08 0 1
050 2 1 3.88188e+08 3.88452e+08 3.89472e+08 3.90892e+08 0 1
051 1 0 3.9486e+08 3.95121e+08 3.9614e+08 3.96602e+08 0 1
052 2 1 3.99238e+08 3.99497e+08 4.00517e+08 4.01597e+08 0 1
053 2 1 4.04296e+08 4.0456e+08 4.0558e+08 4.05674e+08 0 1
054 2 1 4.08598e+08 4.08863e+08 4.09882e+08 4.09893e+08 0 1
055 2 1 4.21051e+08 4.21299e+08 4.22319e+08 4.23077e+08 0 1
056 1 0 4.35766e+08 4.36024e+08 4.37043e+08 4.37451e+08 0 1
057 1 0 4.43034e+08 4.433e+08 4.4432e+08 4.44715e+08 0 1
058 1 0 4.52983e+08 4.53236e+08 4.54256e+08 4.54765e+08 0 1
059 1 0 4.60471e+08 4.60715e+08 4.61734e+08 4.62101e+08 0 1
060 1 0 4.67693e+08 4.6795e+08 4.6897e+08 4.6952e+08 0 1
061 1 0 4.7231e+08 4.72573e+08 4.73593e+08 4.74058e+08 0 1
062 1 0 4.78763e+08 4.79029e+08 4.80048e+08 4.81034e+08 0 1
063 2 1 4.83662e+08 4.83922e+08 4.84942e+08 4.85276e+08 0 1
064 1 0 4.87877e+08 4.88126e+08 4.89145e+08 4.89302e+08 0 1
065 2 1 4.94736e+08 4.94984e+08 4.96003e+08 4.98376e+08 0 1
066 2 1 5.04342e+08 5.04589e+08 5.05608e+08 5.05621e+08 0 1
067 1 1 5.10845e+08 5.11089e+08 5.12109e+08 5.12125e+08 0 0
068 1 0 5.21414e+08 5.21676e+08 5.22695e+08 5.22741e+08 1 1
069 2 1 5.27732e+08 5.2799e+08 5.29009e+08 5.30233e+08 0 1
070 1 0 5.3672e+08 5.36984e+08 5.38004e+08 5.38344e+08 0 1
071 2 1 5.43565e+08 5.43815e+08 5.44835e+08 5.44854e+08 0 1
072 1 0 5.49425e+08 5.4968e+08 5.507e+08 5.50739e+08 0 1
073 2 1 5.56908e+08 5.5717e+08 5.5819e+08 5.5935e+08 0 1
074 2 1 5.63723e+08 5.63979e+08 5.64999e+08 5.66113e+08 0 1
075 1 0 5.73041e+08 5.73284e+08 5.74303e+08 5.74834e+08 0 1
076 1 0 5.77633e+08 5.77896e+08 5.78915e+08 5.79295e+08 0 1
077 2 1 5.85294e+08 5.85539e+08 5.86559e+08 5.87918e+08 0 1
078 1 0 5.93667e+08 5.93933e+08 5.94953e+08 5.94985e+08 0 1
079 1 0 6.01424e+08 6.01675e+08 6.02694e+08 6.03097e+08 0 1
080 1 0 6.08118e+08 6.08369e+08 6.09388e+08 6.09788e+08 0 1
081 2 1 6.14745e+08 6.15001e+08 6.16021e+08 6.16994e+08 0 1
082 2 1 6.19681e+08 6.19941e+08 6.20961e+08 6.2186e+08 0 1
083 1 0 6.24496e+08 6.24765e+08 6.25785e+08 6.26001e+08 0 1
084 1 0 6.31164e+08 6.31411e+08 6.32431e+08 6.32548e+08 0 1
085 2 1 6.35048e+08 6.35302e+08 6.36322e+08 6.36332e+08 0 1
086 2 1 6.41748e+08 6.42005e+08 6.43024e+08 6.44041e+08 0 1
087 2 1 6.50822e+08 6.51079e+08 6.52099e+08 6.52936e+08 0 1
088 1 0 6.59864e+08 6.6011e+08 6.61129e+08 6.61531e+08 0 1
089 1 0 6.66805e+08 6.67058e+08 6.68078e+08 6.68708e+08 0 1
090 2 1 6.71597e+08 6.71853e+08 6.72873e+08 6.72888e+08 0 1
091 2 1 6.79428e+08 6.79674e+08 6.80693e+08 6.81727e+08 0 1
092 2 1 6.84322e+08 6.84573e+08 6.85593e+08 6.85612e+08 0 1
093 1 0 6.90199e+08 6.90458e+08 6.91477e+08 6.92243e+08 0 1
094 2 0 6.95108e+08 6.95368e+08 6.96387e+08 6.96419e+08 0 0
095 2 1 7.04248e+08 7.0451e+08 7.05529e+08 7.05547e+08 1 1
096 2 1 7.08102e+08 7.08355e+08 7.09374e+08 7.09414e+08 0 1
097 2 1 7.15592e+08 7.15845e+08 7.16865e+08 7.17985e+08 0 1
098 1 0 7.22827e+08 7.23092e+08 7.24111e+08 7.24118e+08 0 1
099 2 1 7.29403e+08 7.29661e+08 7.30681e+08 7.30858e+08 0 1
100 1 0 7.37607e+08 7.37868e+08 7.38887e+08 7.39349e+08 0 1
101 2 1 7.41934e+08 7.42195e+08 7.43214e+08 7.43365e+08 0 1
102 2 1 7.49724e+08 7.49985e+08 7.51005e+08 7.51125e+08 0 1
103 2 1 7.53969e+08 7.54232e+08 7.55252e+08 7.55267e+08 0 1
104 1 0 7.58084e+08 7.58336e+08 7.59355e+08 7.59863e+08 0 1
105 1 0 7.68009e+08 7.68257e+08 7.69277e+08 7.69462e+08 0 1
106 1 0 7.7601e+08 7.76262e+08 7.77281e+08 7.77304e+08 0 1
107 2 1 7.8245e+08 7.82713e+08 7.83733e+08 7.84943e+08 0 1
108 2 1 7.8783e+08 7.8809e+08 7.89109e+08 7.89891e+08 0 1
109 1 0 7.92651e+08 7.92915e+08 7.93934e+08 7.9409e+08 0 1
110 2 1 8.02864e+08 8.03122e+08 8.04142e+08 8.05542e+08 0 1
111 2 1 8.10629e+08 8.10891e+08 8.1191e+08 8.12161e+08 0 1
112 1 0 8.18829e+08 8.19091e+08 8.20111e+08 8.21111e+08 0 1
113 1 0 8.23841e+08 8.24114e+08 8.25133e+08 8.2514e+08 0 1
114 2 0 8.31037e+08 8.31291e+08 8.32311e+08 8.32356e+08 0 0
115 2 1 8.40455e+08 8.40704e+08 8.41724e+08 8.43069e+08 1 1
116 2 1 8.47655e+08 8.47906e+08 8.48925e+08 8.4928e+08 0 1
117 2 1 8.53983e+08 8.54246e+08 8.55265e+08 8.55283e+08 0 1
118 2 1 8.60954e+08 8.61202e+08 8.62221e+08 8.6244e+08 0 1
119 1 0 8.74267e+08 8.7453e+08 8.75549e+08 8.76277e+08 0 1
120 1 0 8.79179e+08 8.79425e+08 8.80444e+08 8.8056e+08 0 1
121 2 0 8.83307e+08 8.8356e+08 8.84579e+08 8.84613e+08 0 0
122 2 0 8.93558e+08 8.93802e+08 8.94822e+08 8.98774e+08 1 0
123 2 1 9.05909e+08 9.0616e+08 9.0718e+08 9.07878e+08 1 1
124 1 0 9.10386e+08 9.10638e+08 9.11658e+08 9.11977e+08 0 1
125 2 1 9.2899e+08 9.29242e+08 9.30262e+08 9.32261e+08 0 1
126 2 1 9.36611e+08 9.3688e+08 9.37899e+08 9.38622e+08 0 1
127 1 0 9.48724e+08 9.48982e+08 9.50002e+08 9.51371e+08 0 1
128 1 0 9.53984e+08 9.54247e+08 9.55266e+08 9.55458e+08 0 1
129 1 1 9.6071e+08 9.60965e+08 9.61984e+08 9.62031e+08 0 0
130 1 0 9.74738e+08 9.74999e+08 9.76019e+08 9.76063e+08 1 1
131 2 0 9.7902e+08 9.79271e+08 9.80291e+08 9.8031e+08 0 0
132 2 1 9.89752e+08 9.90005e+08 9.91025e+08 9.91143e+08 1 1
133 2 1 1.001e+09 1.00126e+09 1.00228e+09 1.00241e+09 0 1
134 1 0 1.01001e+09 1.01027e+09 1.01129e+09 1.0113e+09 0 1
135 2 1 1.01406e+09 1.01432e+09 1.01534e+09 1.01668e+09 0 1
136 1 0 1.02141e+09 1.02167e+09 1.02269e+09 1.02309e+09 0 1
137 1 0 1.02802e+09 1.02828e+09 1.02929e+09 1.02987e+09 0 1
138 2 1 1.03488e+09 1.03514e+09 1.03616e+09 1.03756e+09 0 1
139 1 0 1.04388e+09 1.04415e+09 1.04517e+09 1.04545e+09 0 1
140 1 0 1.05133e+09 1.05159e+09 1.05261e+09 1.05327e+09 0 1
141 1 0 1.05806e+09 1.05832e+09 1.05934e+09 1.05958e+09 0 1
142 1 0 1.0624e+09 1.06264e+09 1.06366e+09 1.06374e+09 0 1
143 1 0 1.06648e+09 1.06674e+09 1.06776e+09 1.06788e+09 0 1
144 1 0 1.07044e+09 1.07069e+09 1.07171e+09 1.07183e+09 0 1
145 2 1 1.07531e+09 1.07558e+09 1.0766e+09 1.07664e+09 0 1
146 2 1 1.08219e+09 1.08246e+09 1.08348e+09 1.08469e+09 0 1
147 2 1 1.09005e+09 1.09029e+09 1.09131e+09 1.09148e+09 0 1
148 1 0 1.09414e+09 1.0944e+09 1.09542e+09 1.09543e+09 0 1
149 1 1 1.10214e+09 1.1024e+09 1.10342e+09 1.10371e+09 0 0
150 1 0 1.11075e+09 1.111e+09 1.11202e+09 1.11213e+09 1 1
151 2 1 1.11735e+09 1.11762e+09 1.11864e+09 1.12038e+09 0 1
152 2 1 1.12296e+09 1.12322e+09 1.12424e+09 1.1245e+09 0 1
153 2 0 1.12992e+09 1.13017e+09 1.13119e+09 1.1314e+09 0 0
154 2 1 1.13972e+09 1.13996e+09 1.14098e+09 1.14161e+09 1 1
155 1 0 1.14893e+09 1.14918e+09 1.1502e+09 1.15143e+09 0 1
156 2 1 1.15414e+09 1.15439e+09 1.15541e+09 1.15551e+09 0 1
157 2 1 1.1583e+09 1.15855e+09 1.15957e+09 1.15958e+09 0 1
158 1 0 1.16587e+09 1.16613e+09 1.16715e+09 1.16731e+09 0 1
159 2 0 1.1702e+09 1.17045e+09 1.17147e+09 1.17151e+09 0 0
160 2 1 1.1796e+09 1.17984e+09 1.18086e+09 1.18325e+09 1 1
161 1 0 1.18829e+09 1.18855e+09 1.18957e+09 1.18967e+09 0 1
162 1 0 1.19216e+09 1.19241e+09 1.19343e+09 1.1936e+09 0 1
163 1 1 1.20301e+09 1.20326e+09 1.20428e+09 1.20485e+09 0 0
164 1 0 1.21305e+09 1.2133e+09 1.21432e+09 1.21445e+09 1 1
165 1 1 1.22249e+09 1.22274e+09 1.22376e+09 1.22394e+09 0 0
166 1 0 1.23466e+09 1.23492e+09 1.23594e+09 1.23666e+09 1 1
167 1 0 1.24273e+09 1.24299e+09 1.24401e+09 1.24468e+09 0 1
168 2 1 1.25022e+09 1.25046e+09 1.25148e+09 1.2517e+09 0 1
169 2 1 1.25984e+09 1.2601e+09 1.26112e+09 1.26116e+09 0 1
170 1 1 1.2668e+09 1.26705e+09 1.26807e+09 1.26826e+09 0 0
171 1 0 1.2757e+09 1.27596e+09 1.27698e+09 1.27722e+09 1 1
172 1 0 1.28467e+09 1.28493e+09 1.28595e+09 1.28596e+09 0 1
173 1 0 1.28882e+09 1.28908e+09 1.2901e+09 1.29058e+09 0 1
174 1 0 1.29332e+09 1.29357e+09 1.29459e+09 1.29532e+09 0 1
175 1 0 1.29817e+09 1.29843e+09 1.29945e+09 1.29948e+09 0 1
176 2 1 1.30207e+09 1.30232e+09 1.30334e+09 1.3034e+09 0 1
177 1 1 1.30827e+09 1.30853e+09 1.30955e+09 1.30957e+09 0 0
178 1 0 1.3179e+09 1.31814e+09 1.31916e+09 1.31973e+09 1 1
179 1 0 1.32235e+09 1.32261e+09 1.32363e+09 1.32462e+09 0 1
180 2 1 1.32901e+09 1.32927e+09 1.33029e+09 1.3303e+09 0 1
181 1 0 1.33317e+09 1.33342e+09 1.33444e+09 1.33479e+09 0 1
182 2 1 1.34017e+09 1.34044e+09 1.34146e+09 1.34217e+09 0 1
183 1 0 1.34781e+09 1.34807e+09 1.34909e+09 1.34933e+09 0 1
184 1 0 1.35188e+09 1.35213e+09 1.35315e+09 1.35348e+09 0 1
185 2 1 1.35622e+09 1.35648e+09 1.3575e+09 1.35751e+09 0 1
186 1 0 1.36039e+09 1.36065e+09 1.36167e+09 1.36186e+09 0 1
187 1 0 1.36524e+09 1.36549e+09 1.36651e+09 1.36686e+09 0 1
188 2 0 1.37201e+09 1.37226e+09 1.37328e+09 1.37336e+09 0 0
189 2 1 1.38194e+09 1.38219e+09 1.38321e+09 1.38352e+09 1 1
190 1 0 1.39179e+09 1.39204e+09 1.39306e+09 1.39362e+09 0 1
191 2 1 1.39626e+09 1.39652e+09 1.39754e+09 1.39774e+09 0 1
192 2 1 1.4007e+09 1.40094e+09 1.40196e+09 1.40198e+09 0 1
193 2 1 1.40676e+09 1.40701e+09 1.40803e+09 1.40966e+09 0 1
194 1 1 1.41483e+09 1.41507e+09 1.41609e+09 1.41625e+09 0 0
195 1 0 1.42432e+09 1.42458e+09 1.4256e+09 1.42642e+09 1 1
196 2 1 1.42895e+09 1.42921e+09 1.43023e+09 1.43039e+09 0 1
197 2 1 1.43542e+09 1.43568e+09 1.43669e+09 1.43793e+09 0 1
198 2 1 1.44043e+09 1.44069e+09 1.4417e+09 1.4418e+09 0 1
199 2 1 1.4463e+09 1.44656e+09 1.44758e+09 1.44763e+09 0 1
200 2 1 1.45242e+09 1.45267e+09 1.45369e+09 1.45634e+09 0 1
201 1 0 1.45911e+09 1.45936e+09 1.46038e+09 1.46056e+09 0 1
202 1 0 1.46778e+09 1.46804e+09 1.46906e+09 1.46958e+09 0 1
203 1 0 1.475e+09 1.47525e+09 1.47627e+09 1.47632e+09 0 1
204 1 0 1.48119e+09 1.48144e+09 1.48246e+09 1.48248e+09 0 1
205 2 1 1.48882e+09 1.48908e+09 1.4901e+09 1.49055e+09 0 1
206 2 1 1.49914e+09 1.49941e+09 1.50043e+09 1.50174e+09 0 1
207 2 1 1.50841e+09 1.50866e+09 1.50968e+09 1.50981e+09 0 1
208 2 1 1.51578e+09 1.51604e+09 1.51706e+09 1.51747e+09 0 1
209 1 0 1.52215e+09 1.52241e+09 1.52343e+09 1.52377e+09 0 1
210 1 0 1.53465e+09 1.53491e+09 1.53593e+09 1.53602e+09 0 1
211 1 0 1.53856e+09 1.53883e+09 1.53985e+09 1.54014e+09 0 1
212 2 1 1.54522e+09 1.54548e+09 1.5465e+09 1.54655e+09 0 1
213 1 0 1.55277e+09 1.55303e+09 1.55405e+09 1.5544e+09 0 1
214 2 0 1.56079e+09 1.56106e+09 1.56208e+09 1.56219e+09 0 0
215 2 1 1.56939e+09 1.56965e+09 1.57067e+09 1.57281e+09 1 1
216 2 1 1.57867e+09 1.57893e+09 1.57995e+09 1.58e+09 0 1
217 2 0 1.58284e+09 1.58309e+09 1.58411e+09 1.58412e+09 0 0
218 2 1 1.59327e+09 1.59353e+09 1.59455e+09 1.59524e+09 1 1
219 2 1 1.60155e+09 1.6018e+09 1.60282e+09 1.60317e+09 0 1
220 2 1 1.6058e+09 1.60606e+09 1.60708e+09 1.60712e+09 0 1
221 2 1 1.60996e+09 1.61022e+09 1.61124e+09 1.61131e+09 0 1
222 2 1 1.61746e+09 1.6177e+09 1.61872e+09 1.6191e+09 0 1
223 1 1 1.62655e+09 1.6268e+09 1.62782e+09 1.62783e+09 0 0
224 1 0 1.63618e+09 1.63645e+09 1.63747e+09 1.63757e+09 1 1
225 1 0 1.64034e+09 1.64059e+09 1.64161e+09 1.64197e+09 0 1
226 2 0 1.64491e+09 1.64516e+09 1.64618e+09 1.64624e+09 0 0
227 2 1 1.65466e+09 1.65492e+09 1.65594e+09 1.65672e+09 1 1
228 1 0 1.66226e+09 1.66252e+09 1.66354e+09 1.66358e+09 0 1
229 1 0 1.66895e+09 1.66921e+09 1.67023e+09 1.67111e+09 0 1
230 2 1 1.67394e+09 1.67419e+09 1.67521e+09 1.67524e+09 0 1
231 2 1 1.68056e+09 1.68082e+09 1.68184e+09 1.68187e+09 0 1
232 2 1 1.68446e+09 1.68471e+09 1.68573e+09 1.68576e+09 0 1
233 2 1 1.68835e+09 1.68862e+09 1.68964e+09 1.68985e+09 0 1
234 2 1 1.69549e+09 1.69576e+09 1.69678e+09 1.69679e+09 0 1
235 2 1 1.69955e+09 1.6998e+09 1.70082e+09 1.70082e+09 0 1
236 1 0 1.70362e+09 1.70389e+09 1.70491e+09 1.70534e+09 0 1
237 1 0 1.70825e+09 1.70851e+09 1.70953e+09 1.71089e+09 0 1
238 1 0 1.7134e+09 1.71366e+09 1.71468e+09 1.71482e+09 0 1
239 2 1 1.72041e+09 1.72066e+09 1.72168e+09 1.72236e+09 0 1
240 2 1 1.72732e+09 1.72758e+09 1.7286e+09 1.72982e+09 0 1
241 1 0 1.73517e+09 1.73543e+09 1.73645e+09 1.73711e+09 0 1
242 2 1 1.74507e+09 1.74533e+09 1.74635e+09 1.74647e+09 0 1
243 2 1 1.74933e+09 1.74958e+09 1.7506e+09 1.75068e+09 0 1
244 1 1 1.7559e+09 1.75615e+09 1.75717e+09 1.75723e+09 0 0
245 1 0 1.76472e+09 1.76498e+09 1.766e+09 1.76601e+09 1 1
246 2 1 1.77056e+09 1.77082e+09 1.77184e+09 1.77194e+09 0 1
247 1 0 1.7793e+09 1.77955e+09 1.78057e+09 1.78103e+09 0 1
248 1 0 1.78364e+09 1.7839e+09 1.78492e+09 1.7851e+09 0 1
249 1 0 1.78787e+09 1.78812e+09 1.78914e+09 1.78958e+09 0 1
250 2 1 1.79587e+09 1.79613e+09 1.79715e+09 1.79881e+09 0 1
251 1 0 1.80169e+09 1.80194e+09 1.80296e+09 1.80329e+09 0 1
252 2 0 1.80594e+09 1.8062e+09 1.80722e+09 1.80725e+09 0 0
253 2 1 1.81605e+09 1.81631e+09 1.81733e+09 1.82298e+09 1 1
254 2 1 1.82599e+09 1.82624e+09 1.82726e+09 1.82743e+09 0 1
255 1 0 1.8301e+09 1.83036e+09 1.83138e+09 1.83214e+09 0 1
256 2 1 1.83815e+09 1.83841e+09 1.83943e+09 1.84049e+09 0 1
257 1 0 1.84318e+09 1.84344e+09 1.84445e+09 1.84447e+09 0 1
258 1 0 1.85098e+09 1.85123e+09 1.85225e+09 1.85248e+09 0 1
259 2 1 1.85501e+09 1.85526e+09 1.85628e+09 1.85635e+09 0 1
260 1 0 1.85886e+09 1.85911e+09 1.86013e+09 1.86044e+09 0 1
261 2 0 1.86337e+09 1.86362e+09 1.86464e+09 1.8647e+09 0 0
262 2 1 1.87344e+09 1.87368e+09 1.8747e+09 1.87483e+09 1 1
263 2 1 1.87735e+09 1.87759e+09 1.87861e+09 1.87863e+09 0 1
264 1 0 1.88131e+09 1.88156e+09 1.88258e+09 1.88269e+09 0 1
265 2 1 1.88565e+09 1.88591e+09 1.88693e+09 1.88696e+09 0 1
266 1 0 1.8897e+09 1.88996e+09 1.89098e+09 1.89158e+09 0 1
267 2 0 1.89414e+09 1.8944e+09 1.89542e+09 1.89544e+09 0 0
268 2 1 1.90273e+09 1.90298e+09 1.904e+09 1.90683e+09 1 1
269 2 1 1.91066e+09 1.91092e+09 1.91194e+09 1.91221e+09 0 1
270 2 1 1.91477e+09 1.91502e+09 1.91604e+09 1.91608e+09 0 1
271 1 0 1.91893e+09 1.91919e+09 1.92021e+09 1.92022e+09 0 1
272 1 0 1.92275e+09 1.923e+09 1.92402e+09 1.92456e+09 0 1
273 1 0 1.93007e+09 1.93032e+09 1.93134e+09 1.9314e+09 0 1
274 2 1 1.93643e+09 1.93669e+09 1.93771e+09 1.93778e+09 0 1
275 2 1 1.94036e+09 1.94062e+09 1.94164e+09 1.94433e+09 0 1
276 2 1 1.94693e+09 1.94719e+09 1.94821e+09 1.94835e+09 0 1
277 1 0 1.951e+09 1.95125e+09 1.95227e+09 1.95255e+09 0 1
278 1 0 1.95529e+09 1.95554e+09 1.95656e+09 1.9567e+09 0 1
279 2 0 1.95928e+09 1.95953e+09 1.96055e+09 1.96189e+09 0 0
280 2 1 1.96953e+09 1.96978e+09 1.9708e+09 1.97081e+09 1 1
281 2 1 1.97496e+09 1.97522e+09 1.97624e+09 1.97677e+09 0 1
282 2 1 1.97969e+09 1.97995e+09 1.98097e+09 1.98214e+09 0 1
283 1 0 1.98469e+09 1.98496e+09 1.98598e+09 1.98661e+09 0 1
284 1 0 1.98979e+09 1.99004e+09 1.99106e+09 1.99149e+09 0 1
285 1 1 1.99609e+09 1.99634e+09 1.99736e+09 1.9976e+09 0 0
286 1 1 2.00656e+09 2.00681e+09 2.00783e+09 2.00785e+09 1 0
287 1 1 2.01578e+09 2.01604e+09 2.01706e+09 2.01812e+09 1 0
288 1 1 2.02522e+09 2.02548e+09 2.0265e+09 2.02994e+09 1 0
289 1 0 2.03741e+09 2.03766e+09 2.03868e+09 2.03887e+09 0 1
290 1 0 2.04158e+09 2.04184e+09 2.04286e+09 2.04318e+09 0 1
291 2 1 2.0459e+09 2.04616e+09 2.04718e+09 2.0472e+09 0 1
292 1 1 2.04985e+09 2.05011e+09 2.05113e+09 2.05114e+09 0 0
293 1 0 2.05823e+09 2.05848e+09 2.0595e+09 2.05989e+09 1 1
294 2 1 2.06525e+09 2.0655e+09 2.06652e+09 2.06817e+09 0 1
295 1 0 2.07367e+09 2.07392e+09 2.07494e+09 2.07547e+09 0 1
296 1 0 2.07809e+09 2.07834e+09 2.07936e+09 2.07943e+09 0 1
297 1 1 2.08453e+09 2.08477e+09 2.08579e+09 2.08597e+09 0 0
298 1 1 2.09334e+09 2.09358e+09 2.0946e+09 2.09462e+09 1 0
299 1 1 2.10197e+09 2.10222e+09 2.10324e+09 2.10412e+09 1 0
300 1 1 2.11227e+09 2.11253e+09 2.11355e+09 2.11433e+09 1 0
301 1 1 2.12251e+09 2.12276e+09 2.12378e+09 2.12479e+09 0 0
302 2 0 2.13211e+09 2.13237e+09 2.13339e+09 2.13893e+09 0 0
303 1 0 2.14615e+09 2.14641e+09 2.14743e+09 2.1498e+09 0 1
304 2 1 2.15269e+09 2.15295e+09 2.15397e+09 2.15399e+09 0 1
305 1 1 2.15878e+09 2.15903e+09 2.16005e+09 2.16007e+09 0 0
306 1 1 2.16925e+09 2.1695e+09 2.17052e+09 2.1722e+09 1 0
307 1 1 2.17962e+09 2.17988e+09 2.1809e+09 2.18268e+09 1 0
308 1 1 2.18999e+09 2.19024e+09 2.19126e+09 2.19424e+09 1 0
309 2 1 2.20135e+09 2.2016e+09 2.20262e+09 2.20286e+09 0 1
310 1 0 2.20577e+09 2.20603e+09 2.20705e+09 2.20707e+09 0 1
311 2 1 2.20974e+09 2.20999e+09 2.21101e+09 2.21108e+09 0 1
312 1 0 2.21648e+09 2.21672e+09 2.21774e+09 2.2182e+09 0 1
313 1 0 2.22077e+09 2.22103e+09 2.22204e+09 2.22231e+09 0 1
314 1 0 2.2249e+09 2.22516e+09 2.22618e+09 2.22624e+09 0 1
315 1 0 2.23138e+09 2.23163e+09 2.23265e+09 2.23286e+09 0 1
316 2 1 2.23618e+09 2.23644e+09 2.23746e+09 2.23765e+09 0 1
317 2 1 2.24342e+09 2.24368e+09 2.2447e+09 2.24559e+09 0 1
318 1 0 2.24832e+09 2.24857e+09 2.24959e+09 2.2496e+09 0 1
319 1 1 2.25649e+09 2.25675e+09 2.25777e+09 2.25993e+09 0 0
320 1 0 2.26708e+09 2.26734e+09 2.26836e+09 2.26849e+09 1 1
321 2 1 2.27133e+09 2.27158e+09 2.2726e+09 2.27289e+09 0 1
322 2 1 2.27564e+09 2.2759e+09 2.27692e+09 2.27696e+09 0 1
323 1 0 2.27962e+09 2.27989e+09 2.28091e+09 2.28132e+09 0 1
324 2 1 2.28719e+09 2.28743e+09 2.28845e+09 2.29107e+09 0 1
325 2 1 2.2938e+09 2.29405e+09 2.29507e+09 2.29512e+09 0 1
326 2 1 2.29792e+09 2.29818e+09 2.2992e+09 2.29936e+09 0 1
327 1 0 2.30201e+09 2.30227e+09 2.30329e+09 2.30374e+09 0 1
328 2 1 2.30647e+09 2.30672e+09 2.30774e+09 2.3078e+09 0 1
329 2 1 2.31035e+09 2.31061e+09 2.31163e+09 2.31328e+09 0 1
330 1 0 2.3159e+09 2.31617e+09 2.31719e+09 2.31748e+09 0 1
331 2 1 2.3201e+09 2.32037e+09 2.32138e+09 2.32145e+09 0 1
332 2 1 2.32778e+09 2.32803e+09 2.32905e+09 2.32939e+09 0 1
333 2 1 2.33229e+09 2.33254e+09 2.33356e+09 2.3336e+09 0 1
334 2 1 2.33643e+09 2.33669e+09 2.3377e+09 2.33772e+09 0 1
335 2 1 2.3406e+09 2.34085e+09 2.34187e+09 2.34189e+09 0 1
336 1 1 2.34742e+09 2.34767e+09 2.34869e+09 2.34888e+09 0 0
337 1 0 2.35618e+09 2.35643e+09 2.35745e+09 2.35746e+09 1 1
338 1 0 2.36042e+09 2.36068e+09 2.3617e+09 2.36196e+09 0 1
339 1 1 2.36768e+09 2.36794e+09 2.36896e+09 2.36919e+09 0 0
340 1 0 2.37668e+09 2.37693e+09 2.37795e+09 2.37889e+09 1 1
341 1 1 2.38188e+09 2.38214e+09 2.38316e+09 2.38456e+09 0 0
342 1 1 2.39182e+09 2.39207e+09 2.39309e+09 2.40654e+09 1 0
343 1 0 2.41404e+09 2.41429e+09 2.41531e+09 2.43556e+09 1 1
344 2 1 2.43814e+09 2.43838e+09 2.4394e+09 2.43987e+09 0 1
345 2 1 2.4432e+09 2.44345e+09 2.44447e+09 2.44449e+09 0 1
346 1 0 2.45096e+09 2.45122e+09 2.45224e+09 2.45233e+09 0 1
347 2 1 2.45487e+09 2.45512e+09 2.45614e+09 2.45619e+09 0 1
348 1 1 2.45913e+09 2.45938e+09 2.4604e+09 2.46279e+09 0 0
349 1 0 2.46987e+09 2.47012e+09 2.47114e+09 2.47181e+09 1 1
350 1 1 2.47468e+09 2.47495e+09 2.47597e+09 2.48288e+09 0 0
351 1 0 2.49002e+09 2.49028e+09 2.4913e+09 2.49532e+09 1 1
352 2 1 2.49797e+09 2.49822e+09 2.49924e+09 2.49975e+09 0 1
353 2 1 2.50237e+09 2.50263e+09 2.50365e+09 2.50366e+09 0 1
354 1 1 2.50945e+09 2.50969e+09 2.51071e+09 2.51213e+09 0 0
355 1 1 2.5206e+09 2.52085e+09 2.52187e+09 2.53446e+09 1 0
356 1 0 2.54266e+09 2.54291e+09 2.54393e+09 2.55193e+09 1 1
357 1 0 2.55482e+09 2.55508e+09 2.5561e+09 2.55821e+09 0 1
358 2 0 2.56083e+09 2.56107e+09 2.56209e+09 2.6384e+09 0 0
359 2 0 2.64567e+09 2.64592e+09 2.64694e+09 2.6708e+09 1 0
360 2 0 2.67785e+09 2.67811e+09 2.67913e+09 2.74593e+09 1 0
361 2 0 2.75326e+09 2.75352e+09 2.75454e+09 2.79308e+09 1 0
362 1 0 2.80029e+09 2.80054e+09 2.80156e+09 2.81365e+09 0 1
363 1 0 2.81807e+09 2.81832e+09 2.81934e+09 2.82289e+09 0 1
364 2 0 2.82556e+09 2.82581e+09 2.82683e+09 2.84167e+09 0 0
365 2 0 2.84913e+09 2.84938e+09 2.8504e+09 2.85287e+09 1 0
366 2 0 2.86037e+09 2.86062e+09 2.86164e+09 2.89667e+09 1 0
367 2 0 2.90395e+09 2.9042e+09 2.90522e+09 2.9776e+09 1 0
368 2 0 2.98829e+09 2.98855e+09 2.98957e+09 3.0279e+09 0 0
369 2 0 3.03538e+09 3.03563e+09 3.03665e+09 3.05618e+09 0 0
370 1 0 3.06357e+09 3.06383e+09 3.06485e+09 3.06507e+09 0 1
371 1 0 3.06806e+09 3.06832e+09 3.06934e+09 3.10238e+09 0 1
372 1 0 3.10503e+09 3.10529e+09 3.10631e+09 3.16091e+09 0 1
373 1 0 3.16377e+09 3.16403e+09 3.16505e+09 3.18798e+09 0 1
374 2 0 3.19092e+09 3.19117e+09 3.19219e+09 3.19936e+09 0 0
375 2 0 3.20656e+09 3.20682e+09 3.20784e+09 3.21043e+09 1 0
376 2 0 3.21794e+09 3.21818e+09 3.2192e+09 3.22117e+09 1 0
377 2 0 3.23064e+09 3.2309e+09 3.23192e+09 3.24274e+09 1 0
378 1 0 3.25026e+09 3.25051e+09 3.25153e+09 3.28137e+09 0 1
379 2 0 3.28604e+09 3.2863e+09 3.28732e+09 3.354e+09 0 0
380 2 0 3.36117e+09 3.36143e+09 3.36245e+09 3.36308e+09 1 0
381 2 1 3.37222e+09 3.37247e+09 3.37349e+09 1.08959e+09 1 1
