trial trialType response stillTime stimOnset stimOffset respTime correctionTrial correct
001 2 1 8.65486e+06 8.99775e+06 1.00174e+07 5.30249e+07 0
001 002 2 1 5.56892e+07 5.59642e+07 5.69838e+07 8.83998e+08 0
001 003 1 1 8.86318e+08 8.86591e+08 8.8761e+08 9.05026e+08 0
000 004 1 0 9.13068e+08 9.13346e+08 9.14366e+08 9.16885e+08 1
001 005 1 1 9.19586e+08 9.19831e+08 9.20851e+08 9.21252e+08 0
000 006 1 1 9.28563e+08 9.28821e+08 9.2984e+08 9.32708e+08 1
000 007 1 0 9.39782e+08 9.40034e+08 9.41053e+08 9.46691e+08 1
001 008 2 1 9.50891e+08 9.51151e+08 9.5217e+08 9.6243e+08 0
001 009 1 1 9.65094e+08 9.65345e+08 9.66364e+08 9.69918e+08 0
000 010 1 0 9.77171e+08 9.77424e+08 9.78443e+08 9.79609e+08 1
001 011 1 1 9.83002e+08 9.83255e+08 9.84275e+08 9.85514e+08 0
000 012 1 1 9.92716e+08 9.92977e+08 9.93997e+08 1.00061e+09 1
000 013 1 0 1.00838e+09 1.00863e+09 1.00965e+09 1.01045e+09 1
001 014 1 1 1.01348e+09 1.01373e+09 1.01475e+09 1.01704e+09 0
000 015 1 1 1.02456e+09 1.02481e+09 1.02583e+09 1.03496e+09 1
000 016 1 1 1.04201e+09 1.04227e+09 1.04329e+09 1.04486e+09 1
000 017 1 0 1.05331e+09 1.05357e+09 1.05459e+09 1.05533e+09 1
001 018 1 1 1.05909e+09 1.05935e+09 1.06037e+09 1.06043e+09 0
000 019 1 0 1.06805e+09 1.0683e+09 1.06932e+09 1.0694e+09 1
001 020 2 1 1.07188e+09 1.07214e+09 1.07315e+09 1.07326e+09 0
001 021 1 0 1.07938e+09 1.07964e+09 1.08066e+09 1.08076e+09 0
001 022 2 0 1.08581e+09 1.08607e+09 1.08709e+09 1.0889e+09 0
000 023 2 0 1.09717e+09 1.09743e+09 1.09845e+09 1.09858e+09 1
000 024 2 1 1.10578e+09 1.10604e+09 1.10706e+09 1.10772e+09 1
001 025 2 1 1.11083e+09 1.11109e+09 1.1121e+09 1.11238e+09 0
001 026 2 1 1.11699e+09 1.11723e+09 1.11825e+09 1.1199e+09 0
001 027 2 1 1.12452e+09 1.12478e+09 1.1258e+09 1.12603e+09 0
001 028 1 1 1.13219e+09 1.13244e+09 1.13346e+09 1.13415e+09 0
000 029 1 1 1.14151e+09 1.14176e+09 1.14278e+09 1.14431e+09 1
000 030 1 1 1.15363e+09 1.15388e+09 1.1549e+09 1.15505e+09 1
000 031 1 1 1.1625e+09 1.16275e+09 1.16377e+09 1.16414e+09 1
000 032 1 1 1.17244e+09 1.17269e+09 1.17371e+09 1.17544e+09 0
000 033 1 1 1.18454e+09 1.18482e+09 1.18583e+09 1.18915e+09 0
000 034 1 1 1.19671e+09 1.19697e+09 1.19799e+09 1.20948e+09 0
000 035 1 1 1.21787e+09 1.21813e+09 1.21915e+09 1.22001e+09 0
000 036 1 0 1.2274e+09 1.22767e+09 1.22869e+09 1.23231e+09 0
001 037 2 1 1.23711e+09 1.23737e+09 1.23839e+09 1.23856e+09 0
001 038 2 1 1.24213e+09 1.24239e+09 1.24341e+09 1.24617e+09 0
001 039 2 0 1.25136e+09 1.25162e+09 1.25264e+09 1.25372e+09 0
000 040 2 1 1.26141e+09 1.26166e+09 1.26268e+09 1.26386e+09 1
001 041 2 1 1.27256e+09 1.27282e+09 1.27384e+09 1.27397e+09 0
001 042 1 1 1.27874e+09 1.27899e+09 1.28001e+09 1.28004e+09 0
000 043 1 0 1.28773e+09 1.28799e+09 1.28901e+09 1.28902e+09 1
001 044 2 1 1.29411e+09 1.29436e+09 1.29538e+09 1.29539e+09 0
001 045 2 1 1.30133e+09 1.30159e+09 1.30261e+09 1.30303e+09 0
001 046 2 1 1.30874e+09 1.309e+09 1.31002e+09 1.31147e+09 0
001 047 1 1 1.31384e+09 1.3141e+09 1.31512e+09 1.32047e+09 0
000 048 1 0 1.33032e+09 1.33058e+09 1.3316e+09 1.33161e+09 1
001 049 1 1 1.33483e+09 1.33509e+09 1.33611e+09 1.33783e+09 0
000 050 1 1 1.34658e+09 1.34684e+09 1.34786e+09 1.34815e+09 1
000 051 1 1 1.35518e+09 1.35543e+09 1.35645e+09 1.35651e+09 1
000 052 1 1 1.36369e+09 1.36395e+09 1.36497e+09 1.36587e+09 1
000 053 2 1 1.37318e+09 1.37344e+09 1.37446e+09 1.37537e+09 0
001 054 1 1 1.38194e+09 1.38221e+09 1.38323e+09 1.38649e+09 0
000 055 1 1 1.39393e+09 1.39418e+09 1.3952e+09 1.39532e+09 1
000 056 1 1 1.40284e+09 1.40311e+09 1.40413e+09 1.40808e+09 1
000 057 1 1 1.41523e+09 1.41548e+09 1.4165e+09 1.41797e+09 1
000 058 1 1 1.42527e+09 1.42553e+09 1.42655e+09 1.43657e+09 0
000 059 2 1 1.44607e+09 1.44633e+09 1.44735e+09 1.44822e+09 0
001 060 1 1 1.45566e+09 1.45592e+09 1.45694e+09 1.45771e+09 0
000 061 1 0 1.46497e+09 1.46523e+09 1.46625e+09 1.46953e+09 1
001 062 2 0 1.47578e+09 1.47603e+09 1.47705e+09 1.4775e+09 0
000 063 2 1 1.48458e+09 1.48484e+09 1.48586e+09 1.48599e+09 1
001 064 2 0 1.49157e+09 1.49183e+09 1.49285e+09 1.49305e+09 0
000 065 2 0 1.50039e+09 1.50065e+09 1.50167e+09 1.50416e+09 1
000 066 2 1 1.51154e+09 1.51181e+09 1.51283e+09 1.51283e+09 1
001 067 2 0 1.51759e+09 1.51784e+09 1.51886e+09 1.51891e+09 0
000 068 2 0 1.52681e+09 1.52706e+09 1.52808e+09 1.52874e+09 1
000 069 2 1 1.536e+09 1.53625e+09 1.53727e+09 1.53745e+09 1
001 070 1 0 1.54074e+09 1.54099e+09 1.54201e+09 1.54202e+09 0
001 071 2 1 1.54701e+09 1.54727e+09 1.54829e+09 1.54832e+09 0
001 072 1 0 1.55134e+09 1.55159e+09 1.55261e+09 1.55301e+09 0
001 073 1 1 1.55596e+09 1.55622e+09 1.55724e+09 1.5594e+09 0
000 074 1 1 1.56646e+09 1.56672e+09 1.56774e+09 1.56789e+09 1
000 075 1 0 1.57693e+09 1.57718e+09 1.5782e+09 1.57975e+09 1
001 076 1 1 1.58448e+09 1.58473e+09 1.58575e+09 1.58585e+09 0
000 077 1 1 1.59294e+09 1.59319e+09 1.59421e+09 1.59468e+09 1
000 078 1 0 1.60174e+09 1.602e+09 1.60302e+09 1.60503e+09 1
001 079 1 1 1.61359e+09 1.61384e+09 1.61486e+09 1.61756e+09 0
000 080 1 0 1.62477e+09 1.62503e+09 1.62605e+09 1.62656e+09 1
001 081 2 1 1.63767e+09 1.63793e+09 1.63895e+09 1.64452e+09 0
001 082 1 1 1.64962e+09 1.64987e+09 1.65089e+09 1.65133e+09 0
000 083 1 0 1.65972e+09 1.65997e+09 1.66099e+09 1.66148e+09 1
001 084 1 1 1.66437e+09 1.66462e+09 1.66564e+09 1.66578e+09 0
000 085 1 1 1.67284e+09 1.6731e+09 1.67412e+09 1.67441e+09 1
000 086 1 1 1.68488e+09 1.68514e+09 1.68616e+09 1.68881e+09 1
000 087 1 1 1.69595e+09 1.6962e+09 1.69722e+09 1.69907e+09 1
000 088 2 1 1.70703e+09 1.70728e+09 1.7083e+09 1.71124e+09 0
001 089 2 1 1.72177e+09 1.72203e+09 1.72305e+09 1.72318e+09 0
001 090 1 1 1.72629e+09 1.72654e+09 1.72756e+09 1.73123e+09 0
000 091 1 1 1.73844e+09 1.73869e+09 1.73971e+09 1.74341e+09 1
000 092 1 0 1.75057e+09 1.75082e+09 1.75184e+09 1.75567e+09 1
001 093 2 1 1.75876e+09 1.75901e+09 1.76003e+09 1.76008e+09 0
001 094 2 1 1.76631e+09 1.76657e+09 1.76759e+09 1.76766e+09 0
001 095 2 0 1.77069e+09 1.77095e+09 1.77197e+09 1.77289e+09 0
000 096 2 0 1.7811e+09 1.78136e+09 1.78237e+09 1.78267e+09 1
000 097 2 1 1.78992e+09 1.79018e+09 1.7912e+09 1.79264e+09 1
001 098 1 0 1.7958e+09 1.79605e+09 1.79707e+09 1.79727e+09 0
001 099 2 0 1.80654e+09 1.80681e+09 1.80783e+09 1.81338e+09 0
000 100 2 1 1.82057e+09 1.82081e+09 1.82183e+09 1.82194e+09 1
001 101 2 1 1.82425e+09 1.82451e+09 1.82553e+09 1.84344e+09 0
001 102 2 0 1.84707e+09 1.84732e+09 1.84834e+09 1.8484e+09 0
000 103 2 1 1.85581e+09 1.85605e+09 1.85707e+09 1.86161e+09 1
001 104 2 0 1.86489e+09 1.86515e+09 1.86617e+09 1.86624e+09 0
000 105 2 1 1.87755e+09 1.87779e+09 1.87881e+09 1.88625e+09 1
001 106 1 0 1.89035e+09 1.89061e+09 1.89163e+09 1.89261e+09 0
001 107 2 1 1.89564e+09 1.89589e+09 1.89691e+09 1.89711e+09 0
001 108 1 1 1.90318e+09 1.90343e+09 1.90445e+09 1.90448e+09 0
000 109 1 1 1.91256e+09 1.91281e+09 1.91383e+09 1.9144e+09 1
000 110 1 1 1.92486e+09 1.92512e+09 1.92614e+09 1.9295e+09 1
000 111 1 1 1.93663e+09 1.93689e+09 1.93791e+09 1.94064e+09 1
000 112 2 1 1.94799e+09 1.94825e+09 1.94927e+09 1.95354e+09 0
001 113 2 1 1.95592e+09 1.95618e+09 1.9572e+09 1.96106e+09 0
001 114 1 0 1.96938e+09 1.96963e+09 1.97065e+09 1.97354e+09 0
001 115 1 0 1.97908e+09 1.97935e+09 1.98037e+09 1.98497e+09 0
001 116 2 1 1.99062e+09 1.99087e+09 1.99189e+09 1.99198e+09 0
001 117 2 0 1.99613e+09 1.99639e+09 1.99741e+09 1.99741e+09 0
000 118 2 1 2.00484e+09 2.0051e+09 2.00612e+09 2.00925e+09 1
001 119 1 0 2.01616e+09 2.01641e+09 2.01743e+09 2.0176e+09 0
001 120 2 1 2.02179e+09 2.02204e+09 2.02306e+09 2.0231e+09 0
001 121 1 1 2.0297e+09 2.02995e+09 2.03097e+09 2.03314e+09 0
000 122 1 0 2.04023e+09 2.04049e+09 2.04151e+09 2.0418e+09 1
001 123 1 0 2.04506e+09 2.04532e+09 2.04634e+09 2.0504e+09 0
001 124 2 0 2.05426e+09 2.05452e+09 2.05554e+09 2.0597e+09 0
000 125 2 1 2.06714e+09 2.06739e+09 2.06841e+09 2.07109e+09 1
001 126 1 1 2.07651e+09 2.07677e+09 2.07779e+09 2.07784e+09 0
000 127 1 1 2.08706e+09 2.08732e+09 2.08833e+09 2.09129e+09 1
000 128 1 1 2.10023e+09 2.1005e+09 2.10152e+09 2.10494e+09 1
000 129 1 1 2.11197e+09 2.11223e+09 2.11324e+09 2.1145e+09 1
000 130 2 0 2.12205e+09 2.12231e+09 2.12333e+09 2.12389e+09 0
000 131 2 1 2.13143e+09 2.13169e+09 2.13271e+09 2.13738e+09 0
001 132 2 1 2.14252e+09 2.14277e+09 2.14379e+09 2.14401e+09 0
001 133 1 1 2.14944e+09 2.14969e+09 2.15071e+09 2.15221e+09 0
000 134 1 1 2.1596e+09 2.15986e+09 2.16088e+09 2.1611e+09 1
000 135 1 1 2.1697e+09 2.16996e+09 2.17098e+09 2.17098e+09 1
000 136 1 1 2.18198e+09 2.18224e+09 2.18326e+09 2.18329e+09 1
000 137 1 1 2.19057e+09 2.19083e+09 2.19185e+09 2.19431e+09 0
000 138 1 1 2.2031e+09 2.20336e+09 2.20438e+09 2.20522e+09 0
000 139 1 1 2.21249e+09 2.21275e+09 2.21377e+09 2.21614e+09 0
000 140 1 1 2.22364e+09 2.22389e+09 2.22491e+09 2.22568e+09 0
000 141 2 1 2.23328e+09 2.23354e+09 2.23456e+09 2.23493e+09 0
001 142 2 1 2.23847e+09 2.23873e+09 2.23975e+09 2.24429e+09 0
001 143 1 0 2.24889e+09 2.24914e+09 2.25016e+09 2.25025e+09 0
001 144 1 1 2.25412e+09 2.25437e+09 2.25539e+09 2.26057e+09 0
000 145 1 1 2.27084e+09 2.2711e+09 2.27212e+09 2.28014e+09 1
000 146 1 0 2.28747e+09 2.28773e+09 2.28875e+09 2.2892e+09 1
001 147 2 1 2.29455e+09 2.2948e+09 2.29582e+09 2.29588e+09 0
001 148 1 0 2.30027e+09 2.30052e+09 2.30154e+09 2.30191e+09 0
001 149 1 0 2.30686e+09 2.30711e+09 2.30813e+09 2.30883e+09 0
001 150 2 1 2.312e+09 2.31226e+09 2.31328e+09 2.31341e+09 0
001 151 2 1 2.31806e+09 2.31832e+09 2.31934e+09 2.32457e+09 0
001 152 1 1 2.32772e+09 2.32797e+09 2.32899e+09 2.32914e+09 0
000 153 1 1 2.33854e+09 2.3388e+09 2.33982e+09 2.3421e+09 1
000 154 1 1 2.35159e+09 2.35185e+09 2.35287e+09 2.35507e+09 1
000 155 1 0 2.36555e+09 2.36579e+09 2.36681e+09 2.37061e+09 1
001 156 2 1 2.38183e+09 2.38208e+09 2.3831e+09 2.38481e+09 0
001 157 2 0 2.39332e+09 2.39358e+09 2.3946e+09 2.39592e+09 0
000 158 2 0 2.40413e+09 2.40439e+09 2.40541e+09 2.40663e+09 1
000 159 2 1 2.41737e+09 2.41763e+09 2.41865e+09 2.42087e+09 1
001 160 1 0 2.42695e+09 2.42721e+09 2.42823e+09 2.4298e+09 0
001 161 1 0 2.4343e+09 2.43456e+09 2.43558e+09 2.43587e+09 0
001 162 2 1 2.4417e+09 2.44194e+09 2.44296e+09 2.44455e+09 0
001 163 2 1 2.44788e+09 2.44813e+09 2.44915e+09 2.44929e+09 0
001 164 1 1 2.4526e+09 2.45286e+09 2.45388e+09 2.45555e+09 0
000 165 1 0 2.4653e+09 2.46557e+09 2.46659e+09 2.46938e+09 1
001 166 1 0 2.4726e+09 2.47285e+09 2.47387e+09 2.47484e+09 0
001 167 2 0 2.47857e+09 2.47884e+09 2.47985e+09 2.47989e+09 0
000 168 2 1 2.48921e+09 2.48946e+09 2.49048e+09 2.4906e+09 1
001 169 2 0 2.49518e+09 2.49544e+09 2.49646e+09 2.49656e+09 0
000 170 2 0 2.50416e+09 2.50441e+09 2.50543e+09 2.50687e+09 1
000 171 2 1 2.51421e+09 2.51447e+09 2.51549e+09 2.51956e+09 1
001 172 2 0 2.52787e+09 2.52813e+09 2.52915e+09 2.52936e+09 0
000 173 2 1 2.53676e+09 2.53701e+09 2.53803e+09 2.54544e+09 1
001 174 1 1 2.5501e+09 2.55036e+09 2.55138e+09 2.55197e+09 0
000 175 1 1 2.56019e+09 2.56045e+09 2.56147e+09 2.60011e+09 1
000 176 1 1 2.60723e+09 2.6075e+09 2.60852e+09 2.64492e+09 1
000 177 1 1 2.65201e+09 2.65227e+09 2.65329e+09 2.65517e+09 1
000 178 1 1 2.66368e+09 2.66395e+09 2.66497e+09 2.67022e+09 0
000 179 1 1 2.67743e+09 2.67769e+09 2.67871e+09 2.68088e+09 0
000 180 1 1 2.68842e+09 2.68868e+09 2.6897e+09 2.6931e+09 0
000 181 2 0 2.70325e+09 2.70351e+09 2.70453e+09 2.71558e+09 0
000 182 1 0 2.7229e+09 2.72315e+09 2.72417e+09 2.72943e+09 0
001 183 1 0 2.73185e+09 2.7321e+09 2.73312e+09 2.7505e+09 0
001 184 2 1 2.75521e+09 2.75546e+09 2.75648e+09 2.75659e+09 0
001 185 1 0 2.76041e+09 2.76066e+09 2.76168e+09 2.76181e+09 0
001 186 2 0 2.7676e+09 2.76786e+09 2.76888e+09 2.77282e+09 0
000 187 2 1 2.7829e+09 2.78316e+09 2.78418e+09 2.78647e+09 1
001 188 2 0 2.79226e+09 2.79253e+09 2.79355e+09 2.79357e+09 0
000 189 2 0 2.80072e+09 2.80097e+09 2.80199e+09 2.80422e+09 1
000 190 2 1 2.81167e+09 2.81193e+09 2.81295e+09 2.81367e+09 1
001 191 2 0 2.81993e+09 2.82019e+09 2.82121e+09 2.83367e+09 0
000 192 2 1 2.8443e+09 2.84457e+09 2.84559e+09 2.84681e+09 1
001 193 2 0 2.85411e+09 2.85435e+09 2.85537e+09 2.85543e+09 0
000 194 2 1 2.86289e+09 2.86314e+09 2.86416e+09 2.86472e+09 1
001 195 1 0 2.87047e+09 2.87074e+09 2.87176e+09 2.87189e+09 0
001 196 2 0 2.8754e+09 2.87565e+09 2.87667e+09 2.87971e+09 0
000 197 2 1 2.88679e+09 2.88705e+09 2.88807e+09 2.89309e+09 1
001 198 2 1 2.89692e+09 2.89718e+09 2.8982e+09 2.89832e+09 0
001 199 1 1 2.90588e+09 2.90615e+09 2.90717e+09 2.91089e+09 0
000 200 1 1 2.91807e+09 2.91832e+09 2.91934e+09 2.92187e+09 1
000 201 1 0 2.93043e+09 2.93068e+09 2.9317e+09 2.93452e+09 1
001 202 1 1 2.93989e+09 2.94016e+09 2.94118e+09 2.94336e+09 0
000 203 1 0 2.95303e+09 2.95329e+09 2.95431e+09 2.95769e+09 1
001 204 2 0 2.96117e+09 2.96143e+09 2.96244e+09 2.96432e+09 0
000 205 2 0 2.97154e+09 2.9718e+09 2.97282e+09 2.9763e+09 1
000 206 2 1 2.98365e+09 2.98391e+09 2.98493e+09 2.99095e+09 1
001 207 2 1 2.99475e+09 2.99501e+09 2.99603e+09 3.00118e+09 0
001 208 2 0 3.00596e+09 3.00623e+09 3.00725e+09 3.00784e+09 0
000 209 2 0 3.01504e+09 3.0153e+09 3.01632e+09 3.03394e+09 1
000 210 2 1 3.04137e+09 3.04162e+09 3.04264e+09 3.04798e+09 1
001 211 2 0 3.05167e+09 3.05193e+09 3.05295e+09 3.0547e+09 0
000 212 2 0 3.06221e+09 3.06246e+09 3.06348e+09 3.07671e+09 1
000 213 2 0 3.08407e+09 3.08432e+09 3.08534e+09 3.11791e+09 1
000 214 2 0 3.12514e+09 3.12539e+09 3.12641e+09 3.13006e+09 1
000 215 1 0 3.13732e+09 3.13757e+09 3.13859e+09 3.17911e+09 0
001 216 2 1 3.18624e+09 3.1865e+09 3.18752e+09 3.18762e+09 0
001 217 1 0 3.19343e+09 3.19368e+09 3.1947e+09 3.19503e+09 0
001 218 1 1 3.19977e+09 3.20003e+09 3.20105e+09 3.20249e+09 0
000 219 1 0 3.20978e+09 3.21003e+09 3.21105e+09 3.22015e+09 1
001 220 1 0 3.22244e+09 3.2227e+09 3.22372e+09 3.22727e+09 0
001 221 1 0 3.23261e+09 3.23287e+09 3.23389e+09 3.23478e+09 0
001 222 1 1 3.23837e+09 3.23864e+09 3.23966e+09 3.24365e+09 0
000 223 1 1 3.25119e+09 3.25144e+09 3.25246e+09 3.25675e+09 1
000 224 1 1 3.26409e+09 3.26436e+09 3.26538e+09 3.26699e+09 1
000 225 1 0 3.27428e+09 3.27453e+09 3.27555e+09 3.2792e+09 1
001 226 2 0 3.28335e+09 3.2836e+09 3.28462e+09 3.28498e+09 0
000 227 2 0 3.29606e+09 3.29632e+09 3.29734e+09 3.29759e+09 1
000 228 2 0 3.3064e+09 3.30665e+09 3.30767e+09 3.31044e+09 1
000 229 2 0 3.31757e+09 3.31782e+09 3.31884e+09 3.32205e+09 1
000 230 1 0 3.33294e+09 3.33319e+09 3.33421e+09 3.34052e+09 0
001 231 1 0 3.34783e+09 3.34809e+09 3.34911e+09 3.43558e+09 0
001 232 1 0 3.43947e+09 3.43973e+09 3.44075e+09 3.50004e+09 0
001 233 2 0 3.50229e+09 3.50255e+09 3.50357e+09 3.52839e+09 0
000 234 2 1 3.53753e+09 3.53779e+09 3.53881e+09 3.54078e+09 1
001 235 2 0 3.54627e+09 3.54653e+09 3.54754e+09 3.54847e+09 0
000 236 2 0 3.5558e+09 3.55606e+09 3.55708e+09 3.56592e+09 1
000 237 2 0 3.57337e+09 3.57363e+09 3.57465e+09 3.57844e+09 1
000 238 2 1 3.58549e+09 3.58575e+09 3.58677e+09 3.60705e+09 1
001 239 1 1 3.61292e+09 3.61317e+09 3.61419e+09 3.61798e+09 0
000 240 1 0 3.62529e+09 3.62555e+09 3.62656e+09 3.63163e+09 1
001 241 1 1 3.63596e+09 3.63621e+09 3.63723e+09 3.63801e+09 0
000 242 1 1 3.64778e+09 3.64805e+09 3.64907e+09 3.70005e+09 1
000 243 1 1 3.70744e+09 3.70768e+09 3.7087e+09 3.71976e+09 1
000 244 1 0 3.72681e+09 3.72707e+09 3.72809e+09 3.75257e+09 1
001 245 2 1 3.76033e+09 3.76058e+09 3.7616e+09 3.76194e+09 0
001 246 1 1 3.76458e+09 3.76484e+09 3.76586e+09 3.76817e+09 0
000 247 1 1 3.77538e+09 3.77565e+09 3.77667e+09 3.77678e+09 1
000 248 1 1 3.78392e+09 3.78417e+09 3.78519e+09 3.78671e+09 1
000 249 1 0 3.79661e+09 3.79685e+09 3.79787e+09 3.87807e+09 1
001 250 2 0 3.88483e+09 3.88508e+09 3.8861e+09 3.91882e+09 0
000 251 2 0 3.92618e+09 3.92643e+09 3.92745e+09 3.95551e+09 1
000 252 2 0 3.96268e+09 3.96293e+09 3.96395e+09 3.98368e+09 1
000 253 2 0 3.99102e+09 3.99126e+09 3.99228e+09 3.99666e+09 1
000 254 2 0 4.00425e+09 4.0045e+09 4.00552e+09 4.03329e+09 0
000 255 2 1 4.04055e+09 4.0408e+09 4.04182e+09 4.04767e+09 0
001 256 2 1 4.05237e+09 4.05263e+09 4.05365e+09 4.09923e+09 0
001 257 1 1 4.10412e+09 4.10438e+09 4.1054e+09 4.12397e+09 0
000 258 1 0 4.13123e+09 4.13149e+09 4.13251e+09 4.14087e+09 1
001 259 1 1 4.14589e+09 4.14614e+09 4.14716e+09 4.16008e+09 0
000 260 1 0 4.16713e+09 4.16739e+09 4.16841e+09 4.16971e+09 1
001 261 1 1 4.17518e+09 4.17543e+09 4.17645e+09 4.17776e+09 0
000 262 1 0 4.18582e+09 4.18609e+09 4.18711e+09 4.19252e+09 1
001 263 2 0 4.19693e+09 4.19718e+09 4.1982e+09 4.203e+09 0
000 264 2 0 4.2102e+09 4.21045e+09 4.21147e+09 4.21881e+09 1
000 265 2 1 4.22628e+09 4.22654e+09 4.22756e+09 4.2276e+09 1
001 266 1 0 4.23014e+09 4.2304e+09 4.23142e+09 4.23297e+09 0
001 267 1 1 4.23615e+09 4.2364e+09 4.23742e+09 4.23854e+09 0
000 268 1 0 4.24583e+09 4.24609e+09 4.24711e+09 4.27132e+09 1
001 269 1 0 4.2745e+09 4.27476e+09 4.27578e+09 4.27655e+09 0
001 270 1 0 4.27946e+09 4.27972e+09 4.28074e+09 4.28638e+09 0
001 271 2 1 4.28886e+09 4.28911e+09 4.29013e+09 6.95288e+07 0
001 272 2 1 7.27224e+07 7.29777e+07 7.39973e+07 9.22487e+07 0
001 273 2 0 9.65448e+07 9.67968e+07 9.78164e+07 1.1848e+08 0
000 274 2 0 1.25771e+08 1.26028e+08 1.27047e+08 1.65998e+08 1
000 275 2 0 1.73093e+08 1.73347e+08 1.74366e+08 1.94298e+08 1
000 276 2 0 2.01426e+08 2.01671e+08 2.02691e+08 2.18358e+08 1
000 277 1 0 2.25635e+08 2.2588e+08 2.26899e+08 2.37709e+08 0
001 278 2 0 2.41014e+08 2.41268e+08 2.42288e+08 2.47786e+08 0
000 279 2 1 2.54862e+08 2.55126e+08 2.56146e+08 2.57429e+08 1
001 280 1 0 2.60713e+08 2.60964e+08 2.61984e+08 2.64728e+08 0
001 281 2 0 2.69267e+08 2.69523e+08 2.70543e+08 2.71998e+08 0
000 282 2 0 2.79437e+08 2.79695e+08 2.80714e+08 2.90348e+08 1
000 283 2 0 2.97447e+08 2.97693e+08 2.98713e+08 3.4336e+08 1
000 284 2 0 3.50682e+08 3.50943e+08 3.51963e+08 3.62401e+08 1
000 285 1 0 3.70089e+08 3.70342e+08 3.71362e+08 4.33025e+08 0
001 286 1 0 4.3731e+08 4.37568e+08 4.38588e+08 4.46959e+08 0
001 287 2 0 4.49378e+08 4.4963e+08 4.50649e+08 4.56352e+08 0
000 288 2 0 4.64156e+08 4.64401e+08 4.6542e+08 4.85231e+08 1
000 289 2 0 4.95348e+08 4.95601e+08 4.9662e+08 5.02579e+08 1
000 290 2 0 5.14199e+08 5.14448e+08 5.15468e+08 5.24421e+08 1
000 291 2 0 5.31738e+08 5.31999e+08 5.33018e+08 5.53944e+08 0
000 292 2 0 5.64214e+08 5.64466e+08 5.65486e+08 6.0611e+08 0
000 293 2 0 6.13265e+08 6.13514e+08 6.14534e+08 6.20359e+08 0
000 294 1 0 6.27947e+08 6.28201e+08 6.29221e+08 6.40094e+08 0
001 295 1 0 6.45501e+08 6.45759e+08 6.46779e+08 6.56626e+08 0
001 296 1 0 6.59241e+08 6.59499e+08 6.60518e+08 6.7254e+08 0
001 297 2 0 6.7568e+08 6.75933e+08 6.76953e+08 6.8681e+08 0
000 298 2 0 6.94168e+08 6.94422e+08 6.95442e+08 6.96122e+08 1
000 299 2 0 7.03458e+08 7.03703e+08 7.04723e+08 7.07474e+08 1
000 300 2 0 7.15483e+08 7.15741e+08 7.1676e+08 7.24466e+08 1
000 301 2 0 7.31614e+08 7.31864e+08 7.32884e+08 7.33016e+08 0
000 302 2 0 7.40341e+08 7.40599e+08 7.41619e+08 7.48621e+08 0
000 303 1 0 7.55849e+08 7.561e+08 7.5712e+08 7.67853e+08 0
001 304 1 0 7.70398e+08 7.70643e+08 7.71663e+08 7.88968e+08 0
001 305 1 0 7.91545e+08 7.91797e+08 7.92817e+08 7.9863e+08 0
001 306 2 1 8.01244e+08 8.01502e+08 8.02522e+08 8.09345e+08 0
001 307 1 1 8.11883e+08 8.12136e+08 8.13156e+08 8.13767e+08 0
000 308 1 0 8.21091e+08 8.21351e+08 8.22371e+08 8.24992e+08 1
001 309 1 0 8.27166e+08 8.27422e+08 8.28441e+08 8.49939e+08 0
001 310 2 1 8.53712e+08 8.5396e+08 8.5498e+08 8.74367e+08 0
001 311 2 1 8.78782e+08 8.79034e+08 8.80053e+08 9.30186e+08 0
001 312 1 0 9.3256e+08 9.32819e+08 9.33838e+08 9.35363e+08 0
001 313 1 0 9.38288e+08 9.38534e+08 9.39553e+08 9.68323e+08 0
001 314 2 0 9.72787e+08 9.73037e+08 9.74057e+08 9.91339e+08 0
000 315 2 1 9.98544e+08 9.98797e+08 9.99816e+08 1.01243e+09 1
001 316 2 1 1.01564e+09 1.01588e+09 1.0169e+09 1.0177e+09 0
001 317 1 1 1.02023e+09 1.02048e+09 1.0215e+09 1.04325e+09 0
000 318 1 1 1.0505e+09 1.05075e+09 1.05177e+09 1.0639e+09 1
000 319 1 0 1.07131e+09 1.07157e+09 1.07259e+09 1.07264e+09 1
001 320 2 1 1.0771e+09 1.07735e+09 1.07837e+09 1.09794e+09 0
001 321 2 1 1.10135e+09 1.10161e+09 1.10263e+09 1.10295e+09 0
001 322 2 1 1.10535e+09 1.1056e+09 1.10662e+09 1.13187e+09 0
001 323 1 1 1.13519e+09 1.13544e+09 1.13646e+09 1.15127e+09 0
000 324 1 0 1.15839e+09 1.15864e+09 1.15966e+09 1.16024e+09 1
001 325 2 1 1.16629e+09 1.16655e+09 1.16757e+09 1.17876e+09 0
001 326 2 1 1.18119e+09 1.18145e+09 1.18247e+09 1.18293e+09 0
001 327 1 1 1.18525e+09 1.1855e+09 1.18652e+09 1.19456e+09 0
000 328 1 1 1.20179e+09 1.20205e+09 1.20307e+09 1.20353e+09 1
000 329 1 1 1.21152e+09 1.21179e+09 1.2128e+09 1.22234e+09 1
000 330 1 1 1.22945e+09 1.22973e+09 1.23075e+09 1.23554e+09 1
000 331 1 1 1.24274e+09 1.243e+09 1.24402e+09 1.24882e+09 0
000 332 2 0 1.25629e+09 1.25655e+09 1.25757e+09 1.25945e+09 0
000 333 2 0 1.26692e+09 1.26717e+09 1.26819e+09 1.2754e+09 0
000 334 1 1 1.28369e+09 1.28394e+09 1.28496e+09 1.29035e+09 0
000 335 2 1 1.29931e+09 1.29957e+09 1.30059e+09 1.3018e+09 0
001 336 1 0 1.30923e+09 1.30947e+09 1.31049e+09 1.3287e+09 0
001 337 1 0 1.33137e+09 1.33162e+09 1.33264e+09 1.34871e+09 0
001 338 2 1 1.35446e+09 1.35472e+09 1.35574e+09 1.36398e+09 0
001 339 2 1 1.36656e+09 1.36681e+09 1.36783e+09 1.4059e+09 0
001 340 1 1 1.40852e+09 1.40878e+09 1.4098e+09 1.42102e+09 0
000 341 1 1 1.42854e+09 1.42879e+09 1.4298e+09 1.44849e+09 1
000 342 1 0 1.45576e+09 1.45601e+09 1.45703e+09 1.46351e+09 1
001 343 1 1 1.47251e+09 1.47277e+09 1.47379e+09 1.48018e+09 0
000 344 1 1 1.48725e+09 1.4875e+09 1.48852e+09 1.49822e+09 1
000 345 1 1 1.50536e+09 1.50562e+09 1.50663e+09 1.52515e+09 1
000 346 1 1 1.53243e+09 1.53269e+09 1.5337e+09 1.54581e+09 1
000 347 2 1 1.55289e+09 1.55314e+09 1.55416e+09 1.56726e+09 0
001 348 2 1 1.57108e+09 1.57134e+09 1.57236e+09 1.57891e+09 0
001 349 1 1 1.58112e+09 1.58138e+09 1.5824e+09 1.58303e+09 0
000 350 1 1 1.59042e+09 1.59068e+09 1.59169e+09 1.60831e+09 1
000 351 1 1 1.61591e+09 1.61618e+09 1.6172e+09 1.61929e+09 1
000 352 1 0 1.62645e+09 1.62671e+09 1.62773e+09 1.62789e+09 1
001 353 2 1 1.63054e+09 1.6308e+09 1.63182e+09 1.63497e+09 0
001 354 1 1 1.63775e+09 1.63799e+09 1.63901e+09 1.64475e+09 0
000 355 1 1 1.65365e+09 1.65392e+09 1.65494e+09 1.67443e+09 1
000 356 1 1 1.68188e+09 1.68213e+09 1.68315e+09 1.68319e+09 1
000 357 1 1 1.69059e+09 1.69084e+09 1.69186e+09 1.69236e+09 1
000 358 2 1 1.69953e+09 1.69977e+09 1.70079e+09 1.71016e+09 0
001 359 1 1 1.71255e+09 1.71281e+09 1.71383e+09 1.7176e+09 0
000 360 1 1 1.72466e+09 1.72491e+09 1.72593e+09 1.73737e+09 1
000 361 1 1 1.74447e+09 1.74471e+09 1.74573e+09 1.77221e+09 1
000 362 1 1 1.77935e+09 1.77961e+09 1.78063e+09 1.78933e+09 1
000 363 2 1 1.79684e+09 1.79708e+09 1.7981e+09 1.85513e+09 0
001 364 1 1 1.85919e+09 1.85944e+09 1.86046e+09 1.86801e+09 0
000 365 1 1 1.87545e+09 1.87571e+09 1.87672e+09 1.90089e+09 1
000 366 1 0 1.90839e+09 1.90864e+09 1.90966e+09 1.91757e+09 1
001 367 1 1 1.92119e+09 1.92144e+09 1.92246e+09 1.9234e+09 0
000 368 1 1 1.93071e+09 1.93096e+09 1.93198e+09 1.94503e+09 1
000 369 1 1 1.95245e+09 1.9527e+09 1.95372e+09 1.95906e+09 1
000 370 1 1 1.96654e+09 1.96679e+09 1.96781e+09 1.9728e+09 1
000 371 1 0 1.98037e+09 1.98062e+09 1.98164e+09 1.98642e+09 0
001 372 2 1 1.98871e+09 1.98896e+09 1.98998e+09 2.00791e+09 0
001 373 2 1 2.01033e+09 2.01059e+09 2.01161e+09 2.0153e+09 0
001 374 1 1 2.01786e+09 2.01811e+09 2.01913e+09 2.02014e+09 0
000 375 1 1 2.02733e+09 2.02758e+09 2.0286e+09 2.0318e+09 1
000 376 1 1 2.0393e+09 2.03956e+09 2.04058e+09 2.04097e+09 1
000 377 1 1 2.04841e+09 2.04866e+09 2.04968e+09 2.05322e+09 1
000 378 2 1 2.06074e+09 2.06099e+09 2.06201e+09 2.06615e+09 0
001 379 2 1 2.06866e+09 2.0689e+09 2.06992e+09 2.07381e+09 0
001 380 1 0 2.0761e+09 2.07635e+09 2.07737e+09 2.08503e+09 0
001 381 1 1 2.08769e+09 2.08795e+09 2.08897e+09 2.0934e+09 0
000 382 1 0 2.10155e+09 2.10181e+09 2.10283e+09 2.10909e+09 1
001 383 1 1 2.11572e+09 2.11596e+09 2.11698e+09 2.14015e+09 0
000 384 1 1 2.14761e+09 2.14786e+09 2.14888e+09 2.15674e+09 1
000 385 1 1 2.16423e+09 2.16449e+09 2.16551e+09 2.16998e+09 1
000 386 1 1 2.17725e+09 2.17751e+09 2.17853e+09 2.18234e+09 1
000 387 1 1 2.18992e+09 2.19017e+09 2.19119e+09 2.27043e+09 0
000 388 2 1 2.27774e+09 2.278e+09 2.27902e+09 2.28409e+09 0
001 389 2 1 2.28667e+09 2.28691e+09 2.28793e+09 2.29446e+09 0
001 390 2 1 2.2967e+09 2.29696e+09 2.29798e+09 2.32165e+09 0
001 391 2 1 2.32386e+09 2.32411e+09 2.32513e+09 2.33568e+09 0
001 392 2 1 2.33918e+09 2.33945e+09 2.34047e+09 2.34398e+09 0
001 393 1 1 2.34616e+09 2.34641e+09 2.34743e+09 2.35217e+09 0
000 394 1 1 2.35939e+09 2.35963e+09 2.36065e+09 2.40896e+09 1
000 395 1 0 2.41643e+09 2.41668e+09 2.4177e+09 2.42079e+09 1
001 396 1 1 2.42339e+09 2.42364e+09 2.42466e+09 2.42511e+09 0
000 397 1 1 2.43242e+09 2.43268e+09 2.4337e+09 2.43792e+09 1
000 398 1 1 2.44802e+09 2.44826e+09 2.44928e+09 2.4495e+09 1
000 399 1 1 2.45783e+09 2.45809e+09 2.4591e+09 2.46766e+09 1
000 400 1 1 2.47482e+09 2.47507e+09 2.47609e+09 2.49677e+09 0
000 401 1 1 2.50393e+09 2.50418e+09 2.5052e+09 2.50716e+09 0
000 402 1 1 2.51429e+09 2.51454e+09 2.51556e+09 2.5319e+09 0
000 403 1 1 2.53926e+09 2.5395e+09 2.54052e+09 2.56445e+09 0
000 404 2 1 2.57183e+09 2.57209e+09 2.57311e+09 2.5759e+09 0
001 405 2 0 2.57844e+09 2.57869e+09 2.57971e+09 2.58258e+09 0
000 406 2 0 2.59246e+09 2.59272e+09 2.59373e+09 2.60391e+09 1
000 407 2 0 2.61143e+09 2.61168e+09 2.6127e+09 2.61586e+09 1
000 408 2 1 2.62335e+09 2.6236e+09 2.62462e+09 2.62986e+09 1
001 409 2 1 2.63238e+09 2.63263e+09 2.63365e+09 2.6514e+09 0
001 410 1 0 2.6538e+09 2.65405e+09 2.65507e+09 2.65875e+09 0
001 411 1 0 2.66107e+09 2.66132e+09 2.66234e+09 2.6649e+09 0
001 412 1 1 2.66999e+09 2.67024e+09 2.67126e+09 2.67134e+09 0
000 413 1 1 2.68054e+09 2.68078e+09 2.6818e+09 2.68433e+09 1
000 414 1 0 2.69168e+09 2.69194e+09 2.69296e+09 2.93674e+09 1
001 415 1 0 2.93918e+09 2.93943e+09 2.94045e+09 2.94076e+09 0
001 416 2 0 2.94325e+09 2.94349e+09 2.94451e+09 2.94839e+09 0
000 