trial trialType response stillTime stimOnset stimOffset respTime correctionTrial correct
001 1 0 6.99188e+06 7.31643e+06 8.33601e+06 1.23685e+08 0 1
002 2 1 1.31322e+08 1.31604e+08 1.32624e+08 1.32698e+08 0 99
003 4 0 1.35486e+08 1.35779e+08 1.36799e+08 1.36968e+08 0 99
004 1 0 1.46947e+08 1.47208e+08 1.48228e+08 1.48899e+08 0 1
005 5 0 1.53878e+08 1.54138e+08 1.55157e+08 1.56032e+08 0 0
006 5 0 1.6634e+08 1.66606e+08 1.67625e+08 1.67633e+08 1 0
007 5 0 1.79443e+08 1.79706e+08 1.80725e+08 1.80762e+08 1 0
008 5 1 1.89319e+08 1.89574e+08 1.90593e+08 1.91211e+08 1 1
009 5 1 2.05924e+08 2.06171e+08 2.0719e+08 2.08015e+08 0 1
010 5 0 2.14135e+08 2.14382e+08 2.15402e+08 2.16517e+08 0 0
011 5 0 2.25121e+08 2.25377e+08 2.26397e+08 2.27522e+08 1 0
012 5 1 2.35642e+08 2.35904e+08 2.36923e+08 2.37001e+08 1 1
013 1 0 2.41963e+08 2.42205e+08 2.43225e+08 2.43881e+08 0 1
014 1 0 2.46434e+08 2.46699e+08 2.47719e+08 2.47801e+08 0 1
015 1 0 2.59785e+08 2.60044e+08 2.61064e+08 2.61152e+08 0 1
016 5 0 2.66155e+08 2.66407e+08 2.67427e+08 2.67479e+08 0 0
017 5 1 2.74857e+08 2.75111e+08 2.76131e+08 2.762e+08 1 1
018 2 0 2.83933e+08 2.84191e+08 2.8521e+08 2.8543e+08 0 99
019 5 0 2.92547e+08 2.92806e+08 2.93825e+08 2.9411e+08 0 0
020 5 1 3.01502e+08 3.01757e+08 3.02776e+08 3.04513e+08 1 1
021 3 1 3.07237e+08 3.07488e+08 3.08507e+08 3.08661e+08 0 99
022 5 1 3.13627e+08 3.13892e+08 3.14912e+08 3.15444e+08 0 1
023 4 1 3.18091e+08 3.18348e+08 3.19368e+08 3.20126e+08 0 99
024 5 1 3.22983e+08 3.23241e+08 3.24261e+08 3.24299e+08 0 1
025 5 0 3.31049e+08 3.31302e+08 3.32321e+08 3.36018e+08 0 0
026 5 1 3.45464e+08 3.45718e+08 3.46737e+08 3.51487e+08 1 1
027 4 0 3.54372e+08 3.54625e+08 3.55645e+08 3.55656e+08 0 99
028 5 0 3.59342e+08 3.59608e+08 3.60627e+08 3.60666e+08 0 0
029 5 0 3.69565e+08 3.69819e+08 3.70839e+08 3.71086e+08 1 0
030 5 1 3.79535e+08 3.79795e+08 3.80814e+08 3.80837e+08 1 1
031 1 0 3.83874e+08 3.84128e+08 3.85148e+08 3.85209e+08 0 1
032 5 0 3.87919e+08 3.88173e+08 3.89193e+08 3.89323e+08 0 0
033 5 1 3.96444e+08 3.96712e+08 3.97732e+08 3.9971e+08 1 1
034 5 0 4.02573e+08 4.02833e+08 4.03852e+08 4.04099e+08 0 0
035 5 1 4.13073e+08 4.13328e+08 4.14347e+08 4.14586e+08 1 1
036 1 0 4.1734e+08 4.1759e+08 4.1861e+08 4.18682e+08 0 1
037 5 1 4.25538e+08 4.2579e+08 4.2681e+08 4.28591e+08 0 1
038 1 0 4.32698e+08 4.32953e+08 4.33972e+08 4.34467e+08 0 1
039 1 0 4.38767e+08 4.39034e+08 4.40054e+08 4.40345e+08 0 1
040 1 0 4.4744e+08 4.47692e+08 4.48711e+08 4.48983e+08 0 1
041 3 0 4.56312e+08 4.56566e+08 4.57585e+08 4.57615e+08 0 99
042 1 1 4.62048e+08 4.62299e+08 4.63319e+08 4.63355e+08 0 0
043 1 0 4.75604e+08 4.75863e+08 4.76883e+08 4.76924e+08 1 1
044 3 0 4.82742e+08 4.82993e+08 4.84013e+08 4.84083e+08 0 99
045 1 0 4.8995e+08 4.90204e+08 4.91223e+08 4.91459e+08 0 1
046 5 1 4.95206e+08 4.9546e+08 4.9648e+08 4.975e+08 0 1
047 5 0 5.00243e+08 5.00495e+08 5.01515e+08 5.02032e+08 0 0
048 5 0 5.0955e+08 5.0981e+08 5.1083e+08 5.13653e+08 1 0
049 5 1 5.23003e+08 5.23254e+08 5.24274e+08 5.24317e+08 1 1
050 1 0 5.27451e+08 5.27701e+08 5.2872e+08 5.28856e+08 0 1
051 5 0 5.3461e+08 5.34873e+08 5.35893e+08 5.36853e+08 0 0
052 5 1 5.47117e+08 5.47371e+08 5.48391e+08 5.5075e+08 1 1
053 1 0 5.54968e+08 5.55221e+08 5.5624e+08 5.56718e+08 0 1
054 1 1 5.6318e+08 5.63427e+08 5.64447e+08 5.64946e+08 0 0
055 1 0 5.72029e+08 5.7228e+08 5.733e+08 5.73522e+08 1 1
056 5 1 5.76337e+08 5.76587e+08 5.77607e+08 5.78687e+08 0 1
057 1 0 5.87628e+08 5.87883e+08 5.88902e+08 5.88908e+08 0 1
058 5 1 5.94114e+08 5.94366e+08 5.95385e+08 5.95467e+08 0 1
059 2 0 5.98796e+08 5.99055e+08 6.00074e+08 6.00324e+08 0 99
060 1 0 6.03427e+08 6.03673e+08 6.04692e+08 6.04995e+08 0 1
061 1 0 6.09242e+08 6.09485e+08 6.10505e+08 6.10599e+08 0 1
062 5 1 6.13819e+08 6.14076e+08 6.15095e+08 6.15107e+08 0 1
063 5 0 6.18532e+08 6.18792e+08 6.19812e+08 6.19824e+08 0 0
064 5 1 6.27634e+08 6.27894e+08 6.28914e+08 6.35173e+08 1 1
065 5 0 6.38178e+08 6.3844e+08 6.39459e+08 6.39472e+08 0 0
066 5 0 6.50804e+08 6.51067e+08 6.52087e+08 6.5586e+08 1 0
067 5 1 6.63965e+08 6.64225e+08 6.65244e+08 6.68597e+08 1 1
068 1 0 6.7172e+08 6.71991e+08 6.73011e+08 6.73193e+08 0 1
069 1 1 6.79659e+08 6.79917e+08 6.80937e+08 6.81806e+08 0 0
070 1 1 6.89262e+08 6.89515e+08 6.90535e+08 6.90622e+08 1 0
071 1 0 7.02129e+08 7.02373e+08 7.03393e+08 7.0344e+08 1 1
072 5 0 7.08914e+08 7.09167e+08 7.10187e+08 7.10322e+08 0 0
073 5 0 7.19424e+08 7.19671e+08 7.20691e+08 7.22901e+08 1 0
074 5 1 7.31663e+08 7.31907e+08 7.32926e+08 7.33608e+08 1 1
075 1 0 7.36813e+08 7.37061e+08 7.38081e+08 7.38456e+08 0 1
076 5 1 7.4172e+08 7.41987e+08 7.43006e+08 7.43766e+08 0 1
077 4 1 7.49454e+08 7.49712e+08 7.50732e+08 7.508e+08 0 99
078 5 1 7.60195e+08 7.60443e+08 7.61463e+08 7.66616e+08 0 1
079 5 1 7.73083e+08 7.73337e+08 7.74357e+08 7.74523e+08 0 1
080 1 0 7.81413e+08 7.81664e+08 7.82684e+08 7.82755e+08 0 1
081 2 1 7.86311e+08 7.86557e+08 7.87577e+08 7.876e+08 0 99
082 1 0 7.91003e+08 7.9125e+08 7.9227e+08 7.92381e+08 0 1
083 1 0 7.96288e+08 7.96549e+08 7.97568e+08 7.98034e+08 0 1
084 1 1 8.06085e+08 8.0633e+08 8.07349e+08 8.07607e+08 0 0
085 1 0 8.178e+08 8.18062e+08 8.19082e+08 8.19458e+08 1 1
086 4 1 8.24315e+08 8.24569e+08 8.25589e+08 8.26147e+08 0 99
087 1 0 8.31468e+08 8.31727e+08 8.32746e+08 8.32755e+08 0 1
088 1 0 8.3692e+08 8.37178e+08 8.38198e+08 8.3822e+08 0 1
089 5 1 8.4174e+08 8.41987e+08 8.43007e+08 8.43237e+08 0 1
090 1 0 8.47152e+08 8.474e+08 8.4842e+08 8.48516e+08 0 1
091 1 1 8.55187e+08 8.5544e+08 8.5646e+08 8.56503e+08 0 0
092 1 1 8.63875e+08 8.64128e+08 8.65147e+08 8.6557e+08 1 0
093 1 0 8.73767e+08 8.74013e+08 8.75032e+08 8.75537e+08 1 1
094 1 1 8.83502e+08 8.83749e+08 8.84769e+08 8.84791e+08 0 0
095 1 1 8.93074e+08 8.93334e+08 8.94354e+08 8.94442e+08 1 0
096 1 0 9.03554e+08 9.038e+08 9.04819e+08 9.04991e+08 1 1
097 3 0 9.11846e+08 9.12103e+08 9.13123e+08 9.1313e+08 0 99
098 5 0 9.18273e+08 9.18538e+08 9.19558e+08 9.20089e+08 0 0
099 5 0 9.27361e+08 9.27607e+08 9.28627e+08 9.28675e+08 1 0
100 5 0 9.35955e+08 9.36212e+08 9.37232e+08 9.40336e+08 1 0
101 5 1 9.47899e+08 9.48148e+08 9.49167e+08 9.49564e+08 1 1
102 4 0 9.53472e+08 9.53723e+08 9.54742e+08 9.54762e+08 0 99
103 5 1 9.60557e+08 9.60825e+08 9.61844e+08 9.63043e+08 0 1
104 5 1 9.69788e+08 9.70048e+08 9.71068e+08 9.71319e+08 0 1
105 5 1 9.75759e+08 9.76007e+08 9.77027e+08 9.77186e+08 0 1
106 3 1 9.8666e+08 9.86907e+08 9.87926e+08 9.88369e+08 0 99
107 5 1 9.94439e+08 9.94686e+08 9.95706e+08 9.96671e+08 0 1
108 5 0 1.0042e+09 1.00446e+09 1.00548e+09 1.00603e+09 0 0
109 5 1 1.01307e+09 1.01332e+09 1.01434e+09 1.01446e+09 1 1
110 1 0 1.0208e+09 1.02105e+09 1.02207e+09 1.02216e+09 0 1
111 3 1 1.03091e+09 1.03117e+09 1.03219e+09 1.03222e+09 0 99
112 5 0 1.03626e+09 1.03651e+09 1.03753e+09 1.03931e+09 0 0
113 5 0 1.04805e+09 1.04831e+09 1.04933e+09 1.04956e+09 1 0
114 5 0 1.05705e+09 1.05731e+09 1.05833e+09 1.06291e+09 1 0
115 5 1 1.07136e+09 1.07162e+09 1.07264e+09 1.07285e+09 1 1
116 1 0 1.07729e+09 1.07754e+09 1.07856e+09 1.07893e+09 0 1
117 5 1 1.08319e+09 1.08345e+09 1.08447e+09 1.08462e+09 0 1
118 5 1 1.09095e+09 1.0912e+09 1.09222e+09 1.09454e+09 0 1
119 5 1 1.10356e+09 1.10382e+09 1.10484e+09 1.10494e+09 0 1
120 2 0 1.10948e+09 1.10973e+09 1.11075e+09 1.11076e+09 0 99
121 1 0 1.11661e+09 1.11687e+09 1.11789e+09 1.118e+09 0 1
122 3 1 1.12239e+09 1.12264e+09 1.12366e+09 1.12436e+09 0 99
123 5 1 1.1287e+09 1.12896e+09 1.12998e+09 1.13027e+09 0 1
124 2 0 1.13811e+09 1.13836e+09 1.13938e+09 1.13941e+09 0 99
125 5 1 1.14377e+09 1.14402e+09 1.14504e+09 1.14526e+09 0 1
126 4 1 1.1529e+09 1.15317e+09 1.15419e+09 1.15479e+09 0 99
127 5 1 1.16211e+09 1.16236e+09 1.16338e+09 1.1638e+09 0 1
128 1 0 1.16854e+09 1.1688e+09 1.16981e+09 1.16985e+09 0 1
129 1 0 1.17742e+09 1.17768e+09 1.1787e+09 1.17875e+09 0 1
130 4 1 1.18592e+09 1.18618e+09 1.1872e+09 1.18853e+09 0 99
131 1 1 1.19426e+09 1.19452e+09 1.19554e+09 1.1976e+09 0 0
132 1 0 1.20473e+09 1.20498e+09 1.206e+09 1.20605e+09 1 1
133 2 0 1.21085e+09 1.21111e+09 1.21213e+09 1.21217e+09 0 99
134 1 0 1.21711e+09 1.21737e+09 1.21839e+09 1.21873e+09 0 1
135 3 1 1.22438e+09 1.22465e+09 1.22566e+09 1.22568e+09 0 99
136 1 0 1.23407e+09 1.23434e+09 1.23536e+09 1.2354e+09 0 1
137 2 0 1.24082e+09 1.24108e+09 1.2421e+09 1.24227e+09 0 99
138 5 1 1.24688e+09 1.24713e+09 1.24815e+09 1.24848e+09 0 1
139 2 0 1.2534e+09 1.25366e+09 1.25468e+09 1.25471e+09 0 99
140 4 1 1.26065e+09 1.26092e+09 1.26194e+09 1.26243e+09 0 99
141 2 1 1.26834e+09 1.26859e+09 1.26961e+09 1.26963e+09 0 99
142 1 0 1.27523e+09 1.27548e+09 1.2765e+09 1.27681e+09 0 1
143 1 0 1.29089e+09 1.29115e+09 1.29217e+09 1.2922e+09 0 1
144 5 0 1.2995e+09 1.29975e+09 1.30077e+09 1.30081e+09 0 0
145 5 1 1.30853e+09 1.3088e+09 1.30981e+09 1.3105e+09 1 1
146 5 1 1.31578e+09 1.31604e+09 1.31706e+09 1.31728e+09 0 1
147 2 1 1.32353e+09 1.32378e+09 1.3248e+09 1.32507e+09 0 99
148 5 1 1.32994e+09 1.33021e+09 1.33123e+09 1.33162e+09 0 1
149 5 1 1.33678e+09 1.33704e+09 1.33806e+09 1.34091e+09 0 1
150 1 1 1.34738e+09 1.34763e+09 1.34865e+09 1.3488e+09 0 0
151 1 1 1.35901e+09 1.35926e+09 1.36028e+09 1.3605e+09 1 0
152 1 1 1.36797e+09 1.36822e+09 1.36924e+09 1.3693e+09 1 0
153 1 0 1.38444e+09 1.38469e+09 1.38571e+09 1.3859e+09 1 1
154 5 1 1.39266e+09 1.39292e+09 1.39394e+09 1.39446e+09 0 1
155 1 1 1.40272e+09 1.40298e+09 1.404e+09 1.40429e+09 0 0
156 1 1 1.4146e+09 1.41486e+09 1.41588e+09 1.41598e+09 1 0
157 1 0 1.42543e+09 1.42569e+09 1.42671e+09 1.42677e+09 1 1
158 1 0 1.43235e+09 1.4326e+09 1.43362e+09 1.43383e+09 0 1
159 5 1 1.44032e+09 1.44058e+09 1.4416e+09 1.44162e+09 0 1
160 4 1 1.45231e+09 1.45256e+09 1.45358e+09 1.45394e+09 0 99
161 1 0 1.46054e+09 1.4608e+09 1.46182e+09 1.46192e+09 0 1
162 5 0 1.46802e+09 1.46827e+09 1.46929e+09 1.46967e+09 0 0
163 5 1 1.47717e+09 1.47744e+09 1.47846e+09 1.47901e+09 1 1
164 5 0 1.48524e+09 1.48549e+09 1.48651e+09 1.48657e+09 0 0
165 5 1 1.49403e+09 1.49427e+09 1.49529e+09 1.50116e+09 1 1
166 5 0 1.51079e+09 1.51104e+09 1.51206e+09 1.51257e+09 0 0
167 5 1 1.51965e+09 1.5199e+09 1.52092e+09 1.5211e+09 1 1
168 1 0 1.52873e+09 1.529e+09 1.53002e+09 1.53039e+09 0 1
169 1 0 1.53848e+09 1.53874e+09 1.53976e+09 1.53988e+09 0 1
170 2 0 1.55378e+09 1.55404e+09 1.55505e+09 1.55532e+09 0 99
171 1 0 1.56129e+09 1.56154e+09 1.56256e+09 1.56277e+09 0 1
172 5 1 1.57206e+09 1.57232e+09 1.57334e+09 1.57345e+09 0 1
173 5 0 1.58004e+09 1.58029e+09 1.58131e+09 1.5834e+09 0 0
174 5 1 1.59082e+09 1.59109e+09 1.59211e+09 1.59239e+09 1 1
175 5 1 1.59959e+09 1.59984e+09 1.60086e+09 1.60138e+09 0 1
176 5 1 1.6087e+09 1.60895e+09 1.60997e+09 1.61001e+09 0 1
177 3 0 1.6164e+09 1.61667e+09 1.61769e+09 1.61778e+09 0 99
178 5 1 1.62744e+09 1.6277e+09 1.62872e+09 1.6293e+09 0 1
179 5 1 1.63852e+09 1.63877e+09 1.63978e+09 1.63986e+09 0 1
180 4 0 1.64847e+09 1.64873e+09 1.64975e+09 1.64978e+09 0 99
181 5 1 1.6566e+09 1.65684e+09 1.65786e+09 1.65789e+09 0 1
182 1 1 1.66378e+09 1.66404e+09 1.66506e+09 1.66585e+09 0 0
183 1 0 1.67416e+09 1.67441e+09 1.67543e+09 1.67591e+09 1 1
184 5 0 1.68313e+09 1.68339e+09 1.68441e+09 1.68497e+09 0 0
185 5 1 1.69523e+09 1.69548e+09 1.6965e+09 1.69683e+09 1 1
186 1 0 1.70519e+09 1.70544e+09 1.70646e+09 1.70676e+09 0 1
187 1 0 1.71373e+09 1.71398e+09 1.715e+09 1.71515e+09 0 1
188 1 1 1.72194e+09 1.72219e+09 1.72321e+09 1.72334e+09 0 0
189 1 0 1.73072e+09 1.73098e+09 1.732e+09 1.73218e+09 1 1
190 5 1 1.74099e+09 1.74124e+09 1.74226e+09 1.74506e+09 0 1
191 4 0 1.76362e+09 1.76388e+09 1.7649e+09 1.76492e+09 0 99
192 4 1 1.77091e+09 1.77116e+09 1.77218e+09 1.77227e+09 0 99
193 1 0 1.78153e+09 1.78178e+09 1.7828e+09 1.78288e+09 0 1
194 1 0 1.78957e+09 1.78984e+09 1.79086e+09 1.79115e+09 0 1
195 5 1 1.79835e+09 1.79862e+09 1.79964e+09 1.79976e+09 0 1
196 1 1 1.80793e+09 1.80818e+09 1.8092e+09 1.81418e+09 0 0
197 1 0 1.8226e+09 1.82286e+09 1.82388e+09 1.82408e+09 1 1
198 1 0 1.83067e+09 1.83092e+09 1.83194e+09 1.83214e+09 0 1
199 1 0 1.83996e+09 1.84022e+09 1.84124e+09 1.84129e+09 0 1
200 1 0 1.84779e+09 1.84805e+09 1.84907e+09 1.84954e+09 0 1
201 1 0 1.85583e+09 1.85608e+09 1.8571e+09 1.85724e+09 0 1
202 5 0 1.86578e+09 1.86602e+09 1.86704e+09 1.86721e+09 0 0
203 5 0 1.87592e+09 1.87618e+09 1.8772e+09 1.87728e+09 1 0
204 5 0 1.88434e+09 1.8846e+09 1.88562e+09 1.88564e+09 1 0
205 5 1 1.89399e+09 1.89425e+09 1.89527e+09 1.89542e+09 1 1
206 5 1 1.90746e+09 1.90772e+09 1.90874e+09 1.91277e+09 0 1
207 1 0 1.92075e+09 1.92103e+09 1.92205e+09 1.92222e+09 0 1
208 1 0 1.93297e+09 1.93323e+09 1.93425e+09 1.93431e+09 0 1
209 3 0 1.94342e+09 1.94368e+09 1.9447e+09 1.9449e+09 0 99
210 5 1 1.95153e+09 1.95177e+09 1.95279e+09 1.95341e+09 0 1
211 1 1 1.96199e+09 1.96224e+09 1.96326e+09 1.96444e+09 0 0
212 1 0 1.97536e+09 1.97562e+09 1.97664e+09 1.97762e+09 1 1
213 5 1 1.98551e+09 1.98577e+09 1.98679e+09 1.98734e+09 0 1
214 1 0 1.994e+09 1.99426e+09 1.99527e+09 1.9954e+09 0 1
215 1 0 2.00281e+09 2.00307e+09 2.00409e+09 2.00424e+09 0 1
216 5 1 2.01425e+09 2.0145e+09 2.01552e+09 2.01931e+09 0 1
217 3 1 2.02637e+09 2.02663e+09 2.02765e+09 2.02767e+09 0 99
218 3 1 2.03831e+09 2.03857e+09 2.03959e+09 2.03984e+09 0 99
219 5 1 2.04838e+09 2.04864e+09 2.04965e+09 2.0507e+09 0 1
220 2 0 2.0577e+09 2.05795e+09 2.05897e+09 2.05914e+09 0 99
221 1 0 2.06557e+09 2.06583e+09 2.06685e+09 2.0669e+09 0 1
222 5 1 2.07392e+09 2.07419e+09 2.07521e+09 2.0753e+09 0 1
223 1 0 2.08561e+09 2.08586e+09 2.08688e+09 2.08718e+09 0 1
224 5 1 2.09542e+09 2.09568e+09 2.0967e+09 2.09837e+09 0 1
225 1 1 2.10565e+09 2.1059e+09 2.10692e+09 2.10732e+09 0 0
226 1 1 2.11754e+09 2.11779e+09 2.11881e+09 2.11906e+09 1 0
227 1 1 2.13003e+09 2.1303e+09 2.13132e+09 2.13187e+09 1 0
228 1 0 2.13912e+09 2.13937e+09 2.14039e+09 2.14042e+09 1 1
229 2 0 2.14849e+09 2.14874e+09 2.14976e+09 2.15432e+09 0 99
230 1 0 2.16215e+09 2.1624e+09 2.16342e+09 2.16391e+09 0 1
231 4 0 2.17256e+09 2.17281e+09 2.17383e+09 2.17723e+09 0 99
232 3 1 2.18506e+09 2.18531e+09 2.18633e+09 2.1866e+09 0 99
233 1 0 2.19401e+09 2.19426e+09 2.19528e+09 2.1953e+09 0 1
234 1 0 2.20246e+09 2.20271e+09 2.20373e+09 2.20375e+09 0 1
235 1 0 2.21111e+09 2.21138e+09 2.2124e+09 2.21253e+09 0 1
236 5 1 2.22031e+09 2.22056e+09 2.22158e+09 2.22162e+09 0 1
237 5 1 2.23139e+09 2.23166e+09 2.23267e+09 2.2338e+09 0 1
238 3 0 2.24148e+09 2.24174e+09 2.24276e+09 2.24288e+09 0 99
239 5 0 2.2507e+09 2.25095e+09 2.25197e+09 2.25199e+09 0 0
240 5 1 2.26208e+09 2.26234e+09 2.26336e+09 2.26342e+09 1 1
241 2 0 2.27203e+09 2.27228e+09 2.2733e+09 2.27345e+09 0 99
242 1 0 2.28224e+09 2.28251e+09 2.28353e+09 2.28435e+09 0 1
243 5 1 2.29229e+09 2.29255e+09 2.29357e+09 2.29455e+09 0 1
244 5 0 2.30339e+09 2.30365e+09 2.30467e+09 2.30517e+09 0 0
245 5 1 2.31345e+09 2.31371e+09 2.31473e+09 2.31702e+09 1 1
246 1 0 2.3283e+09 2.32856e+09 2.32958e+09 2.32961e+09 0 1
247 5 0 2.33759e+09 2.33784e+09 2.33886e+09 2.33888e+09 0 0
248 5 1 2.34985e+09 2.35011e+09 2.35113e+09 2.352e+09 1 1
249 1 0 2.36115e+09 2.36142e+09 2.36244e+09 2.36254e+09 0 1
250 1 0 2.36981e+09 2.37007e+09 2.37109e+09 2.37118e+09 0 1
251 5 1 2.38047e+09 2.38073e+09 2.38175e+09 2.38193e+09 0 1
252 2 0 2.39036e+09 2.39061e+09 2.39163e+09 2.39195e+09 0 99
253 5 1 2.40018e+09 2.40044e+09 2.40146e+09 2.40413e+09 0 1
254 1 0 2.41332e+09 2.41358e+09 2.4146e+09 2.41516e+09 0 1
255 5 1 2.42485e+09 2.42511e+09 2.42613e+09 2.42653e+09 0 1
256 3 0 2.43407e+09 2.43433e+09 2.43535e+09 2.43577e+09 0 99
257 4 1 2.44361e+09 2.44386e+09 2.44488e+09 2.44508e+09 0 99
258 1 0 2.45475e+09 2.45502e+09 2.45604e+09 2.4562e+09 0 1
259 4 0 2.46428e+09 2.46453e+09 2.46555e+09 2.46636e+09 0 99
260 5 0 2.47404e+09 2.4743e+09 2.47532e+09 2.48131e+09 0 0
261 5 1 2.48985e+09 2.4901e+09 2.49112e+09 2.49601e+09 1 1
262 3 0 2.50641e+09 2.50667e+09 2.50769e+09 2.50783e+09 0 99
263 3 1 2.51815e+09 2.5184e+09 2.51942e+09 2.52231e+09 0 99
264 4 0 2.5311e+09 2.53136e+09 2.53238e+09 2.53279e+09 0 99
265 1 0 2.54101e+09 2.54128e+09 2.5423e+09 2.54231e+09 0 1
266 2 1 2.55107e+09 2.55133e+09 2.55235e+09 2.55262e+09 0 99
267 5 1 2.56039e+09 2.56065e+09 2.56167e+09 2.5617e+09 0 1
268 5 1 2.57012e+09 2.57039e+09 2.57141e+09 2.57166e+09 0 1
269 5 1 2.57989e+09 2.58015e+09 2.58117e+09 2.58145e+09 0 1
270 1 0 2.59185e+09 2.59211e+09 2.59313e+09 2.59334e+09 0 1
271 2 0 2.60153e+09 2.60179e+09 2.60281e+09 2.6029e+09 0 99
272 2 0 2.61055e+09 2.6108e+09 2.61182e+09 2.61209e+09 0 99
273 2 1 2.62081e+09 2.62107e+09 2.62209e+09 2.62212e+09 0 99
274 1 0 2.63102e+09 2.63127e+09 2.63229e+09 2.63268e+09 0 1
275 1 0 2.64105e+09 2.64131e+09 2.64233e+09 2.6425e+09 0 1
276 1 0 2.65019e+09 2.65044e+09 2.65146e+09 2.6515e+09 0 1
277 5 1 2.66148e+09 2.66173e+09 2.66275e+09 2.66286e+09 0 1
278 4 1 2.67217e+09 2.67243e+09 2.67345e+09 2.67648e+09 0 99
279 4 1 2.68472e+09 2.68498e+09 2.686e+09 2.68602e+09 0 99
280 5 0 2.69505e+09 2.69531e+09 2.69633e+09 2.69642e+09 0 0
281 5 0 2.70778e+09 2.70804e+09 2.70906e+09 2.7091e+09 1 0
282 5 1 2.72276e+09 2.72302e+09 2.72404e+09 2.72424e+09 1 1
283 1 0 2.73377e+09 2.73403e+09 2.73505e+09 2.73524e+09 0 1
284 5 1 2.74378e+09 2.74404e+09 2.74506e+09 2.7475e+09 0 1
285 5 1 2.75611e+09 2.75637e+09 2.75739e+09 2.75753e+09 0 1
286 4 1 2.76681e+09 2.76706e+09 2.76808e+09 2.76819e+09 0 99
287 5 0 2.77661e+09 2.77688e+09 2.7779e+09 2.7792e+09 0 0
288 5 1 2.78831e+09 2.78858e+09 2.7896e+09 2.79227e+09 1 1
289 1 0 2.80277e+09 2.80304e+09 2.80406e+09 2.80406e+09 0 1
290 1 0 2.81263e+09 2.81289e+09 2.81391e+09 2.81408e+09 0 1
291 1 0 2.82443e+09 2.82467e+09 2.82569e+09 2.82594e+09 0 1
292 5 1 2.83532e+09 2.83558e+09 2.8366e+09 2.83675e+09 0 1
293 1 1 2.84651e+09 2.84677e+09 2.84779e+09 2.84779e+09 0 0
294 1 0 2.85616e+09 2.85642e+09 2.85744e+09 2.85748e+09 1 1
295 1 0 2.86687e+09 2.86712e+09 2.86814e+09 2.86815e+09 0 1
296 1 0 2.8786e+09 2.87885e+09 2.87987e+09 2.87988e+09 0 1
297 5 1 2.88961e+09 2.88987e+09 2.89089e+09 2.89345e+09 0 1
298 4 1 2.90288e+09 2.90314e+09 2.90416e+09 2.90677e+09 0 99
299 5 1 2.91807e+09 2.91833e+09 2.91935e+09 2.91951e+09 0 1
300 5 1 2.92894e+09 2.9292e+09 2.93022e+09 2.93024e+09 0 1
301 1 0 2.93916e+09 2.93941e+09 2.94043e+09 2.94059e+09 0 1
302 1 1 2.94931e+09 2.94958e+09 2.9506e+09 2.95067e+09 0 0
303 1 0 2.96187e+09 2.96213e+09 2.96314e+09 2.96321e+09 1 1
304 1 0 2.97222e+09 2.97247e+09 2.97349e+09 2.97349e+09 0 1
305 1 1 2.98418e+09 2.98442e+09 2.98544e+09 2.98546e+09 0 0
306 1 0 2.99544e+09 2.9957e+09 2.99672e+09 2.99681e+09 1 1
307 3 0 3.00599e+09 3.00625e+09 3.00727e+09 3.00744e+09 0 99
308 5 1 3.01881e+09 3.01907e+09 3.02009e+09 3.02039e+09 0 1
309 5 1 3.0303e+09 3.03055e+09 3.03157e+09 3.03187e+09 0 1
310 1 0 3.04072e+09 3.04098e+09 3.042e+09 3.04211e+09 0 1
311 5 1 3.05325e+09 3.0535e+09 3.05452e+09 3.05616e+09 0 1
312 5 1 3.06683e+09 3.06709e+09 3.06811e+09 3.06866e+09 0 1
313 1 0 3.07729e+09 3.07754e+09 3.07856e+09 3.07861e+09 0 1
314 2 1 3.08737e+09 3.08762e+09 3.08864e+09 3.08889e+09 0 99
315 5 1 3.09762e+09 3.09788e+09 3.09889e+09 3.10258e+09 0 1
316 5 1 3.11161e+09 3.11187e+09 3.11289e+09 3.1134e+09 0 1
317 5 0 3.12599e+09 3.12624e+09 3.12726e+09 3.13623e+09 0 0
318 5 0 3.14585e+09 3.14612e+09 3.14713e+09 3.1576e+09 1 0
319 5 0 3.16802e+09 3.16828e+09 3.1693e+09 3.17219e+09 1 0
320 5 0 3.18229e+09 3.18255e+09 3.18356e+09 3.18954e+09 1 0
321 5 0 3.20031e+09 3.20056e+09 3.20158e+09 3.20383e+09 0 0
322 5 0 3.21419e+09 3.21444e+09 3.21546e+09 3.22166e+09 0 0
323 5 0 3.23112e+09 3.23137e+09 3.23239e+09 3.2344e+09 0 0
324 1 0 3.24385e+09 3.2441e+09 3.24512e+09 3.24532e+09 0 1
325 1 0 3.25519e+09 3.25545e+09 3.25647e+09 3.25653e+09 0 1
326 1 0 3.26553e+09 3.26577e+09 3.26679e+09 3.26711e+09 0 1
327 4 1 3.27716e+09 3.27742e+09 3.27844e+09 3.28275e+09 0 99
328 1 0 3.29193e+09 3.29218e+09 3.2932e+09 3.29323e+09 0 1
329 5 1 3.30429e+09 3.30456e+09 3.30558e+09 3.3068e+09 0 1
330 5 0 3.31595e+09 3.31621e+09 3.31723e+09 3.3175e+09 0 0
331 5 0 3.32886e+09 3.32912e+09 3.33014e+09 3.33168e+09 1 0
332 5 0 3.34166e+09 3.34192e+09 3.34294e+09 3.34395e+09 1 0
333 5 0 3.35405e+09 3.35431e+09 3.35533e+09 3.39082e+09 1 0
334 5 0 3.40057e+09 3.40081e+09 3.40183e+09 3.40869e+09 0 0
335 5 1 3.41955e+09 3.41981e+09 3.42083e+09 3.42918e+09 0 1
336 2 0 3.43994e+09 3.4402e+09 3.44122e+09 3.44866e+09 0 99
337 5 0 3.45864e+09 3.4589e+09 3.45992e+09 3.47112e+09 0 0
338 5 0 3.48178e+09 3.48202e+09 3.48304e+09 3.49288e+09 1 0
339 5 0 3.50336e+09 3.50362e+09 3.50464e+09 3.54955e+09 1 0
340 5 0 3.55887e+09 3.55912e+09 3.56014e+09 3.56994e+09 1 0
341 5 0 3.57958e+09 3.57983e+09 3.58085e+09 3.68409e+09 0 0
342 3 0 3.6938e+09 3.69405e+09 3.69507e+09 3.69571e+09 0 99
343 2 1 3.70633e+09 3.70659e+09 3.7076e+09 3.70765e+09 0 99
344 3 1 3.71733e+09 3.71758e+09 3.7186e+09 3.73022e+09 0 99
345 1 0 3.74004e+09 3.74029e+09 3.74131e+09 3.79449e+09 0 1
346 1 0 3.80391e+09 3.80417e+09 3.80519e+09 3.80568e+09 0 1
347 3 0 3.8162e+09 3.81644e+09 3.81746e+09 3.81799e+09 0 99
348 1 0 3.8296e+09 3.82985e+09 3.83087e+09 3.83246e+09 0 1
349 5 0 3.84199e+09 3.84225e+09 3.84327e+09 3.84466e+09 0 0
350 5 0 3.85508e+09 3.85534e+09 3.85636e+09 3.85876e+09 1 0
351 5 0 3.86854e+09 3.8688e+09 3.86982e+09 3.86998e+09 1 0
352 5 1 3.88223e+09 3.88249e+09 3.88351e+09 3.88967e+09 1 1
353 5 0 3.89933e+09 3.89959e+09 3.90061e+09 3.90393e+09 0 0
354 5 0 3.9151e+09 3.91535e+09 3.91637e+09 3.92497e+09 1 0
355 5 0 3.93494e+09 3.93519e+09 3.93621e+09 3.93632e+09 1 0
356 5 1 3.94812e+09 3.94837e+09 3.94939e+09 3.95253e+09 1 1
357 1 0 3.96371e+09 3.96395e+09 3.96497e+09 3.96662e+09 0 1
358 1 0 3.97725e+09 3.9775e+09 3.97852e+09 3.98783e+09 0 1
359 1 1 3.9975e+09 3.99775e+09 3.99877e+09 3.9989e+09 0 0
360 1 0 4.00873e+09 4.00898e+09 4.01e+09 4.09141e+09 1 1
