trial trialType response stillTime stimOnset stimOffset respTime correctionTrial correct
001 2 1 1.11073e+07 1.14285e+07 1.24481e+07 1.25225e+07 0 1
002 2 1 1.82108e+07 1.84939e+07 1.95135e+07 2.0872e+07 0 1
003 1 0 2.92086e+07 2.95141e+07 3.05337e+07 3.05501e+07 0 1
004 2 1 3.72879e+07 3.75507e+07 3.85703e+07 3.91987e+07 0 1
005 2 0 4.53653e+07 4.56204e+07 4.664e+07 4.66558e+07 0 0
006 2 1 5.49325e+07 5.51968e+07 5.62164e+07 5.62235e+07 1 1
007 2 1 5.952e+07 5.97834e+07 6.0803e+07 6.13417e+07 0 1
008 1 0 6.6902e+07 6.71727e+07 6.81923e+07 6.86641e+07 0 1
009 1 0 7.36707e+07 7.39336e+07 7.49532e+07 7.5185e+07 0 1
010 2 1 7.79418e+07 7.82066e+07 7.92262e+07 8.10263e+07 0 1
011 2 1 8.56187e+07 8.58795e+07 8.6899e+07 8.72124e+07 0 1
012 1 0 9.2075e+07 9.23543e+07 9.33739e+07 9.36343e+07 0 1
013 2 1 1.05103e+08 1.0536e+08 1.0638e+08 1.06975e+08 0 1
014 1 0 1.12545e+08 1.12819e+08 1.13839e+08 1.13877e+08 0 1
015 2 0 1.19153e+08 1.19417e+08 1.20436e+08 1.21571e+08 0 0
016 2 1 1.28601e+08 1.28855e+08 1.29875e+08 1.30944e+08 1 1
017 1 0 1.38596e+08 1.3885e+08 1.3987e+08 1.40018e+08 0 1
018 2 1 1.44431e+08 1.44698e+08 1.45718e+08 1.47213e+08 0 1
019 1 0 1.54833e+08 1.551e+08 1.5612e+08 1.56499e+08 0 1
020 2 1 1.60657e+08 1.60912e+08 1.61931e+08 1.62355e+08 0 1
021 2 1 1.68758e+08 1.69009e+08 1.70029e+08 1.70654e+08 0 1
022 1 0 1.75924e+08 1.76185e+08 1.77205e+08 1.77349e+08 0 1
023 2 1 1.82843e+08 1.83099e+08 1.84119e+08 1.85087e+08 0 1
024 1 0 1.90237e+08 1.90496e+08 1.91515e+08 1.91771e+08 0 1
025 2 1 1.9438e+08 1.94637e+08 1.95657e+08 1.9582e+08 0 1
026 2 1 2.00805e+08 2.0105e+08 2.0207e+08 2.02286e+08 0 1
027 1 0 2.0758e+08 2.0784e+08 2.08859e+08 2.08997e+08 0 1
028 2 1 2.13655e+08 2.13908e+08 2.14927e+08 2.15698e+08 0 1
029 1 0 2.18549e+08 2.18812e+08 2.19831e+08 2.20301e+08 0 1
030 1 1 2.27919e+08 2.28179e+08 2.29199e+08 2.29312e+08 0 0
031 1 0 2.37477e+08 2.37736e+08 2.38756e+08 2.38776e+08 1 1
032 2 1 2.41658e+08 2.41906e+08 2.42926e+08 2.43128e+08 0 1
033 1 0 2.47865e+08 2.48126e+08 2.49146e+08 2.49503e+08 0 1
034 2 0 2.55468e+08 2.55738e+08 2.56757e+08 2.58001e+08 0 0
035 2 1 2.65344e+08 2.65609e+08 2.66629e+08 2.68556e+08 1 1
036 1 1 2.74828e+08 2.75092e+08 2.76112e+08 2.76143e+08 0 0
037 1 1 2.87468e+08 2.87717e+08 2.88737e+08 2.88754e+08 1 0
038 1 0 2.97164e+08 2.97417e+08 2.98437e+08 2.98454e+08 1 1
039 1 0 3.0101e+08 3.01276e+08 3.02295e+08 3.0252e+08 0 1
040 2 1 3.08172e+08 3.08431e+08 3.0945e+08 3.11111e+08 0 1
041 2 1 3.16805e+08 3.17067e+08 3.18087e+08 3.19684e+08 0 1
042 1 0 3.22437e+08 3.22687e+08 3.23707e+08 3.23846e+08 0 1
043 1 1 3.29529e+08 3.29788e+08 3.30808e+08 3.31046e+08 0 0
044 1 1 3.38877e+08 3.39123e+08 3.40142e+08 3.40418e+08 1 0
045 1 0 3.48793e+08 3.49041e+08 3.50061e+08 3.50079e+08 1 1
046 1 1 3.56518e+08 3.56778e+08 3.57798e+08 3.57811e+08 0 0
047 1 1 3.66495e+08 3.6675e+08 3.67769e+08 3.67776e+08 1 0
048 1 1 3.76055e+08 3.76311e+08 3.77331e+08 3.77527e+08 1 0
049 1 0 3.84758e+08 3.85017e+08 3.86037e+08 3.8606e+08 1 1
050 2 1 3.88915e+08 3.89168e+08 3.90188e+08 3.9025e+08 0 1
051 2 1 3.95718e+08 3.95983e+08 3.97002e+08 3.98356e+08 0 1
052 2 1 4.04801e+08 4.05065e+08 4.06085e+08 4.06128e+08 0 1
053 1 1 4.14217e+08 4.14477e+08 4.15497e+08 4.15784e+08 0 0
054 1 0 4.2412e+08 4.24369e+08 4.25388e+08 4.25813e+08 1 1
055 2 0 4.28564e+08 4.28813e+08 4.29832e+08 4.29894e+08 0 0
056 2 1 4.40114e+08 4.40371e+08 4.4139e+08 4.41491e+08 1 1
057 2 1 4.4411e+08 4.44362e+08 4.45382e+08 4.45473e+08 0 1
058 2 1 4.48141e+08 4.48402e+08 4.49421e+08 4.49936e+08 0 1
059 2 1 4.52558e+08 4.52805e+08 4.53824e+08 4.53886e+08 0 1
060 1 1 4.59403e+08 4.59658e+08 4.60678e+08 4.60806e+08 0 0
061 1 1 4.68863e+08 4.69117e+08 4.70136e+08 4.7184e+08 1 0
062 1 0 4.79033e+08 4.79286e+08 4.80306e+08 4.80363e+08 1 1
063 1 1 4.85213e+08 4.85471e+08 4.86491e+08 4.86696e+08 0 0
064 1 0 4.94458e+08 4.94711e+08 4.95731e+08 4.95759e+08 1 1
065 1 1 5.02446e+08 5.02699e+08 5.03719e+08 5.04306e+08 0 0
066 1 0 5.13563e+08 5.13814e+08 5.14833e+08 5.14835e+08 1 1
067 2 0 5.17911e+08 5.18162e+08 5.19181e+08 5.19377e+08 0 0
068 2 1 5.27773e+08 5.28028e+08 5.29047e+08 5.29271e+08 1 1
069 1 0 5.35212e+08 5.35472e+08 5.36492e+08 5.36497e+08 0 1
070 1 1 5.3941e+08 5.39664e+08 5.40684e+08 5.41378e+08 0 0
071 1 0 5.52063e+08 5.52313e+08 5.53333e+08 5.53353e+08 1 1
072 1 0 5.60052e+08 5.60315e+08 5.61334e+08 5.61346e+08 0 1
073 1 0 5.63971e+08 5.64223e+08 5.65242e+08 5.65286e+08 0 1
074 1 1 5.67795e+08 5.68053e+08 5.69073e+08 5.69188e+08 0 0
075 1 0 5.77349e+08 5.77609e+08 5.78629e+08 5.7867e+08 1 1
076 2 0 5.81455e+08 5.81714e+08 5.82734e+08 5.83089e+08 0 0
077 2 1 5.90607e+08 5.90869e+08 5.91889e+08 5.91925e+08 1 1
078 2 1 5.94456e+08 5.94705e+08 5.95725e+08 5.95746e+08 0 1
079 1 0 6.03898e+08 6.04164e+08 6.05183e+08 6.05459e+08 0 1
080 2 1 6.0812e+08 6.08371e+08 6.0939e+08 6.09467e+08 0 1
081 2 0 6.15638e+08 6.15895e+08 6.16914e+08 6.17813e+08 0 0
082 2 1 6.26018e+08 6.26276e+08 6.27296e+08 6.27344e+08 1 1
083 1 0 6.29952e+08 6.30204e+08 6.31223e+08 6.31496e+08 0 1
084 1 0 6.33987e+08 6.34243e+08 6.35262e+08 6.3527e+08 0 1
085 2 1 6.37807e+08 6.3806e+08 6.3908e+08 6.39089e+08 0 1
086 2 0 6.41755e+08 6.42009e+08 6.43028e+08 6.43055e+08 0 0
087 2 0 6.52065e+08 6.52327e+08 6.53346e+08 6.54994e+08 1 0
088 2 0 6.63752e+08 6.64006e+08 6.65026e+08 6.65717e+08 1 0
089 2 1 6.75378e+08 6.75629e+08 6.76649e+08 6.76992e+08 1 1
090 1 0 6.79772e+08 6.80024e+08 6.81044e+08 6.81157e+08 0 1
091 1 1 6.86795e+08 6.87049e+08 6.88068e+08 6.88077e+08 0 0
092 1 1 6.95242e+08 6.95501e+08 6.96521e+08 6.96541e+08 1 0
093 1 0 7.05867e+08 7.06119e+08 7.07139e+08 7.07529e+08 1 1
094 2 1 7.15671e+08 7.15923e+08 7.16943e+08 7.19177e+08 0 1
095 1 0 7.2192e+08 7.22174e+08 7.23194e+08 7.23611e+08 0 1
096 1 0 7.3015e+08 7.30399e+08 7.31418e+08 7.31553e+08 0 1
097 2 1 7.34251e+08 7.34517e+08 7.35537e+08 7.35797e+08 0 1
098 2 0 7.38722e+08 7.38981e+08 7.40001e+08 7.42349e+08 0 0
099 2 1 7.50539e+08 7.50793e+08 7.51813e+08 7.52343e+08 1 1
100 1 0 7.54973e+08 7.55221e+08 7.56241e+08 7.56287e+08 0 1
101 2 1 7.58779e+08 7.59032e+08 7.60052e+08 7.60296e+08 0 1
102 1 0 7.65972e+08 7.66223e+08 7.67243e+08 7.67318e+08 0 1
103 2 1 7.70169e+08 7.70421e+08 7.71441e+08 7.71461e+08 0 1
104 2 1 7.78745e+08 7.78993e+08 7.80013e+08 7.80175e+08 0 1
105 2 1 7.85812e+08 7.86065e+08 7.87084e+08 7.87432e+08 0 1
106 2 1 7.90271e+08 7.90528e+08 7.91548e+08 7.91702e+08 0 1
107 1 0 7.94462e+08 7.94714e+08 7.95733e+08 7.95864e+08 0 1
108 2 1 7.9874e+08 7.98989e+08 8.00009e+08 8.0008e+08 0 1
109 1 0 8.02878e+08 8.0313e+08 8.0415e+08 8.04221e+08 0 1
110 1 1 8.07126e+08 8.0737e+08 8.08389e+08 8.08525e+08 0 0
111 1 1 8.17014e+08 8.17277e+08 8.18296e+08 8.18412e+08 1 0
112 1 0 8.26854e+08 8.27113e+08 8.28132e+08 8.28151e+08 1 1
113 2 1 8.3415e+08 8.34404e+08 8.35424e+08 8.37099e+08 0 1
114 1 0 8.39756e+08 8.39999e+08 8.41018e+08 8.4139e+08 0 1
115 1 0 8.44012e+08 8.44268e+08 8.45288e+08 8.45308e+08 0 1
116 1 0 8.51327e+08 8.51587e+08 8.52607e+08 8.52619e+08 0 1
117 1 0 8.55243e+08 8.55499e+08 8.56518e+08 8.56613e+08 0 1
118 2 1 8.59478e+08 8.59734e+08 8.60753e+08 8.60886e+08 0 1
119 1 0 8.63859e+08 8.64106e+08 8.65126e+08 8.65277e+08 0 1
120 1 0 8.75069e+08 8.75337e+08 8.76357e+08 8.76431e+08 0 1
121 1 0 8.79168e+08 8.79412e+08 8.80432e+08 8.8049e+08 0 1
122 2 0 8.83045e+08 8.83301e+08 8.8432e+08 8.84346e+08 0 0
123 2 0 8.92985e+08 8.93236e+08 8.94256e+08 8.96948e+08 1 0
124 2 0 9.03995e+08 9.04248e+08 9.05268e+08 9.06157e+08 1 0
125 2 0 9.14936e+08 9.1518e+08 9.16199e+08 9.1637e+08 1 0
126 2 1 9.25752e+08 9.26018e+08 9.27038e+08 9.28444e+08 0 1
127 2 1 9.34921e+08 9.35182e+08 9.36201e+08 9.37351e+08 0 1
128 1 0 9.4139e+08 9.41653e+08 9.42673e+08 9.42689e+08 0 1
129 2 1 9.45192e+08 9.45442e+08 9.46461e+08 9.46894e+08 0 1
130 1 0 9.53433e+08 9.53678e+08 9.54697e+08 9.54717e+08 0 1
131 2 0 9.60016e+08 9.60267e+08 9.61287e+08 9.64392e+08 0 0
132 2 1 9.74086e+08 9.74347e+08 9.75367e+08 9.79069e+08 1 1
133 1 0 9.86544e+08 9.86806e+08 9.87825e+08 9.88011e+08 0 1
134 1 0 9.91533e+08 9.91791e+08 9.9281e+08 9.92903e+08 0 1
135 2 0 9.98238e+08 9.98493e+08 9.99512e+08 9.99677e+08 0 0
136 2 0 1.00798e+09 1.00823e+09 1.00925e+09 1.012e+09 1 0
137 2 0 1.01968e+09 1.01994e+09 1.02096e+09 1.02103e+09 1 0
138 2 1 1.02828e+09 1.02854e+09 1.02956e+09 1.03058e+09 1 1
139 2 0 1.03776e+09 1.03802e+09 1.03904e+09 1.03915e+09 0 0
140 2 1 1.04659e+09 1.04686e+09 1.04788e+09 1.05052e+09 1 1
141 1 0 1.05697e+09 1.05722e+09 1.05824e+09 1.05825e+09 0 1
142 2 0 1.06483e+09 1.06509e+09 1.06611e+09 1.06723e+09 0 0
143 2 1 1.07662e+09 1.07688e+09 1.0779e+09 1.07813e+09 1 1
144 2 1 1.08441e+09 1.08468e+09 1.0857e+09 1.08571e+09 0 1
145 2 1 1.09031e+09 1.09057e+09 1.09159e+09 1.09163e+09 0 1
146 2 1 1.09518e+09 1.09543e+09 1.09645e+09 1.09667e+09 0 1
147 1 0 1.10085e+09 1.10111e+09 1.10213e+09 1.10229e+09 0 1
148 1 1 1.10498e+09 1.10524e+09 1.10626e+09 1.10628e+09 0 0
149 1 0 1.1152e+09 1.11546e+09 1.11648e+09 1.11653e+09 1 1
150 2 0 1.11903e+09 1.11929e+09 1.12031e+09 1.12151e+09 0 0
151 2 1 1.12953e+09 1.12978e+09 1.1308e+09 1.13152e+09 1 1
152 2 1 1.13411e+09 1.13437e+09 1.13539e+09 1.13661e+09 0 1
153 2 1 1.1424e+09 1.14266e+09 1.14368e+09 1.14671e+09 0 1
154 1 0 1.15206e+09 1.15231e+09 1.15333e+09 1.15335e+09 0 1
155 1 1 1.16106e+09 1.16132e+09 1.16234e+09 1.16235e+09 0 0
156 1 0 1.17095e+09 1.1712e+09 1.17222e+09 1.17238e+09 1 1
157 1 0 1.17516e+09 1.17542e+09 1.17644e+09 1.17655e+09 0 1
158 1 1 1.18281e+09 1.18306e+09 1.18408e+09 1.18422e+09 0 0
159 1 0 1.19207e+09 1.19232e+09 1.19334e+09 1.19348e+09 1 1
160 1 0 1.1961e+09 1.19636e+09 1.19738e+09 1.19748e+09 0 1
161 2 1 1.20008e+09 1.20035e+09 1.20136e+09 1.20144e+09 0 1
162 1 0 1.20394e+09 1.20419e+09 1.20521e+09 1.20526e+09 0 1
163 1 1 1.20807e+09 1.20832e+09 1.20934e+09 1.20938e+09 0 0
164 1 0 1.21668e+09 1.21694e+09 1.21796e+09 1.21797e+09 1 1
165 1 0 1.22069e+09 1.22095e+09 1.22197e+09 1.22204e+09 0 1
166 2 1 1.22466e+09 1.22493e+09 1.22595e+09 1.226e+09 0 1
167 1 0 1.22871e+09 1.22897e+09 1.22999e+09 1.23016e+09 0 1
168 2 1 1.23601e+09 1.23626e+09 1.23727e+09 1.23735e+09 0 1
169 2 1 1.24019e+09 1.24044e+09 1.24146e+09 1.24148e+09 0 1
170 2 1 1.2471e+09 1.24736e+09 1.24838e+09 1.24843e+09 0 1
171 1 0 1.25703e+09 1.25729e+09 1.25831e+09 1.25845e+09 0 1
172 2 0 1.2639e+09 1.26416e+09 1.26518e+09 1.26534e+09 0 0
173 2 1 1.2747e+09 1.27495e+09 1.27597e+09 1.27807e+09 1 1
174 1 1 1.28081e+09 1.28106e+09 1.28208e+09 1.28212e+09 0 0
175 1 1 1.28974e+09 1.28998e+09 1.291e+09 1.29121e+09 1 0
176 1 1 1.29965e+09 1.29991e+09 1.30093e+09 1.30095e+09 1 0
177 1 0 1.30868e+09 1.30893e+09 1.30995e+09 1.30996e+09 1 1
178 1 0 1.31634e+09 1.3166e+09 1.31762e+09 1.3178e+09 0 1
179 2 1 1.32272e+09 1.32298e+09 1.324e+09 1.32444e+09 0 1
180 1 1 1.33377e+09 1.33402e+09 1.33504e+09 1.33505e+09 0 0
181 1 0 1.34431e+09 1.34456e+09 1.34558e+09 1.34559e+09 1 1
182 2 1 1.35298e+09 1.35323e+09 1.35425e+09 1.35466e+09 0 1
183 1 0 1.35983e+09 1.36008e+09 1.3611e+09 1.36127e+09 0 1
184 2 1 1.36704e+09 1.36728e+09 1.3683e+09 1.36905e+09 0 1
185 2 1 1.3718e+09 1.37205e+09 1.37307e+09 1.37311e+09 0 1
186 2 0 1.37737e+09 1.37762e+09 1.37864e+09 1.37882e+09 0 0
187 2 1 1.38634e+09 1.38659e+09 1.38761e+09 1.39179e+09 1 1
188 1 1 1.39761e+09 1.39786e+09 1.39888e+09 1.39891e+09 0 0
189 1 1 1.40605e+09 1.40631e+09 1.40732e+09 1.40735e+09 1 0
190 1 0 1.41524e+09 1.41549e+09 1.41651e+09 1.41652e+09 1 1
191 1 1 1.41916e+09 1.41942e+09 1.42044e+09 1.42047e+09 0 0
192 1 0 1.42799e+09 1.42824e+09 1.42926e+09 1.42934e+09 1 1
193 2 1 1.43206e+09 1.43232e+09 1.43334e+09 1.43364e+09 0 1
194 1 0 1.43999e+09 1.44025e+09 1.44127e+09 1.44138e+09 0 1
195 1 0 1.44399e+09 1.44425e+09 1.44527e+09 1.44538e+09 0 1
196 1 0 1.4479e+09 1.44816e+09 1.44918e+09 1.4493e+09 0 1
197 2 0 1.45182e+09 1.45208e+09 1.4531e+09 1.45317e+09 0 0
198 2 1 1.46122e+09 1.46148e+09 1.4625e+09 1.46337e+09 1 1
199 2 1 1.46605e+09 1.4663e+09 1.46732e+09 1.4674e+09 0 1
200 1 0 1.47005e+09 1.47032e+09 1.47134e+09 1.47143e+09 0 1
201 1 0 1.47599e+09 1.47625e+09 1.47727e+09 1.4774e+09 0 1
202 1 0 1.4802e+09 1.48047e+09 1.48149e+09 1.48151e+09 0 1
203 2 1 1.48432e+09 1.48457e+09 1.48559e+09 1.4856e+09 0 1
204 1 0 1.48849e+09 1.48875e+09 1.48977e+09 1.48995e+09 0 1
205 1 0 1.49264e+09 1.4929e+09 1.49392e+09 1.49396e+09 0 1
206 1 0 1.49681e+09 1.49706e+09 1.49808e+09 1.49823e+09 0 1
207 1 0 1.50124e+09 1.5015e+09 1.50252e+09 1.5027e+09 0 1
208 1 0 1.50524e+09 1.50548e+09 1.5065e+09 1.5066e+09 0 1
209 1 0 1.50927e+09 1.50952e+09 1.51054e+09 1.51114e+09 0 1
210 2 0 1.51405e+09 1.51431e+09 1.51533e+09 1.51548e+09 0 0
211 2 1 1.52256e+09 1.52281e+09 1.52383e+09 1.52385e+09 1 1
212 1 0 1.52641e+09 1.52666e+09 1.52768e+09 1.52769e+09 0 1
213 2 1 1.53327e+09 1.53353e+09 1.53455e+09 1.53457e+09 0 1
214 2 1 1.53729e+09 1.53754e+09 1.53856e+09 1.53867e+09 0 1
215 2 1 1.54134e+09 1.5416e+09 1.54262e+09 1.54263e+09 0 1
216 2 1 1.54534e+09 1.54558e+09 1.5466e+09 1.54667e+09 0 1
217 2 1 1.55254e+09 1.5528e+09 1.55382e+09 1.55383e+09 0 1
218 2 1 1.55671e+09 1.55696e+09 1.55798e+09 1.55849e+09 0 1
219 1 1 1.56126e+09 1.56151e+09 1.56253e+09 1.56258e+09 0 0
220 1 0 1.57192e+09 1.57217e+09 1.57319e+09 1.57328e+09 1 1
221 1 0 1.57613e+09 1.57638e+09 1.5774e+09 1.57752e+09 0 1
222 2 1 1.5805e+09 1.58076e+09 1.58178e+09 1.58182e+09 0 1
223 2 1 1.58482e+09 1.58508e+09 1.5861e+09 1.58612e+09 0 1
224 2 1 1.58888e+09 1.58914e+09 1.59016e+09 1.59028e+09 0 1
225 1 0 1.59303e+09 1.59328e+09 1.5943e+09 1.59435e+09 0 1
226 2 0 1.60029e+09 1.60055e+09 1.60157e+09 1.60158e+09 0 0
227 2 1 1.61129e+09 1.61155e+09 1.61257e+09 1.61335e+09 1 1
228 1 0 1.61618e+09 1.61643e+09 1.61745e+09 1.61746e+09 0 1
229 2 0 1.62004e+09 1.6203e+09 1.62132e+09 1.62134e+09 0 0
230 2 1 1.62923e+09 1.62949e+09 1.6305e+09 1.63053e+09 1 1
231 1 0 1.63398e+09 1.63424e+09 1.63526e+09 1.6353e+09 0 1
232 1 0 1.63786e+09 1.63811e+09 1.63913e+09 1.63928e+09 0 1
233 1 0 1.64187e+09 1.64212e+09 1.64314e+09 1.64329e+09 0 1
234 2 1 1.6495e+09 1.64976e+09 1.65078e+09 1.6508e+09 0 1
235 2 1 1.65355e+09 1.6538e+09 1.65482e+09 1.65487e+09 0 1
236 1 0 1.65764e+09 1.6579e+09 1.65892e+09 1.65894e+09 0 1
237 2 1 1.66497e+09 1.66521e+09 1.66623e+09 1.66629e+09 0 1
238 1 0 1.66884e+09 1.66911e+09 1.67013e+09 1.67033e+09 0 1
239 1 0 1.67303e+09 1.67328e+09 1.6743e+09 1.6745e+09 0 1
240 2 1 1.67729e+09 1.67754e+09 1.67856e+09 1.67857e+09 0 1
241 2 1 1.6832e+09 1.68346e+09 1.68448e+09 1.68492e+09 0 1
242 2 1 1.69093e+09 1.69117e+09 1.69219e+09 1.69221e+09 0 1
243 1 0 1.69507e+09 1.69533e+09 1.69635e+09 1.69644e+09 0 1
244 1 1 1.69894e+09 1.69919e+09 1.7002e+09 1.70023e+09 0 0
245 1 0 1.71225e+09 1.7125e+09 1.71352e+09 1.71353e+09 1 1
246 2 1 1.71604e+09 1.7163e+09 1.71732e+09 1.71738e+09 0 1
247 1 0 1.72183e+09 1.72208e+09 1.7231e+09 1.72349e+09 0 1
248 1 0 1.72609e+09 1.72635e+09 1.72737e+09 1.72755e+09 0 1
249 2 1 1.7303e+09 1.73055e+09 1.73157e+09 1.73174e+09 0 1
250 2 1 1.73458e+09 1.73484e+09 1.73586e+09 1.73591e+09 0 1
251 2 1 1.73878e+09 1.73903e+09 1.74005e+09 1.74033e+09 0 1
252 2 1 1.74303e+09 1.74329e+09 1.74431e+09 1.74432e+09 0 1
253 2 1 1.74979e+09 1.75005e+09 1.75107e+09 1.75116e+09 0 1
254 1 0 1.75416e+09 1.75442e+09 1.75544e+09 1.75568e+09 0 1
255 1 0 1.75833e+09 1.75858e+09 1.7596e+09 1.75972e+09 0 1
256 2 0 1.76256e+09 1.76281e+09 1.76383e+09 1.76393e+09 0 0
257 2 0 1.77145e+09 1.77172e+09 1.77274e+09 1.77319e+09 1 0
258 2 1 1.78044e+09 1.78069e+09 1.78171e+09 1.78769e+09 1 1
259 2 0 1.79022e+09 1.79047e+09 1.79149e+09 1.79157e+09 0 0
260 2 1 1.79862e+09 1.79888e+09 1.7999e+09 1.79996e+09 1 1
261 1 0 1.80402e+09 1.80427e+09 1.80529e+09 1.80537e+09 0 1
262 1 0 1.80815e+09 1.8084e+09 1.80942e+09 1.80949e+09 0 1
263 2 0 1.812e+09 1.81225e+09 1.81327e+09 1.8133e+09 0 0
264 2 0 1.8205e+09 1.82076e+09 1.82178e+09 1.82303e+09 1 0
265 2 0 1.8305e+09 1.83074e+09 1.83176e+09 1.83302e+09 1 0
266 2 1 1.84027e+09 1.84052e+09 1.84154e+09 1.84333e+09 1 1
267 1 0 1.84588e+09 1.84613e+09 1.84715e+09 1.84749e+09 0 1
268 2 1 1.85027e+09 1.85053e+09 1.85155e+09 1.8536e+09 0 1
269 2 1 1.85898e+09 1.85924e+09 1.86026e+09 1.86619e+09 0 1
270 2 1 1.86876e+09 1.86901e+09 1.87003e+09 1.87011e+09 0 1
271 2 1 1.87293e+09 1.87317e+09 1.87419e+09 1.87421e+09 0 1
272 1 1 1.87673e+09 1.87698e+09 1.878e+09 1.88258e+09 0 0
273 1 0 1.8898e+09 1.89006e+09 1.89108e+09 1.89116e+09 1 1
274 2 1 1.89392e+09 1.89418e+09 1.8952e+09 1.89977e+09 0 1
275 1 1 1.90236e+09 1.90261e+09 1.90363e+09 1.90964e+09 0 0
276 1 1 1.91678e+09 1.91704e+09 1.91806e+09 1.91876e+09 1 0
277 1 0 1.92595e+09 1.9262e+09 1.92722e+09 1.92941e+09 1 1
278 2 1 1.93212e+09 1.93237e+09 1.93339e+09 1.95328e+09 0 1
279 1 1 1.95585e+09 1.9561e+09 1.95712e+09 1.95724e+09 0 0
280 1 1 1.96441e+09 1.96468e+09 1.96569e+09 1.96672e+09 1 0
281 1 1 1.9765e+09 1.97675e+09 1.97777e+09 1.98012e+09 1 0
282 1 0 1.98758e+09 1.98783e+09 1.98885e+09 1.99913e+09 1 1
283 2 1 2.00169e+09 2.00195e+09 2.00297e+09 2.00354e+09 0 1
284 1 0 2.00677e+09 2.00703e+09 2.00804e+09 2.00827e+09 0 1
285 2 1 2.01216e+09 2.01241e+09 2.01343e+09 2.0141e+09 0 1
286 2 1 2.01698e+09 2.01724e+09 2.01826e+09 2.01835e+09 0 1
287 2 1 2.02111e+09 2.02137e+09 2.02239e+09 2.02244e+09 0 1
288 2 1 2.02641e+09 2.02666e+09 2.02768e+09 2.0284e+09 0 1
289 2 1 2.03128e+09 2.03153e+09 2.03255e+09 2.0326e+09 0 1
290 1 0 2.03793e+09 2.03818e+09 2.0392e+09 2.03945e+09 0 1
291 1 0 2.04216e+09 2.04242e+09 2.04344e+09 2.04377e+09 0 1
292 2 1 2.04641e+09 2.04666e+09 2.04768e+09 2.05112e+09 0 1
293 1 0 2.05367e+09 2.05393e+09 2.05495e+09 2.05508e+09 0 1
294 2 0 2.05809e+09 2.05834e+09 2.05936e+09 2.0594e+09 0 0
295 2 1 2.06687e+09 2.06712e+09 2.06814e+09 2.079e+09 1 1
296 1 0 2.08163e+09 2.08187e+09 2.08289e+09 2.08311e+09 0 1
297 1 1 2.08592e+09 2.08618e+09 2.0872e+09 2.08745e+09 0 0
298 1 0 2.0948e+09 2.09505e+09 2.09607e+09 2.09651e+09 1 1
299 2 1 2.09932e+09 2.09958e+09 2.1006e+09 2.10393e+09 0 1
300 1 0 2.10663e+09 2.1069e+09 2.10792e+09 2.10806e+09 0 1
301 2 1 2.11064e+09 2.1109e+09 2.11192e+09 2.1153e+09 0 1
302 2 1 2.12377e+09 2.12402e+09 2.12504e+09 2.13102e+09 0 1
303 1 0 2.13367e+09 2.13393e+09 2.13494e+09 2.1376e+09 0 1
304 1 1 2.14241e+09 2.14267e+09 2.14368e+09 2.14377e+09 0 0
305 1 1 2.15233e+09 2.15257e+09 2.15359e+09 2.15808e+09 1 0
306 1 0 2.16556e+09 2.16582e+09 2.16684e+09 2.167e+09 1 1
307 1 1 2.16988e+09 2.17014e+09 2.17116e+09 2.17335e+09 0 0
308 1 1 2.18076e+09 2.18101e+09 2.18203e+09 2.19232e+09 1 0
309 1 1 2.20025e+09 2.2005e+09 2.20152e+09 2.2036e+09 1 0
310 1 0 2.21103e+09 2.21129e+09 2.21231e+09 2.21263e+09 1 1
311 1 1 2.21529e+09 2.21555e+09 2.21657e+09 2.21686e+09 0 0
312 1 1 2.22402e+09 2.22428e+09 2.2253e+09 2.25319e+09 1 0
313 1 1 2.26027e+09 2.26052e+09 2.26154e+09 2.28973e+09 1 0
314 1 0 2.29683e+09 2.29709e+09 2.29811e+09 2.30552e+09 1 1
315 1 1 2.30821e+09 2.30847e+09 2.30949e+09 2.30955e+09 0 0
316 1 1 2.31685e+09 2.31711e+09 2.31813e+09 2.33517e+09 1 0
317 1 0 2.34255e+09 2.34281e+09 2.34383e+09 2.35859e+09 1 1
318 2 1 2.36132e+09 2.36158e+09 2.3626e+09 2.36557e+09 0 1
319 2 1 2.36847e+09 2.36873e+09 2.36975e+09 2.37033e+09 0 1
320 1 1 2.37294e+09 2.37319e+09 2.37421e+09 2.37489e+09 0 0
321 1 0 2.38225e+09 2.3825e+09 2.38352e+09 2.38561e+09 1 1
322 1 1 2.38838e+09 2.38863e+09 2.38965e+09 2.3919e+09 0 0
323 1 1 2.39908e+09 2.39932e+09 2.40034e+09 2.41322e+09 1 0
324 1 0 2.42162e+09 2.42188e+09 2.4229e+09 2.44435e+09 1 1
325 1 0 2.4471e+09 2.44736e+09 2.44838e+09 2.46335e+09 0 1
326 1 0 2.46613e+09 2.4664e+09 2.46742e+09 2.46924e+09 0 1
327 1 0 2.47276e+09 2.47302e+09 2.47404e+09 2.48653e+09 0 1
328 1 1 2.48923e+09 2.48949e+09 2.49051e+09 2.55917e+09 0 0
329 1 0 2.56624e+09 2.56649e+09 2.56751e+09 2.60493e+09 1 1
330 1 0 2.60753e+09 2.6078e+09 2.60882e+09 2.60914e+09 0 1
331 2 0 2.61343e+09 2.61369e+09 2.61471e+09 2.62125e+09 0 0
332 2 1 2.62866e+09 2.62891e+09 2.62993e+09 2.63033e+09 1 1
333 2 0 2.63576e+09 2.63602e+09 2.63704e+09 2.6482e+09 0 0
334 2 0 2.65554e+09 2.65582e+09 2.65684e+09 2.65843e+09 1 0
335 2 0 2.667e+09 2.66726e+09 2.66828e+09 2.68045e+09 1 0
336 2 0 2.68768e+09 2.68793e+09 2.68895e+09 2.76284e+09 1 0
337 2 0 2.77019e+09 2.77045e+09 2.77147e+09 2.78128e+09 0 0
338 1 0 2.78884e+09 2.78908e+09 2.7901e+09 2.84529e+09 0 1
339 1 0 2.84922e+09 2.84947e+09 2.85049e+09 2.86719e+09 0 1
340 2 0 2.87133e+09 2.87158e+09 2.8726e+09 2.88152e+09 0 0
341 2 0 2.88904e+09 2.8893e+09 2.89032e+09 2.9232e+09 1 0
342 2 1 2.93046e+09 2.93073e+09 2.93175e+09 2.98474e+09 1 1
343 1 0 2.98773e+09 2.98798e+09 2.989e+09 2.99034e+09 0 1
344 1 0 2.994e+09 2.99425e+09 2.99527e+09 3.02223e+09 0 1
345 1 1 3.02573e+09 3.02598e+09 3.027e+09 3.04009e+09 0 0
346 1 0 3.04736e+09 3.04763e+09 3.04865e+09 3.04879e+09 1 1
347 2 0 3.0513e+09 3.05157e+09 3.05259e+09 3.08134e+09 0 0
348 2 0 3.08881e+09 3.08907e+09 3.09009e+09 3.10171e+09 1 0
349 2 0 3.10878e+09 3.10904e+09 3.11006e+09 3.11435e+09 1 0
350 2 0 3.12289e+09 3.12314e+09 3.12416e+09 3.13058e+09 1 0
351 1 0 3.13778e+09 3.13804e+09 3.13906e+09 3.14657e+09 0 1
352 1 0 3.14923e+09 3.14948e+09 3.1505e+09 3.15707e+09 0 1
353 2 0 3.15968e+09 3.15993e+09 3.16095e+09 3.16399e+09 0 0
354 2 1 3.1714e+09 3.17166e+09 3.17268e+09 3.22e+09 1 1
355 2 1 3.22292e+09 3.22318e+09 3.2242e+09 3.22572e+09 0 1
356 1 0 3.22867e+09 3.22893e+09 3.22995e+09 3.23747e+09 0 1
357 2 0 3.24238e+09 3.24264e+09 3.24365e+09 3.27332e+09 0 0
358 2 0 3.28058e+09 3.28085e+09 3.28187e+09 3.29321e+09 1 0
359 2 1 3.30048e+09 3.30074e+09 3.30176e+09 3.31036e+09 1 1
360 2 0 3.31295e+09 3.31321e+09 3.31423e+09 3.33482e+09 0 0
361 2 0 3.34192e+09 3.34218e+09 3.3432e+09 3.35232e+09 1 0
362 2 0 3.35946e+09 3.35972e+09 3.36074e+09 3.37393e+09 1 0
363 2 0 3.38139e+09 3.38164e+09 3.38265e+09 3.45568e+09 1 0
364 1 0 3.46293e+09 3.46319e+09 3.46421e+09 3.46722e+09 0 1
365 2 0 3.47062e+09 3.47087e+09 3.47189e+09 3.4722e+09 0 0
366 2 0 3.4797e+09 3.47995e+09 3.48097e+09 3.48271e+09 1 0
367 2 0 3.49241e+09 3.49267e+09 3.49369e+09 3.51722e+09 1 0
368 2 0 3.52454e+09 3.52479e+09 3.52581e+09 3.52721e+09 1 0
369 2 0 3.53469e+09 3.53494e+09 3.53596e+09 3.53637e+09 0 0
370 2 0 3.54395e+09 3.5442e+09 3.54522e+09 3.57565e+09 0 0
371 1 1 3.58326e+09 3.58352e+09 3.58454e+09 3.61314e+09 0 0
372 2 0 3.62033e+09 3.62059e+09 3.62161e+09 3.63252e+09 0 0
373 1 1 3.64054e+09 3.6408e+09 3.64182e+09 3.64578e+09 0 0
374 2 0 3.65328e+09 3.65354e+09 3.65456e+09 3.65557e+09 0 0
375 1 0 3.66282e+09 3.66308e+09 3.6641e+09 3.66418e+09 0 1
376 2 0 3.66716e+09 3.66741e+09 3.66843e+09 3.67279e+09 0 0
377 2 0 3.68024e+09 3.6805e+09 3.68152e+09 3.69211e+09 1 0
378 2 0 3.69957e+09 3.69983e+09 3.70085e+09 3.71932e+09 1 0
379 2 0 3.72852e+09 3.72877e+09 3.72979e+09 3.73966e+09 1 0
380 2 0 3.7469e+09 3.74717e+09 3.74819e+09 3.77547e+09 0 0
381 2 0 3.78302e+09 3.78329e+09 3.78431e+09 3.78559e+09 0 0
382 1 0 3.79278e+09 3.79305e+09 3.79407e+09 3.80077e+09 0 1
383 1 0 3.80368e+09 3.80394e+09 3.80496e+09 3.82166e+09 0 1
384 2 0 3.82463e+09 3.82488e+09 3.8259e+09 3.84286e+09 0 0
385 2 0 3.85033e+09 3.85059e+09 3.85161e+09 3.8666e+09 1 0
386 2 0 3.87385e+09 3.8741e+09 3.87512e+09 3.90158e+09 1 0
387 2 1 3.9091e+09 3.90936e+09 3.91038e+09 3.91175e+09 1 1
388 2 0 3.91448e+09 3.91474e+09 3.91576e+09 3.93463e+09 0 0
389 2 0 3.94206e+09 3.94232e+09 3.94333e+09 3.95728e+09 1 0
390 2 1 3.9651e+09 3.96537e+09 3.96639e+09 3.96723e+09 1 1
391 1 0 3.97427e+09 3.97452e+09 3.97554e+09 3.97556e+09 0 1
392 2 0 3.97836e+09 3.97862e+09 3.97964e+09 3.98013e+09 0 0
393 2 1 3.98717e+09 3.98741e+09 3.98843e+09 1.47502e+09 1 1
394 1 1 1.47796e+09 1.47822e+09 1.47924e+09 1.48427e+09 0 0
