trial trialType response stillTime stimOnset stimOffset respTime correctionTrial correct
001 2 1 2.30154e+07 2.33338e+07 2.43535e+07 2.49344e+07 0 1
002 1 0 4.83154e+07 4.85849e+07 4.96045e+07 5.04591e+07 0 1
003 1 0 5.57476e+07 5.6042e+07 5.70617e+07 5.71642e+07 0 1
004 1 0 6.03617e+07 6.06132e+07 6.16329e+07 6.28969e+07 0 1
005 1 0 7.90999e+07 7.93654e+07 8.0385e+07 8.12772e+07 0 1
006 2 1 8.80783e+07 8.83324e+07 8.9352e+07 8.98007e+07 0 1
007 2 1 9.2758e+07 9.30086e+07 9.40282e+07 9.4599e+07 0 1
008 1 1 1.17043e+08 1.17311e+08 1.18331e+08 1.18605e+08 0 0
009 1 0 1.29516e+08 1.29791e+08 1.3081e+08 1.31121e+08 1 1
010 1 0 1.33857e+08 1.34112e+08 1.35131e+08 1.35924e+08 0 1
011 2 1 1.58692e+08 1.58946e+08 1.59966e+08 1.60006e+08 0 1
012 1 0 1.64133e+08 1.6439e+08 1.65409e+08 1.67592e+08 0 1
013 2 1 1.93986e+08 1.94244e+08 1.95263e+08 1.981e+08 0 1
014 2 1 2.04189e+08 2.04454e+08 2.05473e+08 2.07699e+08 0 1
015 1 1 2.21648e+08 2.21908e+08 2.22928e+08 2.25384e+08 0 0
016 1 0 2.32428e+08 2.32673e+08 2.33692e+08 2.34804e+08 1 1
017 2 1 2.42321e+08 2.42574e+08 2.43594e+08 2.43647e+08 0 1
018 1 1 2.55535e+08 2.5578e+08 2.568e+08 2.5794e+08 0 0
019 1 0 2.67896e+08 2.68152e+08 2.69171e+08 2.69263e+08 1 1
020 2 0 2.76832e+08 2.77091e+08 2.7811e+08 2.78622e+08 0 0
021 2 1 2.96871e+08 2.97136e+08 2.98156e+08 2.99236e+08 1 1
022 1 1 3.0978e+08 3.10048e+08 3.11067e+08 3.11615e+08 0 0
023 1 1 3.1886e+08 3.19126e+08 3.20146e+08 3.20961e+08 1 0
024 1 1 3.2815e+08 3.28406e+08 3.29426e+08 3.29988e+08 1 0
025 1 1 3.37661e+08 3.37915e+08 3.38935e+08 3.39579e+08 1 0
026 1 0 3.55916e+08 3.56162e+08 3.57181e+08 3.58292e+08 0 1
027 2 0 3.63648e+08 3.63892e+08 3.64911e+08 3.65693e+08 0 0
028 2 1 3.74584e+08 3.74839e+08 3.75859e+08 3.77009e+08 1 1
029 2 1 3.82279e+08 3.82532e+08 3.83551e+08 3.84308e+08 0 1
030 2 0 3.90145e+08 3.90411e+08 3.91431e+08 3.91621e+08 0 0
031 2 0 3.99833e+08 4.00094e+08 4.01113e+08 4.02902e+08 1 0
032 2 1 4.19756e+08 4.2e+08 4.2102e+08 4.21109e+08 1 1
033 2 1 4.29947e+08 4.30199e+08 4.31218e+08 4.313e+08 0 1
034 2 0 4.37172e+08 4.3742e+08 4.3844e+08 4.3848e+08 0 0
035 2 1 4.45832e+08 4.46086e+08 4.47106e+08 4.47454e+08 1 1
036 2 1 4.59902e+08 4.6017e+08 4.61189e+08 4.61306e+08 0 1
037 2 1 4.71902e+08 4.72155e+08 4.73175e+08 4.74636e+08 0 1
038 2 0 4.7932e+08 4.79576e+08 4.80596e+08 4.81233e+08 0 0
039 2 1 4.9043e+08 4.90688e+08 4.91708e+08 4.92555e+08 1 1
040 1 0 4.97347e+08 4.97597e+08 4.98617e+08 4.98683e+08 0 1
041 1 1 5.084e+08 5.08657e+08 5.09676e+08 5.10233e+08 0 0
042 1 0 5.17435e+08 5.17698e+08 5.18718e+08 5.19189e+08 1 1
043 2 0 5.2702e+08 5.27281e+08 5.28301e+08 5.29826e+08 0 0
044 2 1 5.4163e+08 5.41881e+08 5.42901e+08 5.4596e+08 1 1
045 1 0 5.5075e+08 5.51002e+08 5.52022e+08 5.53261e+08 0 1
046 2 1 5.57939e+08 5.58201e+08 5.5922e+08 5.60063e+08 0 1
047 2 1 5.67844e+08 5.68101e+08 5.69121e+08 5.69622e+08 0 1
048 2 0 5.74305e+08 5.74562e+08 5.75581e+08 5.76194e+08 0 0
049 2 0 5.85532e+08 5.85779e+08 5.86799e+08 5.86948e+08 1 0
050 2 0 5.99051e+08 5.99316e+08 6.00335e+08 6.00562e+08 1 0
051 2 1 6.08615e+08 6.08866e+08 6.09886e+08 6.1103e+08 1 1
052 2 1 6.15698e+08 6.15951e+08 6.1697e+08 6.17987e+08 0 1
053 2 1 6.24645e+08 6.24899e+08 6.25919e+08 6.2604e+08 0 1
054 1 1 6.38812e+08 6.39072e+08 6.40092e+08 6.40769e+08 0 0
055 1 0 6.51164e+08 6.51427e+08 6.52446e+08 6.52779e+08 1 1
056 1 0 6.6068e+08 6.60942e+08 6.61962e+08 6.63566e+08 0 1
057 1 1 6.70549e+08 6.70809e+08 6.71829e+08 6.71844e+08 0 0
058 1 1 6.80246e+08 6.80498e+08 6.81517e+08 6.81531e+08 1 0
059 1 0 6.88597e+08 6.88862e+08 6.89881e+08 6.90336e+08 1 1
060 1 1 6.983e+08 6.98557e+08 6.99576e+08 7.00225e+08 0 0
061 1 0 7.09146e+08 7.094e+08 7.10419e+08 7.10911e+08 1 1
062 1 1 7.17614e+08 7.17876e+08 7.18895e+08 7.1894e+08 0 0
063 1 0 7.27584e+08 7.27833e+08 7.28852e+08 7.29694e+08 1 1
064 2 0 7.38714e+08 7.38966e+08 7.39985e+08 7.40659e+08 0 0
065 2 1 7.59099e+08 7.59358e+08 7.60377e+08 7.60638e+08 1 1
066 2 0 7.69e+08 7.69254e+08 7.70274e+08 7.70897e+08 0 0
067 2 0 7.82541e+08 7.82801e+08 7.8382e+08 7.84599e+08 1 0
068 2 0 7.92047e+08 7.923e+08 7.9332e+08 7.93953e+08 1 0
069 2 0 8.05828e+08 8.06091e+08 8.07111e+08 8.08282e+08 1 0
070 1 0 8.20214e+08 8.20462e+08 8.21481e+08 8.22443e+08 0 1
071 1 0 8.29475e+08 8.29733e+08 8.30752e+08 8.31002e+08 0 1
072 2 0 8.3662e+08 8.36883e+08 8.37902e+08 8.3878e+08 0 0
073 2 1 8.4594e+08 8.46191e+08 8.4721e+08 8.47751e+08 1 1
074 2 1 8.50485e+08 8.50746e+08 8.51766e+08 8.53067e+08 0 1
075 2 0 8.57441e+08 8.577e+08 8.5872e+08 8.58766e+08 0 0
076 2 1 8.67754e+08 8.68014e+08 8.69033e+08 8.70557e+08 1 1
077 1 1 8.73177e+08 8.73429e+08 8.74449e+08 8.75666e+08 0 0
078 1 0 8.83859e+08 8.84107e+08 8.85126e+08 8.85276e+08 1 1
079 2 1 8.91814e+08 8.92078e+08 8.93098e+08 8.9312e+08 0 1
080 2 1 8.96369e+08 8.96633e+08 8.97653e+08 8.98568e+08 0 1
081 2 0 9.04475e+08 9.0473e+08 9.05749e+08 9.06357e+08 0 0
082 2 0 9.2009e+08 9.20345e+08 9.21364e+08 9.21473e+08 1 0
083 2 1 9.3246e+08 9.32721e+08 9.3374e+08 9.33773e+08 1 1
084 2 1 9.42727e+08 9.43008e+08 9.44028e+08 9.44075e+08 0 1
085 2 1 9.5132e+08 9.5158e+08 9.526e+08 9.52623e+08 0 1
086 2 0 9.63282e+08 9.63534e+08 9.64554e+08 9.65312e+08 0 0
087 2 0 9.72456e+08 9.72716e+08 9.73735e+08 9.73782e+08 1 0
088 2 0 9.81529e+08 9.81786e+08 9.82805e+08 9.8327e+08 1 0
089 2 0 9.9095e+08 9.91205e+08 9.92224e+08 9.92442e+08 1 0
090 2 1 1.00168e+09 1.00195e+09 1.00297e+09 1.00326e+09 0 1
091 1 0 1.00665e+09 1.00691e+09 1.00793e+09 1.00816e+09 0 1
092 1 1 1.01377e+09 1.01402e+09 1.01504e+09 1.01636e+09 0 0
093 1 1 1.02339e+09 1.02364e+09 1.02466e+09 1.02515e+09 1 0
094 1 0 1.03256e+09 1.03283e+09 1.03384e+09 1.03599e+09 1 1
095 2 1 1.03881e+09 1.03906e+09 1.04008e+09 1.04127e+09 0 1
096 1 0 1.04548e+09 1.04575e+09 1.04677e+09 1.04735e+09 0 1
097 1 0 1.05382e+09 1.05407e+09 1.05509e+09 1.05599e+09 0 1
098 1 0 1.06629e+09 1.06655e+09 1.06757e+09 1.0684e+09 0 1
099 2 0 1.0886e+09 1.08885e+09 1.08987e+09 1.08993e+09 0 0
100 2 0 1.09731e+09 1.09757e+09 1.09859e+09 1.10048e+09 1 0
101 2 1 1.10864e+09 1.1089e+09 1.10992e+09 1.1109e+09 1 1
102 1 0 1.11653e+09 1.11678e+09 1.1178e+09 1.1185e+09 0 1
103 2 0 1.12382e+09 1.12408e+09 1.1251e+09 1.12511e+09 0 0
104 2 0 1.13554e+09 1.13579e+09 1.13681e+09 1.13694e+09 1 0
105 2 0 1.14543e+09 1.14569e+09 1.14671e+09 1.14844e+09 1 0
106 2 0 1.15719e+09 1.15744e+09 1.15846e+09 1.15857e+09 1 0
107 1 0 1.16716e+09 1.1674e+09 1.16842e+09 1.16857e+09 0 1
108 1 1 1.17144e+09 1.17171e+09 1.17273e+09 1.17533e+09 0 0
109 1 1 1.18273e+09 1.18297e+09 1.18399e+09 1.18454e+09 1 0
110 1 0 1.19198e+09 1.19223e+09 1.19325e+09 1.19326e+09 1 1
111 1 0 1.19645e+09 1.1967e+09 1.19772e+09 1.19812e+09 0 1
112 2 0 1.21344e+09 1.21368e+09 1.2147e+09 1.21498e+09 0 0
113 2 0 1.22367e+09 1.22391e+09 1.22493e+09 1.22635e+09 1 0
114 2 0 1.23602e+09 1.23628e+09 1.2373e+09 1.23776e+09 1 0
115 2 1 1.24586e+09 1.24611e+09 1.24713e+09 1.2478e+09 1 1
116 2 1 1.2625e+09 1.26276e+09 1.26378e+09 1.26394e+09 0 1
117 1 1 1.27025e+09 1.27051e+09 1.27153e+09 1.27313e+09 0 0
118 1 0 1.28427e+09 1.28451e+09 1.28553e+09 1.28557e+09 1 1
119 2 0 1.29385e+09 1.29411e+09 1.29513e+09 1.29621e+09 0 0
120 2 1 1.31114e+09 1.31139e+09 1.31241e+09 1.31289e+09 1 1
121 1 1 1.31571e+09 1.31595e+09 1.31697e+09 1.31983e+09 0 0
122 1 1 1.33031e+09 1.33056e+09 1.33158e+09 1.33302e+09 1 0
123 1 0 1.34523e+09 1.34547e+09 1.34649e+09 1.34651e+09 1 1
124 1 1 1.35374e+09 1.35399e+09 1.35501e+09 1.35521e+09 0 0
125 1 0 1.36459e+09 1.36484e+09 1.36586e+09 1.36716e+09 1 1
126 2 0 1.37215e+09 1.37242e+09 1.37344e+09 1.37387e+09 0 0
127 2 0 1.38223e+09 1.38249e+09 1.38351e+09 1.38422e+09 1 0
128 2 1 1.3938e+09 1.39406e+09 1.39508e+09 1.39518e+09 1 1
129 1 1 1.40336e+09 1.40361e+09 1.40463e+09 1.4056e+09 0 0
130 1 1 1.41485e+09 1.41511e+09 1.41613e+09 1.41701e+09 1 0
131 1 0 1.42449e+09 1.42475e+09 1.42577e+09 1.42975e+09 1 1
132 1 0 1.43258e+09 1.43283e+09 1.43385e+09 1.43394e+09 0 1
133 1 0 1.4425e+09 1.44275e+09 1.44377e+09 1.44411e+09 0 1
134 2 1 1.45592e+09 1.45617e+09 1.45719e+09 1.45892e+09 0 1
135 1 1 1.46529e+09 1.46555e+09 1.46657e+09 1.469e+09 0 0
136 1 0 1.47914e+09 1.47939e+09 1.48041e+09 1.48387e+09 1 1
137 1 0 1.49156e+09 1.49182e+09 1.49284e+09 1.49318e+09 0 1
138 2 1 1.50329e+09 1.50353e+09 1.50455e+09 1.50562e+09 0 1
139 2 0 1.5104e+09 1.51065e+09 1.51167e+09 1.51171e+09 0 0
140 2 1 1.52128e+09 1.52154e+09 1.52256e+09 1.52258e+09 1 1
141 1 0 1.52968e+09 1.52993e+09 1.53095e+09 1.53111e+09 0 1
142 2 1 1.53553e+09 1.53579e+09 1.53681e+09 1.53797e+09 0 1
143 1 0 1.54108e+09 1.54133e+09 1.54235e+09 1.54236e+09 0 1
144 1 0 1.54734e+09 1.54759e+09 1.54861e+09 1.54942e+09 0 1
145 1 1 1.55654e+09 1.55679e+09 1.55781e+09 1.55784e+09 0 0
146 1 0 1.56645e+09 1.5667e+09 1.56772e+09 1.5678e+09 1 1
147 2 0 1.57176e+09 1.57201e+09 1.57303e+09 1.57316e+09 0 0
148 2 1 1.58162e+09 1.58188e+09 1.5829e+09 1.58306e+09 1 1
149 2 0 1.5895e+09 1.58976e+09 1.59078e+09 1.59122e+09 0 0
150 2 0 1.60064e+09 1.6009e+09 1.60192e+09 1.60213e+09 1 0
151 2 0 1.61021e+09 1.61046e+09 1.61148e+09 1.61159e+09 1 0
152 2 0 1.61871e+09 1.61897e+09 1.61999e+09 1.62003e+09 1 0
153 1 0 1.62721e+09 1.62747e+09 1.62849e+09 1.63219e+09 0 1
154 2 0 1.63883e+09 1.63909e+09 1.64011e+09 1.64231e+09 0 0
155 2 0 1.65294e+09 1.65319e+09 1.65421e+09 1.65568e+09 1 0
156 2 1 1.6638e+09 1.66405e+09 1.66507e+09 1.6662e+09 1 1
157 1 0 1.6735e+09 1.67376e+09 1.67478e+09 1.67485e+09 0 1
158 1 0 1.68058e+09 1.68083e+09 1.68185e+09 1.6819e+09 0 1
159 1 0 1.68946e+09 1.68972e+09 1.69074e+09 1.69261e+09 0 1
160 2 0 1.6967e+09 1.69695e+09 1.69797e+09 1.69818e+09 0 0
161 2 1 1.70763e+09 1.70788e+09 1.7089e+09 1.70923e+09 1 1
162 1 1 1.71474e+09 1.71499e+09 1.71601e+09 1.71754e+09 0 0
163 1 0 1.7249e+09 1.72515e+09 1.72617e+09 1.72628e+09 1 1
164 2 0 1.72964e+09 1.7299e+09 1.73092e+09 1.73263e+09 0 0
165 2 0 1.74063e+09 1.74087e+09 1.74189e+09 1.74191e+09 1 0
166 2 0 1.74993e+09 1.7502e+09 1.75122e+09 1.75192e+09 1 0
167 2 1 1.76215e+09 1.76242e+09 1.76344e+09 1.76351e+09 1 1
168 1 1 1.76634e+09 1.76659e+09 1.76761e+09 1.76777e+09 0 0
169 1 1 1.77802e+09 1.77827e+09 1.77929e+09 1.77969e+09 1 0
170 1 0 1.78916e+09 1.78942e+09 1.79044e+09 1.79054e+09 1 1
171 1 0 1.79324e+09 1.79349e+09 1.79451e+09 1.7946e+09 0 1
172 2 0 1.79913e+09 1.7994e+09 1.80042e+09 1.80051e+09 0 0
173 2 1 1.80796e+09 1.80822e+09 1.80924e+09 1.80936e+09 1 1
174 1 1 1.81554e+09 1.8158e+09 1.81682e+09 1.81707e+09 0 0
175 1 0 1.8265e+09 1.82675e+09 1.82777e+09 1.82781e+09 1 1
176 2 0 1.83464e+09 1.83491e+09 1.83593e+09 1.83604e+09 0 0
177 2 1 1.84313e+09 1.84339e+09 1.84441e+09 1.84442e+09 1 1
178 1 0 1.85007e+09 1.85033e+09 1.85135e+09 1.85138e+09 0 1
179 2 1 1.86095e+09 1.8612e+09 1.86222e+09 1.86295e+09 0 1
180 1 1 1.86874e+09 1.869e+09 1.87002e+09 1.8731e+09 0 0
181 1 1 1.88052e+09 1.88077e+09 1.88179e+09 1.88194e+09 1 0
182 1 1 1.89175e+09 1.892e+09 1.89302e+09 1.89338e+09 1 0
183 1 0 1.90748e+09 1.90773e+09 1.90875e+09 1.90901e+09 1 1
184 2 0 1.91647e+09 1.91673e+09 1.91775e+09 1.91852e+09 0 0
185 2 1 1.9258e+09 1.92605e+09 1.92707e+09 1.92719e+09 1 1
186 2 0 1.94107e+09 1.94133e+09 1.94235e+09 1.94241e+09 0 0
187 2 1 1.95126e+09 1.95151e+09 1.95253e+09 1.95462e+09 1 1
188 2 1 1.96461e+09 1.96487e+09 1.96589e+09 1.96757e+09 0 1
189 1 1 1.97241e+09 1.97266e+09 1.97368e+09 1.97542e+09 0 0
190 1 0 1.98944e+09 1.9897e+09 1.99072e+09 1.99213e+09 1 1
191 2 1 2.00003e+09 2.00029e+09 2.00131e+09 2.00155e+09 0 1
192 2 0 2.0144e+09 2.01466e+09 2.01568e+09 2.01607e+09 0 0
193 2 0 2.02334e+09 2.0236e+09 2.02462e+09 2.02511e+09 1 0
194 2 1 2.03533e+09 2.03558e+09 2.0366e+09 2.03663e+09 1 1
195 2 0 2.0394e+09 2.03965e+09 2.04067e+09 2.04083e+09 0 0
196 2 0 2.04828e+09 2.04853e+09 2.04955e+09 2.05002e+09 1 0
197 2 0 2.05709e+09 2.05734e+09 2.05836e+09 2.05847e+09 1 0
198 2 1 2.06565e+09 2.0659e+09 2.06692e+09 2.06716e+09 1 1
199 2 1 2.07696e+09 2.07721e+09 2.07823e+09 2.07832e+09 0 1
200 2 0 2.08534e+09 2.08559e+09 2.08661e+09 2.0872e+09 0 0
201 2 1 2.09463e+09 2.09489e+09 2.09591e+09 2.09616e+09 1 1
202 1 0 2.10928e+09 2.10954e+09 2.11056e+09 2.11084e+09 0 1
203 1 1 2.1139e+09 2.11416e+09 2.11517e+09 2.11697e+09 0 0
204 1 0 2.12632e+09 2.12657e+09 2.12759e+09 2.12851e+09 1 1
205 1 1 2.13244e+09 2.13271e+09 2.13373e+09 2.13427e+09 0 0
206 1 0 2.14368e+09 2.14394e+09 2.14496e+09 2.14612e+09 1 1
207 1 1 2.15786e+09 2.15813e+09 2.15914e+09 2.15916e+09 0 0
208 1 1 2.16822e+09 2.16848e+09 2.1695e+09 2.17036e+09 1 0
209 1 0 2.17757e+09 2.17782e+09 2.17884e+09 2.17886e+09 1 1
210 2 0 2.18995e+09 2.1902e+09 2.19121e+09 2.19175e+09 0 0
211 2 1 2.19992e+09 2.20018e+09 2.2012e+09 2.20157e+09 1 1
212 1 1 2.20436e+09 2.20462e+09 2.20564e+09 2.20588e+09 0 0
213 1 0 2.2146e+09 2.21486e+09 2.21587e+09 2.21594e+09 1 1
214 2 0 2.22378e+09 2.22404e+09 2.22506e+09 2.22682e+09 0 0
215 2 0 2.23402e+09 2.23427e+09 2.23528e+09 2.23532e+09 1 0
216 2 0 2.24469e+09 2.24494e+09 2.24596e+09 2.24701e+09 1 0
217 2 0 2.25495e+09 2.25521e+09 2.25623e+09 2.25795e+09 1 0
218 2 1 2.27321e+09 2.27347e+09 2.27449e+09 2.27469e+09 0 1
219 1 1 2.27745e+09 2.2777e+09 2.27872e+09 2.27997e+09 0 0
220 1 1 2.28739e+09 2.28763e+09 2.28865e+09 2.29162e+09 1 0
221 1 0 2.30084e+09 2.30109e+09 2.30211e+09 2.30318e+09 1 1
222 1 1 2.30614e+09 2.30639e+09 2.30741e+09 2.30949e+09 0 0
223 1 0 2.31781e+09 2.31807e+09 2.31909e+09 2.31923e+09 1 1
224 2 1 2.32337e+09 2.32363e+09 2.32465e+09 2.32466e+09 0 1
225 1 1 2.33727e+09 2.33753e+09 2.33855e+09 2.34413e+09 0 0
226 1 1 2.35324e+09 2.35349e+09 2.35451e+09 2.35465e+09 1 0
227 1 0 2.36451e+09 2.36476e+09 2.36578e+09 2.36608e+09 1 1
228 2 0 2.36913e+09 2.36937e+09 2.37039e+09 2.3725e+09 0 0
229 2 1 2.37965e+09 2.3799e+09 2.38092e+09 2.38121e+09 1 1
230 1 1 2.38607e+09 2.38633e+09 2.38735e+09 2.38935e+09 0 0
231 1 1 2.39791e+09 2.39816e+09 2.39918e+09 2.39922e+09 1 0
232 1 0 2.40896e+09 2.40921e+09 2.41023e+09 2.41144e+09 1 1
233 1 0 2.41404e+09 2.41429e+09 2.41531e+09 2.41549e+09 0 1
234 1 0 2.41845e+09 2.4187e+09 2.41972e+09 2.42044e+09 0 1
235 2 0 2.42899e+09 2.42924e+09 2.43026e+09 2.43084e+09 0 0
236 2 0 2.44003e+09 2.44029e+09 2.44131e+09 2.44446e+09 1 0
237 2 0 2.45332e+09 2.45357e+09 2.45459e+09 2.45477e+09 1 0
238 2 0 2.46253e+09 2.46278e+09 2.4638e+09 2.46423e+09 1 0
239 1 0 2.47153e+09 2.47179e+09 2.47281e+09 2.47377e+09 0 1
240 2 0 2.48018e+09 2.48043e+09 2.48145e+09 2.48151e+09 0 0
241 2 1 2.49017e+09 2.49042e+09 2.49144e+09 2.49172e+09 1 1
242 1 0 2.50047e+09 2.50072e+09 2.50174e+09 2.50177e+09 0 1
243 1 0 2.50462e+09 2.50487e+09 2.50589e+09 2.50796e+09 0 1
244 2 1 2.51279e+09 2.51304e+09 2.51406e+09 2.5152e+09 0 1
245 1 1 2.52531e+09 2.52556e+09 2.52658e+09 2.52697e+09 0 0
246 1 0 2.53399e+09 2.53425e+09 2.53527e+09 2.53623e+09 1 1
247 1 1 2.53891e+09 2.53916e+09 2.54018e+09 2.54154e+09 0 0
248 1 0 2.5489e+09 2.54915e+09 2.55017e+09 2.55162e+09 1 1
249 2 0 2.5583e+09 2.55855e+09 2.55957e+09 2.55961e+09 0 0
250 2 0 2.56888e+09 2.56914e+09 2.57016e+09 2.57027e+09 1 0
251 2 0 2.57818e+09 2.57843e+09 2.57945e+09 2.57953e+09 1 0
252 2 1 2.58937e+09 2.58964e+09 2.59065e+09 2.59383e+09 1 1
253 2 1 2.60279e+09 2.60305e+09 2.60407e+09 2.60575e+09 0 1
254 2 1 2.61936e+09 2.61961e+09 2.62063e+09 2.62398e+09 0 1
255 2 0 2.62726e+09 2.62752e+09 2.62854e+09 2.62888e+09 0 0
256 2 1 2.63786e+09 2.63811e+09 2.63913e+09 2.63942e+09 1 1
257 1 1 2.64443e+09 2.64468e+09 2.6457e+09 2.6458e+09 0 0
258 1 1 2.65306e+09 2.65332e+09 2.65434e+09 2.65438e+09 1 0
259 1 1 2.66144e+09 2.66169e+09 2.66271e+09 2.66662e+09 1 0
260 1 1 2.67368e+09 2.67393e+09 2.67495e+09 2.67704e+09 1 0
261 1 1 2.68586e+09 2.68612e+09 2.68714e+09 2.68753e+09 0 0
262 1 1 2.6963e+09 2.69656e+09 2.69758e+09 2.69794e+09 0 0
263 2 1 2.70574e+09 2.70599e+09 2.70701e+09 2.7097e+09 0 1
264 2 1 2.71557e+09 2.71583e+09 2.71685e+09 2.71746e+09 0 1
265 1 1 2.72812e+09 2.72838e+09 2.7294e+09 2.73048e+09 0 0
266 1 0 2.73844e+09 2.73869e+09 2.73971e+09 2.74284e+09 1 1
267 1 1 2.74619e+09 2.74646e+09 2.74748e+09 2.74878e+09 0 0
268 1 1 2.75806e+09 2.75833e+09 2.75934e+09 2.7594e+09 1 0
269 1 0 2.76667e+09 2.76692e+09 2.76794e+09 2.76838e+09 1 1
270 2 0 2.77092e+09 2.77117e+09 2.77219e+09 2.77232e+09 0 0
271 2 1 2.78034e+09 2.78059e+09 2.78161e+09 2.78238e+09 1 1
272 2 0 2.78742e+09 2.78768e+09 2.7887e+09 2.7896e+09 0 0
273 2 0 2.79684e+09 2.79709e+09 2.79811e+09 2.79828e+09 1 0
274 2 0 2.80808e+09 2.80834e+09 2.80936e+09 2.80947e+09 1 0
275 2 1 2.81831e+09 2.81856e+09 2.81958e+09 2.82139e+09 1 1
276 1 0 2.82399e+09 2.82424e+09 2.82526e+09 2.8255e+09 0 1
277 2 1 2.83515e+09 2.83541e+09 2.83643e+09 2.83707e+09 0 1
278 2 0 2.84376e+09 2.84401e+09 2.84503e+09 2.84514e+09 0 0
279 2 1 2.85222e+09 2.85249e+09 2.85351e+09 2.85552e+09 1 1
280 2 0 2.86049e+09 2.86074e+09 2.86176e+09 2.86178e+09 0 0
281 2 0 2.87401e+09 2.87427e+09 2.87529e+09 2.87985e+09 1 0
282 2 1 2.88753e+09 2.88779e+09 2.88881e+09 2.8902e+09 1 1
283 1 1 2.8933e+09 2.89355e+09 2.89457e+09 2.89583e+09 0 0
284 1 0 2.90317e+09 2.90342e+09 2.90444e+09 2.90447e+09 1 1
285 2 0 2.90697e+09 2.90722e+09 2.90824e+09 2.90982e+09 0 0
286 2 1 2.92149e+09 2.92174e+09 2.92275e+09 2.92283e+09 1 1
287 2 0 2.92639e+09 2.92664e+09 2.92766e+09 2.92793e+09 0 0
288 2 1 2.93503e+09 2.93529e+09 2.93631e+09 2.93688e+09 1 1
289 2 1 2.94229e+09 2.94255e+09 2.94357e+09 2.94428e+09 0 1
290 2 0 2.95205e+09 2.95229e+09 2.95331e+09 2.95346e+09 0 0
291 2 1 2.96278e+09 2.96303e+09 2.96405e+09 2.96633e+09 1 1
292 2 1 2.96895e+09 2.96922e+09 2.97024e+09 2.9706e+09 0 1
293 1 0 2.97318e+09 2.97344e+09 2.97446e+09 2.97466e+09 0 1
294 2 0 2.98032e+09 2.98058e+09 2.9816e+09 2.98174e+09 0 0
295 2 1 2.99224e+09 2.9925e+09 2.99352e+09 2.99433e+09 1 1
296 1 1 2.99693e+09 2.99719e+09 2.99821e+09 3.0018e+09 0 0
297 1 1 3.00911e+09 3.00936e+09 3.01038e+09 3.01077e+09 1 0
298 1 0 3.01942e+09 3.01967e+09 3.02069e+09 3.02134e+09 1 1
299 2 1 3.02773e+09 3.02799e+09 3.02901e+09 3.02915e+09 0 1
300 1 1 3.03285e+09 3.0331e+09 3.03412e+09 3.03414e+09 0 0
301 1 1 3.04121e+09 3.04147e+09 3.04249e+09 3.04587e+09 1 0
302 1 1 3.05336e+09 3.05362e+09 3.05464e+09 3.05471e+09 1 0
303 1 0 3.06187e+09 3.06213e+09 3.06315e+09 3.06353e+09 1 1
304 1 0 3.06923e+09 3.06948e+09 3.0705e+09 3.07063e+09 0 1
305 1 1 3.078e+09 3.07825e+09 3.07927e+09 3.08066e+09 0 0
306 1 0 3.08931e+09 3.08957e+09 3.09059e+09 3.09084e+09 1 1
307 2 1 3.09373e+09 3.09399e+09 3.09501e+09 3.09517e+09 0 1
308 1 1 3.10382e+09 3.10407e+09 3.10509e+09 3.10521e+09 0 0
309 1 1 3.1223e+09 3.12255e+09 3.12357e+09 3.12655e+09 1 0
310 1 1 3.13399e+09 3.13424e+09 3.13526e+09 3.13601e+09 1 0
311 1 1 3.14466e+09 3.14491e+09 3.14593e+09 3.1571e+09 1 0
312 1 0 3.16595e+09 3.1662e+09 3.16722e+09 3.16773e+09 0 1
313 2 0 3.17029e+09 3.17055e+09 3.17156e+09 3.17169e+09 0 0
314 2 1 3.18519e+09 3.18544e+09 3.18646e+09 3.18982e+09 1 1
315 1 1 3.19286e+09 3.19312e+09 3.19414e+09 3.19485e+09 0 0
316 1 1 3.20531e+09 3.20557e+09 3.20659e+09 3.20714e+09 1 0
317 1 0 3.21453e+09 3.21479e+09 3.21581e+09 3.22166e+09 1 1
318 1 1 3.22441e+09 3.22466e+09 3.22568e+09 3.22784e+09 0 0
319 1 1 3.23526e+09 3.2355e+09 3.23652e+09 3.23677e+09 1 0
320 1 0 3.24448e+09 3.24474e+09 3.24576e+09 3.24765e+09 1 1
321 2 0 3.25047e+09 3.25073e+09 3.25175e+09 3.2525e+09 0 0
322 2 1 3.26314e+09 3.26339e+09 3.26441e+09 3.2654e+09 1 1
323 2 1 3.2696e+09 3.26985e+09 3.27087e+09 3.27116e+09 0 1
324 1 0 3.27377e+09 3.27403e+09 3.27505e+09 3.2774e+09 0 1
325 1 0 3.28013e+09 3.28038e+09 3.2814e+09 3.28194e+09 0 1
326 1 1 3.28814e+09 3.2884e+09 3.28942e+09 3.28971e+09 0 0
327 1 1 3.29841e+09 3.29868e+09 3.2997e+09 3.30227e+09 1 0
328 1 1 3.31952e+09 3.31978e+09 3.3208e+09 3.32259e+09 1 0
329 1 0 3.32966e+09 3.32992e+09 3.33094e+09 3.33191e+09 1 1
330 1 0 3.33484e+09 3.33509e+09 3.33611e+09 3.34512e+09 0 1
331 1 1 3.34773e+09 3.34799e+09 3.34901e+09 3.35079e+09 0 0
332 1 1 3.35819e+09 3.35844e+09 3.35946e+09 3.36308e+09 1 0
333 1 1 3.37196e+09 3.37221e+09 3.37323e+09 3.3759e+09 1 0
334 1 0 3.38323e+09 3.38348e+09 3.3845e+09 3.38467e+09 1 1
335 2 1 3.38753e+09 3.38779e+09 3.38881e+09 3.38964e+09 0 1
336 1 1 3.39595e+09 3.3962e+09 3.39722e+09 3.39738e+09 0 0
337 1 1 3.40496e+09 3.40521e+09 3.40623e+09 3.40711e+09 1 0
338 1 1 3.4146e+09 3.41485e+09 3.41587e+09 3.41675e+09 1 0
339 1 1 3.42421e+09 3.42446e+09 3.42548e+09 3.42574e+09 1 0
340 2 1 3.43328e+09 3.43354e+09 3.43456e+09 3.44139e+09 0 1
341 2 0 3.44441e+09 3.44466e+09 3.44568e+09 3.44601e+09 0 0
342 2 1 3.45442e+09 3.45468e+09 3.4557e+09 3.45615e+09 1 1
343 1 0 3.45912e+09 3.45938e+09 3.4604e+09 3.4626e+09 0 1
344 1 1 3.46515e+09 3.46541e+09 3.46643e+09 3.46645e+09 0 0
345 1 1 3.47507e+09 3.47531e+09 3.47633e+09 3.47686e+09 1 0
346 1 1 3.48524e+09 3.4855e+09 3.48652e+09 3.48793e+09 1 0
347 1 1 3.49567e+09 3.49592e+09 3.49694e+09 3.49862e+09 1 0
348 1 1 3.50617e+09 3.50643e+09 3.50745e+09 3.50825e+09 0 0
349 2 0 3.51622e+09 3.51648e+09 3.5175e+09 3.52373e+09 0 0
350 2 0 3.53791e+09 3.53817e+09 3.53919e+09 3.54138e+09 0 0
351 2 1 3.55183e+09 3.55209e+09 3.55311e+09 3.56296e+09 0 1
352 1 0 3.56561e+09 3.56588e+09 3.5669e+09 3.56742e+09 0 1
353 1 1 3.57008e+09 3.57033e+09 3.57135e+09 3.57217e+09 0 0
354 1 1 3.58198e+09 3.58225e+09 3.58327e+09 3.58437e+09 1 0
355 1 1 3.59467e+09 3.59492e+09 3.59594e+09 3.60105e+09 1 0
356 1 0 3.60851e+09 3.60876e+09 3.60978e+09 3.61948e+09 1 1
357 2 1 3.6224e+09 3.62265e+09 3.62367e+09 3.62452e+09 0 1
358 2 0 3.62901e+09 3.62927e+09 3.63029e+09 3.63301e+09 0 0
359 2 1 3.64208e+09 3.64234e+09 3.64336e+09 3.6484e+09 1 1
360 1 1 3.65092e+09 3.65117e+09 3.65219e+09 3.65578e+09 0 0
361 1 1 3.66287e+09 3.66312e+09 3.66414e+09 3.66471e+09 1 0
362 1 0 3.67184e+09 3.67209e+09 3.67311e+09 3.67818e+09 1 1
363 1 1 3.6811e+09 3.68135e+09 3.68237e+09 3.68482e+09 0 0
364 1 0 3.69199e+09 3.69225e+09 3.69327e+09 3.69339e+09 1 1
365 1 1 3.69644e+09 3.69669e+09 3.69771e+09 3.71583e+09 0 0
366 1 1 3.7236e+09 3.72385e+09 3.72487e+09 3.73178e+09 1 0
367 1 1 3.73906e+09 3.73933e+09 3.74034e+09 3.74763e+09 1 0
368 1 0 3.75494e+09 3.75519e+09 3.75621e+09 3.76263e+09 1 1
369 2 0 3.76553e+09 3.76578e+09 3.7668e+09 3.77081e+09 0 0
370 2 0 3.7784e+09 3.77865e+09 3.77967e+09 3.79853e+09 1 0
371 2 1 3.81074e+09 3.811e+09 3.81202e+09 3.83854e+09 1 1
372 1 0 3.8412e+09 3.84146e+09 3.84247e+09 3.84368e+09 0 1
373 2 0 3.84918e+09 3.84944e+09 3.85046e+09 3.85121e+09 0 0
374 2 1 3.85862e+09 3.85887e+09 3.85989e+09 3.86106e+09 1 1
375 1 0 3.86373e+09 3.86399e+09 3.86501e+09 3.86711e+09 0 1
376 1 0 3.87044e+09 3.87068e+09 3.8717e+09 3.87205e+09 0 1
377 2 0 3.87653e+09 3.87678e+09 3.8778e+09 3.88832e+09 0 0
378 2 1 3.89721e+09 3.89747e+09 3.89848e+09 3.90679e+09 1 1
379 2 1 3.90961e+09 3.90987e+09 3.91089e+09 3.91558e+09 0 1
380 1 0 3.91834e+09 3.91859e+09 3.91961e+09 3.92104e+09 0 1
381 2 1 3.92491e+09 3.92518e+09 3.9262e+09 3.92693e+09 0 1
382 2 0 3.93235e+09 3.9326e+09 3.93362e+09 3.94439e+09 0 0
383 2 0 3.95181e+09 3.95206e+09 3.95308e+09 3.96245e+09 1 0
384 2 0 3.97166e+09 3.97191e+09 3.97293e+09 3.99042e+09 1 0
385 2 0 3.99791e+09 3.99816e+09 3.99918e+09 4.00434e+09 1 0
386 2 0 4.01168e+09 4.01194e+09 4.01295e+09 4.01391e+09 0 0
387 2 0 4.02148e+09 4.02173e+09 4.02275e+09 4.03308e+09 0 0
388 1 0 4.04037e+09 4.04062e+09 4.04164e+09 4.04482e+09 0 1
389 2 0 4.04772e+09 4.04798e+09 4.049e+09 4.05155e+09 0 0
390 2 0 4.06102e+09 4.06127e+09 4.06229e+09 4.07892e+09 1 0
391 2 0 4.08699e+09 4.08724e+09 4.08826e+09 4.08945e+09 1 0
392 2 0 4.09846e+09 4.0987e+09 4.09972e+09 4.10563e+09 1 0
393 1 0 4.11271e+09 4.11296e+09 4.11398e+09 4.11572e+09 0 1
394 1 1 4.11842e+09 4.11867e+09 4.11969e+09 4.12064e+09 0 0
395 1 0 4.12812e+09 4.12837e+09 4.12939e+09 4.13221e+09 1 1
396 1 0 4.13672e+09 4.13697e+09 4.13799e+09 4.14339e+09 0 1
397 2 0 4.15066e+09 4.15091e+09 4.15193e+09 4.16512e+09 0 0
398 2 0 4.17254e+09 4.17279e+09 4.17381e+09 4.17601e+09 1 0
399 2 0 4.18337e+09 4.18362e+09 4.18464e+09 4.18605e+09 1 0
400 2 1 4.19368e+09 4.19394e+09 4.19496e+09 4.23495e+09 1 1
401 2 0 4.23917e+09 4.23942e+09 4.24044e+09 4.24802e+09 0 0
402 2 0 4.25518e+09 4.25542e+09 4.25644e+09 4.2691e+09 1 0
403 2 0 4.27726e+09 4.27751e+09 4.27853e+09 1.7901e+06 1 0
404 2 0 1.57112e+07 1.59613e+07 1.69809e+07 2.10194e+07 1 0
405 1 0 3.12412e+07 3.14936e+07 3.25132e+07 5.09871e+07 0 1
406 1 0 5.47e+07 5.49605e+07 5.59801e+07 6.94995e+07 0 1
407 1 1 7.24828e+07 7.27252e+07 7.37448e+07 8.18112e+07 0 0
408 1 1 8.99461e+07 9.01905e+07 9.12101e+07 9.59177e+07 1 0
409 1 0 1.02988e+08 1.03244e+08 1.04263e+08 1.04781e+08 1 1
410 2 0 1.10744e+08 1.11002e+08 1.12021e+08 1.14168e+08 0 0
411 2 0 1.21359e+08 1.21615e+08 1.22634e+08 1.27187e+08 1 0
412 2 0 1.35116e+08 1.3536e+08 1.3638e+08 1.44331e+08 1 0
413 2 0 1.54987e+08 1.55242e+08 1.56262e+08 1.63394e+08 1 0
414 2 0 1.70787e+08 1.7104e+08 1.72059e+08 1.75184e+08 0 0
415 1 0 1.82531e+08 1.82787e+08 1.83807e+08 1.88064e+08 0 1
416 2 0 1.90895e+08 1.91165e+08 1.92184e+08 1.93811e+08 0 0
417 2 0 2.02036e+08 2.02284e+08 2.03304e+08 2.11573e+08 1 0
418 2 0 2.19441e+08 2.19689e+08 2.20709e+08 2.31941e+08 1 0
419 2 0 2.39246e+08 2.39508e+08 2.40527e+08 2.67032e+08 1 0
420 1 0 2.74255e+08 2.74506e+08 2.75526e+08 2.75668e+08 0 1
421 2 0 2.79556e+08 2.79805e+08 2.80825e+08 3.03062e+08 0 0
422 2 0 3.10546e+08 3.10799e+08 3.11819e+08 3.256e+08 1 0
423 2 1 3.32828e+08 3.3308e+08 3.341e+08 3.34937e+08 1 1
424 1 1 3.42169e+08 3.42423e+08 3.43443e+08 3.53975e+08 0 0
425 1 0 3.61075e+08 3.61321e+08 3.62341e+08 3.63809e+08 1 1
426 2 0 3.67255e+08 3.67509e+08 3.68529e+08 3.768e+08 0 0
427 2 0 3.85971e+08 3.8623e+08 3.8725e+08 4.12135e+08 1 0
428 2 0 4.1941e+08 4.19656e+08 4.20676e+08 4.27557e+08 1 0
429 2 0 4.38168e+08 4.38413e+08 4.39433e+08 5.20214e+08 1 0
430 1 0 5.27312e+08 5.27565e+08 5.28585e+08 5.77639e+08 0 1
431 1 0 5.80513e+08 5.80765e+08 5.81785e+08 5.92205e+08 0 1
432 2 0 5.96478e+08 5.96737e+08 5.97756e+08 5.99878e+08 0 0
433 2 0 6.07538e+08 6.07792e+08 6.08811e+08 6.12185e+08 1 0
434 2 0 6.19308e+08 6.1956e+08 6.2058e+08 6.23489e+08 1 0
435 2 0 6.3346e+08 6.33716e+08 6.34736e+08 6.64244e+08 1 0
436 1 0 6.71618e+08 6.7187e+08 6.72889e+08 7.40499e+08 0 1
437 2 0 7.43176e+08 7.43428e+08 7.44447e+08 7.47106e+08 0 0
438 2 0 7.55652e+08 7.55907e+08 7.56927e+08 7.73389e+08 1 0
439 2 0 7.80744e+08 7.80994e+08 7.82014e+08 8.10594e+08 1 0
440 2 0 8.17659e+08 8.17914e+08 8.18933e+08 8.31639e+08 1 0
441 1 0 8.38737e+08 8.38999e+08 8.40019e+08 8.53866e+08 0 1
442 1 0 8.56992e+08 8.5725e+08 8.5827e+08 8.69485e+08 0 1
443 2 0 8.73408e+08 8.73653e+08 8.74673e+08 8.88035e+08 0 0
444 2 0 8.95183e+08 8.95439e+08 8.96458e+08 9.11307e+08 1 0
445 2 0 9.18343e+08 9.18609e+08 9.19629e+08 9.3085e+08 1 0
446 2 0 9.39179e+08 9.39431e+08 9.40451e+08 9.44531e+08 1 0
447 2 0 9.51971e+08 9.52215e+08 9.53235e+08 9.56214e+08 0 0
448 2 0 9.63501e+08 9.63758e+08 9.64778e+08 9.68027e+08 0 0
449 1 0 9.75384e+08 9.75637e+08 9.76656e+08 9.76732e+08 0 1
450 2 0 9.80787e+08 9.81047e+08 9.82067e+08 1.00181e+09 0 0
451 2 0 1.00902e+09 1.00927e+09 1.01029e+09 1.01477e+09 1 0
452 2 0 1.02197e+09 1.02224e+09 1.02326e+09 1.02419e+09 1 0
453 2 0 1.03164e+09 1.03189e+09 1.03291e+09 1.06058e+09 1 0
454 2 0 1.06776e+09 1.06801e+09 1.06903e+09 1.07915e+09 0 0
455 1 0 1.08729e+09 1.08753e+09 1.08855e+09 1.08897e+09 0 1
456 1 0 1.09154e+09 1.09179e+09 1.09281e+09 1.12058e+09 0 1
457 1 0 1.12483e+09 1.12508e+09 1.1261e+09 1.12766e+09 0 1
458 1 0 1.13222e+09 1.13248e+09 1.1335e+09 1.15931e+09 0 1
459 1 0 1.16263e+09 1.16289e+09 1.16391e+09 1.17113e+09 0 1
460 2 0 1.17401e+09 1.17427e+09 1.17529e+09 1.19651e+09 0 0
461 2 0 1.20471e+09 1.20496e+09 1.20598e+09 1.26503e+09 1 0
462 2 0 1.27221e+09 1.27247e+09 1.27349e+09 1.30475e+09 1 0
463 2 0 1.31219e+09 1.31244e+09 1.31346e+09 1.32256e+09 1 0
464 2 0 1.32985e+09 1.33011e+09 1.33113e+09 1.33125e+09 0 0
465 1 0 1.33866e+09 1.3389e+09 1.33992e+09 1.36298e+09 0 1
466 2 0 1.36614e+09 1.3664e+09 1.36742e+09 1.36792e+09 0 0
467 2 0 1.37512e+09 1.37537e+09 1.37639e+09 1.41393e+09 1 0
468 2 0 1.42124e+09 1.42149e+09 1.42251e+09 1.42283e+09 1 0
469 2 0 1.43113e+09 1.43138e+09 1.4324e+09 1.44215e+09 1 0
470 1 0 1.45025e+09 1.45051e+09 1.45153e+09 1.45788e+09 0 1
471 2 0 1.46068e+09 1.46092e+09 1.46194e+09 1.47889e+09 0 0
472 2 0 1.48849e+09 1.48874e+09 1.48976e+09 1.49843e+09 1 0
473 2 0 1.50582e+09 1.50607e+09 1.50709e+09 1.50718e+09 1 0
474 2 1 1.51456e+09 1.51481e+09 1.51583e+09 1.52575e+09 1 1
475 1 0 1.5286e+09 1.52885e+09 1.52987e+09 1.55906e+09 0 1
476 2 0 1.56206e+09 1.56231e+09 1.56333e+09 1.58273e+09 0 0
477 2 0 1.59402e+09 1.59429e+09 1.59531e+09 1.65306e+09 1 0
478 2 1 1.66046e+09 1.66072e+09 1.66174e+09 1.66793e+09 1 1
479 1 0 1.6741e+09 1.67435e+09 1.67537e+09 1.75934e+09 0 1
480 2 0 1.76261e+09 1.76286e+09 1.76388e+09 1.76606e+09 0 0
481 2 1 1.77438e+09 1.77463e+09 1.77565e+09 1.77817e+09 1 1
482 2 0 1.78242e+09 1.78268e+09 1.78369e+09 1.82533e+09 0 0
483 2 0 1.83268e+09 1.83294e+09 1.83396e+09 1.83454e+09 1 0
484 2 0 1.84427e+09 1.84453e+09 1.84555e+09 1.88638e+09 1 0
485 2 0 1.89366e+09 1.89392e+09 1.89493e+09 1.94482e+09 1 0
486 1 0 1.9521e+09 1.95235e+09 1.95337e+09 1.95341e+09 0 1
487 2 0 1.95653e+09 1.95677e+09 1.95779e+09 1.97032e+09 0 0
488 2 0 1.97838e+09 1.97864e+09 1.97966e+09 1.99637e+09 1 0
489 2 0 2.0037e+09 2.00396e+09 2.00498e+09 2.01782e+09 1 0
490 2 0 2.0252e+09 2.02546e+09 2.02648e+09 2.03377e+09 1 0
491 1 0 2.0425e+09 2.04275e+09 2.04377e+09 2.04532e+09 0 1
492 1 0 2.04848e+09 2.04874e+09 2.04976e+09 2.05499e+09 0 1
493 2 0 2.05898e+09 2.05923e+09 2.06025e+09 2.06237e+09 0 0
494 2 1 2.06952e+09 2.06977e+09 2.07079e+09 2.07144e+09 1 1
495 2 0 2.07684e+09 2.0771e+09 2.07812e+09 2.09364e+09 0 0
496 2 0 2.10104e+09 2.10128e+09 2.1023e+09 2.105e+09 1 0
497 2 0 2.11388e+09 2.11413e+09 2.11515e+09 2.11963e+09 1 0
498 2 0 2.12712e+09 2.12736e+09 2.12838e+09 2.13282e+09 1 0
499 1 0 2.14009e+09 2.14035e+09 2.14137e+09 2.14166e+09 0 1
500 1 0 2.14458e+09 2.14484e+09 2.14586e+09 2.15248e+09 0 1
501 1 0 2.16134e+09 2.16159e+09 2.16261e+09 2.16603e+09 0 1
502 1 0 2.16871e+09 2.16897e+09 2.16999e+09 2.17001e+09 0 1
503 1 0 2.17293e+09 2.1732e+09 2.17421e+09 2.17576e+09 0 1
504 2 0 2.17921e+09 2.17947e+09 2.18049e+09 2.18852e+09 0 0
505 2 0 2.19578e+09 2.19603e+09 2.19705e+09 2.20885e+09 1 0
506 2 0 2.21886e+09 2.21911e+09 2.22013e+09 2.22237e+09 1 0
507 2 0 2.22961e+09 2.22987e+09 2.23089e+09 2.24052e+09 1 0
508 2 0 2.24851e+09 2.24877e+09 2.24979e+09 2.25976e+09 0 0
509 2 1 2.26696e+09 2.26722e+09 2.26824e+09 2.26831e+09 0 1
510 1 0 2.27106e+09 2.27132e+09 2.27234e+09 2.27283e+09 0 1
511 1 0 2.27749e+09 2.27775e+09 2.27877e+09 2.29311e+09 0 1
512 2 0 2.29609e+09 2.29635e+09 2.29737e+09 2.3007e+09 0 0
513 2 0 2.30786e+09 2.3081e+09 2.30912e+09 2.31851e+09 1 0
514 2 0 2.3259e+09 2.32616e+09 2.32718e+09 2.33574e+09 1 0
515 2 0 2.34299e+09 2.34324e+09 2.34426e+09 2.34463e+09 1 0
516 2 0 2.35179e+09 2.35205e+09 2.35307e+09 2.35596e+09 0 0
517 1 0 2.36315e+09 2.36341e+09 2.36442e+09 2.36473e+09 0 1
518 2 0 2.36731e+09 2.36757e+09 2.36859e+09 2.37406e+09 0 0
519 2 0 2.38132e+09 2.38156e+09 2.38258e+09 2.38275e+09 1 0
520 2 0 2.3901e+09 2.39035e+09 2.39137e+09 2.39378e+09 1 0
521 2 0 2.40631e+09 2.40656e+09 2.40758e+09 2.40997e+09 1 0
522 1 0 2.4171e+09 2.41735e+09 2.41837e+09 2.41923e+09 0 1
523 2 1 2.42221e+09 2.42247e+09 2.42349e+09 2.42964e+09 0 1
524 1 0 2.43219e+09 2.43244e+09 2.43346e+09 2.43951e+09 0 1
525 1 0 2.44204e+09 2.4423e+09 2.44332e+09 2.45338e+09 0 1
526 2 0 2.45595e+09 2.4562e+09 2.45722e+09 2.46134e+09 0 0
527 2 0 2.46961e+09 2.46985e+09 2.47087e+09 2.473e+09 1 0
528 2 0 2.48103e+09 2.48128e+09 2.4823e+09 2.48356e+09 1 0
529 2 1 2.4907e+09 2.49095e+09 2.49197e+09 2.49201e+09 1 1
530 1 1 2.49591e+09 2.49616e+09 2.49718e+09 2.50122e+09 0 0
531 1 1 2.50836e+09 2.50861e+09 2.50963e+09 2.85286e+09 1 0
