trial trialType response stillTime stimOnset stimOffset respTime correctionTrial correct
001 1 1 1.07244e+07 1.10433e+07 1.20629e+07 1.21204e+07 0 0
002 1 0 1.95441e+07 1.9829e+07 2.08486e+07 2.08686e+07 1 1
003 1 0 2.48423e+07 2.51403e+07 2.61599e+07 2.63235e+07 0 1
004 2 1 3.01107e+07 3.03873e+07 3.14069e+07 3.15604e+07 0 1
005 1 0 4.75873e+07 4.78424e+07 4.8862e+07 4.89266e+07 0 1
006 1 1 5.35921e+07 5.38716e+07 5.48912e+07 5.51495e+07 0 0
007 1 1 6.32269e+07 6.34881e+07 6.45077e+07 6.46115e+07 1 0
008 1 1 7.20323e+07 7.22828e+07 7.33024e+07 7.36006e+07 1 0
009 1 1 8.28826e+07 8.31329e+07 8.41525e+07 8.43299e+07 1 0
010 2 1 9.76886e+07 9.79547e+07 9.89744e+07 9.97522e+07 0 1
011 1 0 1.05983e+08 1.06238e+08 1.07258e+08 1.07485e+08 0 1
012 2 0 1.10281e+08 1.10532e+08 1.11552e+08 1.11579e+08 0 0
013 2 1 1.19742e+08 1.19993e+08 1.21012e+08 1.22144e+08 1 1
014 2 1 1.25954e+08 1.2621e+08 1.27229e+08 1.27894e+08 0 1
015 2 1 1.30932e+08 1.31192e+08 1.32211e+08 1.33533e+08 0 1
016 1 0 1.37272e+08 1.37526e+08 1.38546e+08 1.38633e+08 0 1
017 1 0 1.45267e+08 1.45523e+08 1.46543e+08 1.4673e+08 0 1
018 2 1 1.52384e+08 1.52638e+08 1.53658e+08 1.58466e+08 0 1
019 2 1 1.61358e+08 1.61619e+08 1.62639e+08 1.66462e+08 0 1
020 1 1 1.69126e+08 1.6939e+08 1.7041e+08 1.70888e+08 0 0
021 1 0 1.78681e+08 1.78934e+08 1.79953e+08 1.80134e+08 1 1
022 2 1 1.86025e+08 1.86286e+08 1.87305e+08 1.95928e+08 0 1
023 2 1 2.00152e+08 2.00415e+08 2.01435e+08 2.10786e+08 0 1
024 1 0 2.135e+08 2.13752e+08 2.14772e+08 2.15028e+08 0 1
025 1 0 2.21194e+08 2.21455e+08 2.22474e+08 2.2256e+08 0 1
026 2 1 2.27264e+08 2.27518e+08 2.28538e+08 2.29606e+08 0 1
027 2 1 2.32244e+08 2.32507e+08 2.33527e+08 2.33858e+08 0 1
028 1 0 2.36714e+08 2.36967e+08 2.37987e+08 2.38317e+08 0 1
029 1 0 2.43085e+08 2.43345e+08 2.44364e+08 2.44727e+08 0 1
030 1 1 2.47602e+08 2.47853e+08 2.48873e+08 2.48913e+08 0 0
031 1 1 2.58264e+08 2.58516e+08 2.59535e+08 2.67456e+08 1 0
032 1 0 2.75988e+08 2.76238e+08 2.77257e+08 2.77663e+08 1 1
033 2 1 2.80252e+08 2.80514e+08 2.81533e+08 2.82944e+08 0 1
034 1 0 2.86682e+08 2.86951e+08 2.8797e+08 2.88675e+08 0 1
035 1 0 2.97235e+08 2.97491e+08 2.98511e+08 2.98548e+08 0 1
036 1 0 3.01173e+08 3.01433e+08 3.02453e+08 3.02682e+08 0 1
037 2 1 3.09492e+08 3.09745e+08 3.10765e+08 3.12318e+08 0 1
038 2 1 3.14958e+08 3.15214e+08 3.16234e+08 3.18797e+08 0 1
039 1 1 3.23494e+08 3.23742e+08 3.24762e+08 3.24795e+08 0 0
040 1 1 3.32952e+08 3.332e+08 3.3422e+08 3.34272e+08 1 0
041 1 0 3.41772e+08 3.42016e+08 3.43036e+08 3.43706e+08 1 1
042 2 1 3.48215e+08 3.48473e+08 3.49492e+08 3.51277e+08 0 1
043 1 0 3.57798e+08 3.58056e+08 3.59076e+08 3.59117e+08 0 1
044 2 1 3.64327e+08 3.6458e+08 3.65599e+08 3.66028e+08 0 1
045 2 0 3.72206e+08 3.72458e+08 3.73477e+08 3.7488e+08 0 0
046 2 1 3.83823e+08 3.84074e+08 3.85093e+08 3.85601e+08 1 1
047 2 1 3.89995e+08 3.90253e+08 3.91273e+08 3.91832e+08 0 1
048 1 0 3.97206e+08 3.97458e+08 3.98478e+08 3.98586e+08 0 1
049 2 0 4.02781e+08 4.03039e+08 4.04059e+08 4.04785e+08 0 0
050 2 1 4.18728e+08 4.18989e+08 4.20009e+08 4.21775e+08 1 1
051 2 1 4.26867e+08 4.27117e+08 4.28137e+08 4.30013e+08 0 1
052 2 1 4.34633e+08 4.34878e+08 4.35898e+08 4.36031e+08 0 1
053 1 0 4.41722e+08 4.41974e+08 4.42994e+08 4.43184e+08 0 1
054 2 1 4.57343e+08 4.57595e+08 4.58615e+08 4.59511e+08 0 1
055 2 1 4.66698e+08 4.66962e+08 4.67982e+08 4.68593e+08 0 1
056 2 1 4.77035e+08 4.77298e+08 4.78318e+08 4.78942e+08 0 1
057 1 0 4.81643e+08 4.81899e+08 4.82919e+08 4.8302e+08 0 1
058 1 1 4.94123e+08 4.9438e+08 4.954e+08 4.95455e+08 0 0
059 1 0 5.03374e+08 5.03626e+08 5.04646e+08 5.04657e+08 1 1
060 1 0 5.17319e+08 5.17578e+08 5.18597e+08 5.18634e+08 0 1
061 2 0 5.26882e+08 5.27134e+08 5.28154e+08 5.28184e+08 0 0
062 2 1 5.35906e+08 5.36158e+08 5.37177e+08 5.38965e+08 1 1
063 2 1 5.46744e+08 5.47011e+08 5.48031e+08 5.48104e+08 0 1
064 1 0 5.52953e+08 5.53214e+08 5.54233e+08 5.54295e+08 0 1
065 2 0 5.58567e+08 5.58817e+08 5.59837e+08 5.59856e+08 0 0
066 2 1 5.7e+08 5.70254e+08 5.71274e+08 5.72395e+08 1 1
067 2 1 5.77825e+08 5.78088e+08 5.79107e+08 5.79212e+08 0 1
068 2 1 5.83619e+08 5.83865e+08 5.84884e+08 5.85909e+08 0 1
069 1 0 5.8872e+08 5.88971e+08 5.8999e+08 5.90143e+08 0 1
070 1 0 5.99452e+08 5.99712e+08 6.00731e+08 6.01087e+08 0 1
071 1 0 6.04014e+08 6.04269e+08 6.05288e+08 6.05971e+08 0 1
072 1 0 6.17597e+08 6.17853e+08 6.18872e+08 6.19671e+08 0 1
073 2 0 6.23261e+08 6.23513e+08 6.24533e+08 6.26776e+08 0 0
074 2 1 6.33828e+08 6.34078e+08 6.35098e+08 6.35741e+08 1 1
075 2 1 6.46427e+08 6.46687e+08 6.47706e+08 6.48967e+08 0 1
076 1 0 6.55938e+08 6.56199e+08 6.57219e+08 6.57318e+08 0 1
077 1 0 6.61851e+08 6.6211e+08 6.6313e+08 6.63201e+08 0 1
078 1 1 6.65722e+08 6.65986e+08 6.67006e+08 6.67025e+08 0 0
079 1 0 6.77834e+08 6.78086e+08 6.79106e+08 6.79168e+08 1 1
080 2 0 6.85684e+08 6.85941e+08 6.8696e+08 6.87156e+08 0 0
081 2 1 6.97228e+08 6.97481e+08 6.985e+08 6.98523e+08 1 1
082 1 0 7.01122e+08 7.01384e+08 7.02404e+08 7.02562e+08 0 1
083 2 0 7.06296e+08 7.06573e+08 7.07593e+08 7.07843e+08 0 0
084 2 0 7.15913e+08 7.16176e+08 7.17196e+08 7.17641e+08 1 0
085 2 0 7.31189e+08 7.31443e+08 7.32462e+08 7.36431e+08 1 0
086 2 1 7.45635e+08 7.45889e+08 7.46909e+08 7.48548e+08 1 1
087 1 1 7.53307e+08 7.53568e+08 7.54587e+08 7.54781e+08 0 0
088 1 1 7.62459e+08 7.62703e+08 7.63723e+08 7.6941e+08 1 0
089 1 0 7.76887e+08 7.77145e+08 7.78165e+08 7.78377e+08 1 1
090 2 1 7.82377e+08 7.8263e+08 7.8365e+08 7.84373e+08 0 1
091 1 0 7.89346e+08 7.896e+08 7.90619e+08 7.90765e+08 0 1
092 2 0 7.93371e+08 7.93627e+08 7.94647e+08 7.9507e+08 0 0
093 2 1 8.02113e+08 8.02372e+08 8.03391e+08 8.05834e+08 1 1
094 1 0 8.11855e+08 8.12107e+08 8.13126e+08 8.13147e+08 0 1
095 1 0 8.17098e+08 8.17352e+08 8.18372e+08 8.18455e+08 0 1
096 1 0 8.21658e+08 8.2191e+08 8.22929e+08 8.23149e+08 0 1
097 2 0 8.28072e+08 8.28332e+08 8.29352e+08 8.29405e+08 0 0
098 2 1 8.37713e+08 8.3797e+08 8.3899e+08 8.39278e+08 1 1
099 1 0 8.42204e+08 8.42456e+08 8.43476e+08 8.43591e+08 0 1
100 2 1 8.4622e+08 8.46472e+08 8.47492e+08 8.47665e+08 0 1
101 2 0 8.51545e+08 8.51796e+08 8.52816e+08 8.54973e+08 0 0
102 2 1 8.63769e+08 8.64024e+08 8.65043e+08 8.68873e+08 1 1
103 2 1 8.73609e+08 8.73867e+08 8.74887e+08 9.1795e+08 0 1
104 2 1 9.2077e+08 9.21017e+08 9.22037e+08 9.27078e+08 0 1
105 2 1 9.29719e+08 9.29974e+08 9.30994e+08 9.34162e+08 0 1
106 1 0 9.37002e+08 9.3727e+08 9.38289e+08 9.38542e+08 0 1
107 1 0 9.43782e+08 9.44039e+08 9.45059e+08 9.45243e+08 0 1
108 2 0 9.48126e+08 9.48384e+08 9.49403e+08 9.49483e+08 0 0
109 2 1 9.59308e+08 9.59552e+08 9.60571e+08 9.62369e+08 1 1
110 1 0 9.67694e+08 9.67964e+08 9.68984e+08 9.6951e+08 0 1
111 1 0 9.74775e+08 9.75026e+08 9.76046e+08 9.76068e+08 0 1
112 1 0 9.78796e+08 9.79059e+08 9.80078e+08 9.80237e+08 0 1
113 2 1 9.84305e+08 9.84567e+08 9.85587e+08 9.88196e+08 0 1
114 1 1 9.90843e+08 9.91099e+08 9.92118e+08 9.9262e+08 0 0
115 1 0 9.99989e+08 1.00024e+09 1.00126e+09 1.00127e+09 1 1
116 2 0 1.00653e+09 1.00678e+09 1.0078e+09 1.01057e+09 0 0
117 2 1 1.01802e+09 1.01828e+09 1.0193e+09 1.02131e+09 1 1
118 2 1 1.02605e+09 1.02631e+09 1.02733e+09 1.03206e+09 0 1
119 2 1 1.0373e+09 1.03755e+09 1.03857e+09 1.04257e+09 0 1
120 1 1 1.04547e+09 1.04573e+09 1.04675e+09 1.04743e+09 0 0
121 1 1 1.05473e+09 1.05499e+09 1.05601e+09 1.05998e+09 1 0
122 1 1 1.06788e+09 1.06814e+09 1.06916e+09 1.12703e+09 1 0
123 1 0 1.13416e+09 1.13442e+09 1.13544e+09 1.13545e+09 1 1
124 2 0 1.13794e+09 1.1382e+09 1.13921e+09 1.13923e+09 0 0
125 2 0 1.1487e+09 1.14895e+09 1.14997e+09 1.15001e+09 1 0
126 2 1 1.16071e+09 1.16096e+09 1.16198e+09 1.16429e+09 1 1
127 1 0 1.1684e+09 1.16865e+09 1.16967e+09 1.16973e+09 0 1
128 1 1 1.17225e+09 1.1725e+09 1.17352e+09 1.17366e+09 0 0
129 1 1 1.1807e+09 1.18096e+09 1.18198e+09 1.18216e+09 1 0
130 1 0 1.19197e+09 1.19222e+09 1.19324e+09 1.19328e+09 1 1
131 1 1 1.19622e+09 1.19647e+09 1.19749e+09 1.1981e+09 0 0
132 1 0 1.20645e+09 1.20671e+09 1.20773e+09 1.20783e+09 1 1
133 1 0 1.21168e+09 1.21194e+09 1.21296e+09 1.21308e+09 0 1
134 2 0 1.21881e+09 1.21907e+09 1.22009e+09 1.22018e+09 0 0
135 2 1 1.23031e+09 1.23058e+09 1.23159e+09 1.23461e+09 1 1
136 2 1 1.2392e+09 1.23946e+09 1.24048e+09 1.24148e+09 0 1
137 1 0 1.25068e+09 1.25093e+09 1.25194e+09 1.25195e+09 0 1
138 2 1 1.25499e+09 1.25525e+09 1.25627e+09 1.25809e+09 0 1
139 1 1 1.26686e+09 1.26711e+09 1.26813e+09 1.26824e+09 0 0
140 1 1 1.27568e+09 1.27593e+09 1.27695e+09 1.27743e+09 1 0
141 1 0 1.2863e+09 1.28656e+09 1.28758e+09 1.28781e+09 1 1
142 2 1 1.29064e+09 1.29089e+09 1.29191e+09 1.29436e+09 0 1
143 1 0 1.30407e+09 1.30432e+09 1.30534e+09 1.30577e+09 0 1
144 2 1 1.31138e+09 1.31163e+09 1.31265e+09 1.31413e+09 0 1
145 1 1 1.31841e+09 1.31866e+09 1.31968e+09 1.32011e+09 0 0
146 1 1 1.32742e+09 1.32769e+09 1.32871e+09 1.33059e+09 1 0
147 1 0 1.34094e+09 1.3412e+09 1.34222e+09 1.34226e+09 1 1
148 1 0 1.35253e+09 1.35279e+09 1.35381e+09 1.35406e+09 0 1
149 2 1 1.35691e+09 1.35719e+09 1.35821e+09 1.36147e+09 0 1
150 2 1 1.3677e+09 1.36796e+09 1.36898e+09 1.37061e+09 0 1
151 2 1 1.37771e+09 1.37797e+09 1.37899e+09 1.38024e+09 0 1
152 1 0 1.38455e+09 1.38481e+09 1.38583e+09 1.38601e+09 0 1
153 1 0 1.39157e+09 1.39182e+09 1.39284e+09 1.39298e+09 0 1
154 2 1 1.40038e+09 1.40063e+09 1.40165e+09 1.40313e+09 0 1
155 1 0 1.40887e+09 1.40913e+09 1.41015e+09 1.41057e+09 0 1
156 2 1 1.41328e+09 1.41353e+09 1.41455e+09 1.41505e+09 0 1
157 2 1 1.42123e+09 1.42148e+09 1.4225e+09 1.42316e+09 0 1
158 2 1 1.42591e+09 1.42616e+09 1.42718e+09 1.42827e+09 0 1
159 1 0 1.43779e+09 1.43805e+09 1.43907e+09 1.43935e+09 0 1
160 2 1 1.44198e+09 1.44223e+09 1.44325e+09 1.4437e+09 0 1
161 1 0 1.45383e+09 1.45408e+09 1.4551e+09 1.45521e+09 0 1
162 1 0 1.4577e+09 1.45795e+09 1.45897e+09 1.4591e+09 0 1
163 2 1 1.46727e+09 1.46752e+09 1.46854e+09 1.46933e+09 0 1
164 2 1 1.47413e+09 1.4744e+09 1.47542e+09 1.47689e+09 0 1
165 2 1 1.47988e+09 1.48013e+09 1.48115e+09 1.48218e+09 0 1
166 2 1 1.48482e+09 1.48509e+09 1.48611e+09 1.48795e+09 0 1
167 2 1 1.49148e+09 1.49174e+09 1.49276e+09 1.49445e+09 0 1
168 1 0 1.4992e+09 1.49946e+09 1.50048e+09 1.50104e+09 0 1
169 2 1 1.50393e+09 1.50418e+09 1.5052e+09 1.50624e+09 0 1
170 1 1 1.50898e+09 1.50925e+09 1.51027e+09 1.51029e+09 0 0
171 1 0 1.51755e+09 1.5178e+09 1.51882e+09 1.5189e+09 1 1
172 1 0 1.52209e+09 1.52234e+09 1.52336e+09 1.52338e+09 0 1
173 1 0 1.52834e+09 1.52861e+09 1.52963e+09 1.52967e+09 0 1
174 1 1 1.5377e+09 1.53797e+09 1.53899e+09 1.53901e+09 0 0
175 1 1 1.54856e+09 1.54882e+09 1.54984e+09 1.55019e+09 1 0
176 1 0 1.55792e+09 1.55817e+09 1.55919e+09 1.55925e+09 1 1
177 1 1 1.5621e+09 1.56235e+09 1.56337e+09 1.56346e+09 0 0
178 1 0 1.57292e+09 1.57318e+09 1.57419e+09 1.57425e+09 1 1
179 1 1 1.57696e+09 1.57722e+09 1.57824e+09 1.57846e+09 0 0
180 1 0 1.58739e+09 1.58764e+09 1.58866e+09 1.58883e+09 1 1
181 2 1 1.59539e+09 1.59564e+09 1.59666e+09 1.59682e+09 0 1
182 1 0 1.6056e+09 1.60585e+09 1.60687e+09 1.60706e+09 0 1
183 1 0 1.6114e+09 1.61166e+09 1.61268e+09 1.61281e+09 0 1
184 2 1 1.62202e+09 1.62227e+09 1.62329e+09 1.6236e+09 0 1
185 1 0 1.6311e+09 1.63135e+09 1.63237e+09 1.6324e+09 0 1
186 2 0 1.63807e+09 1.63834e+09 1.63936e+09 1.63958e+09 0 0
187 2 1 1.6495e+09 1.64976e+09 1.65078e+09 1.6521e+09 1 1
188 2 1 1.66166e+09 1.66192e+09 1.66294e+09 1.66427e+09 0 1
189 1 1 1.66689e+09 1.66716e+09 1.66817e+09 1.66819e+09 0 0
190 1 0 1.67719e+09 1.67744e+09 1.67846e+09 1.67877e+09 1 1
191 2 1 1.68314e+09 1.6834e+09 1.68442e+09 1.68446e+09 0 1
192 1 1 1.7034e+09 1.70365e+09 1.70467e+09 1.70598e+09 0 0
193 1 0 1.71325e+09 1.71351e+09 1.71452e+09 1.7149e+09 1 1
194 1 1 1.72629e+09 1.72655e+09 1.72757e+09 1.7279e+09 0 0
195 1 1 1.73652e+09 1.73678e+09 1.7378e+09 1.73792e+09 1 0
196 1 1 1.74499e+09 1.74525e+09 1.74627e+09 1.74645e+09 1 0
197 1 1 1.75422e+09 1.7545e+09 1.75552e+09 1.75566e+09 1 0
198 1 0 1.76276e+09 1.76302e+09 1.76404e+09 1.76439e+09 0 1
199 1 0 1.76759e+09 1.76785e+09 1.76886e+09 1.76948e+09 0 1
200 2 1 1.77454e+09 1.7748e+09 1.77582e+09 1.77613e+09 0 1
201 1 0 1.77889e+09 1.77914e+09 1.78016e+09 1.78066e+09 0 1
202 2 1 1.78506e+09 1.78531e+09 1.78633e+09 1.78687e+09 0 1
203 2 1 1.79305e+09 1.79331e+09 1.79433e+09 1.7964e+09 0 1
204 2 1 1.807e+09 1.80726e+09 1.80828e+09 1.80967e+09 0 1
205 1 0 1.81385e+09 1.8141e+09 1.81512e+09 1.81522e+09 0 1
206 1 0 1.82092e+09 1.82116e+09 1.82218e+09 1.82221e+09 0 1
207 2 1 1.8352e+09 1.83546e+09 1.83648e+09 1.83682e+09 0 1
208 1 0 1.83936e+09 1.83962e+09 1.84064e+09 1.84067e+09 0 1
209 2 1 1.84481e+09 1.84507e+09 1.84609e+09 1.84612e+09 0 1
210 2 1 1.84904e+09 1.84929e+09 1.85031e+09 1.85183e+09 0 1
211 1 0 1.85785e+09 1.8581e+09 1.85912e+09 1.85931e+09 0 1
212 2 1 1.86187e+09 1.86213e+09 1.86315e+09 1.86396e+09 0 1
213 1 1 1.8693e+09 1.86956e+09 1.87058e+09 1.87069e+09 0 0
214 1 1 1.87794e+09 1.8782e+09 1.87922e+09 1.87925e+09 1 0
215 1 0 1.88655e+09 1.8868e+09 1.88782e+09 1.8879e+09 1 1
216 1 1 1.89566e+09 1.89592e+09 1.89694e+09 1.89789e+09 0 0
217 1 1 1.90859e+09 1.90884e+09 1.90986e+09 1.9102e+09 1 0
218 1 0 1.91874e+09 1.91901e+09 1.92003e+09 1.92037e+09 1 1
219 1 0 1.92368e+09 1.92393e+09 1.92495e+09 1.92517e+09 0 1
220 1 0 1.93216e+09 1.93242e+09 1.93344e+09 1.93345e+09 0 1
221 1 0 1.94639e+09 1.94664e+09 1.94766e+09 1.94772e+09 0 1
222 2 1 1.95068e+09 1.95094e+09 1.95196e+09 1.95242e+09 0 1
223 1 1 1.96281e+09 1.96305e+09 1.96407e+09 1.96412e+09 0 0
224 1 0 1.97144e+09 1.97168e+09 1.9727e+09 1.97299e+09 1 1
225 2 1 1.97651e+09 1.97676e+09 1.97778e+09 1.97961e+09 0 1
226 1 0 1.98468e+09 1.98494e+09 1.98596e+09 1.98598e+09 0 1
227 1 1 1.99847e+09 1.99872e+09 1.99974e+09 1.99983e+09 0 0
228 1 0 2.0072e+09 2.00746e+09 2.00848e+09 2.00855e+09 1 1
229 2 1 2.01154e+09 2.01179e+09 2.01281e+09 2.01456e+09 0 1
230 2 1 2.01997e+09 2.02023e+09 2.02125e+09 2.02282e+09 0 1
231 1 0 2.02692e+09 2.02718e+09 2.0282e+09 2.02822e+09 0 1
232 1 1 2.03153e+09 2.03178e+09 2.0328e+09 2.03301e+09 0 0
233 1 0 2.04018e+09 2.04044e+09 2.04146e+09 2.04184e+09 1 1
234 1 0 2.04768e+09 2.04793e+09 2.04895e+09 2.04902e+09 0 1
235 1 0 2.05186e+09 2.05212e+09 2.05314e+09 2.05326e+09 0 1
236 2 1 2.06665e+09 2.0669e+09 2.06792e+09 2.06832e+09 0 1
237 2 1 2.07286e+09 2.07313e+09 2.07415e+09 2.07511e+09 0 1
238 2 1 2.082e+09 2.08225e+09 2.08327e+09 2.08436e+09 0 1
239 2 1 2.0916e+09 2.09186e+09 2.09288e+09 2.0937e+09 0 1
240 1 0 2.09777e+09 2.09803e+09 2.09905e+09 2.09924e+09 0 1
241 1 1 2.10321e+09 2.10346e+09 2.10448e+09 2.10463e+09 0 0
242 1 0 2.11402e+09 2.11429e+09 2.11531e+09 2.11535e+09 1 1
243 2 1 2.11911e+09 2.11936e+09 2.12038e+09 2.12047e+09 0 1
244 1 0 2.12547e+09 2.12572e+09 2.12674e+09 2.12693e+09 0 1
245 1 0 2.13437e+09 2.13463e+09 2.13565e+09 2.13568e+09 0 1
246 1 1 2.13853e+09 2.13878e+09 2.1398e+09 2.1399e+09 0 0
247 1 0 2.14756e+09 2.14781e+09 2.14883e+09 2.14931e+09 1 1
248 2 1 2.15207e+09 2.15232e+09 2.15334e+09 2.15367e+09 0 1
249 2 1 2.15783e+09 2.15807e+09 2.15909e+09 2.15918e+09 0 1
250 2 1 2.16826e+09 2.16853e+09 2.16955e+09 2.17082e+09 0 1
251 2 1 2.17542e+09 2.17567e+09 2.17669e+09 2.1833e+09 0 1
252 1 0 2.18597e+09 2.18624e+09 2.18726e+09 2.18727e+09 0 1
253 2 0 2.19276e+09 2.19303e+09 2.19404e+09 2.19419e+09 0 0
254 2 0 2.20247e+09 2.20271e+09 2.20373e+09 2.20379e+09 1 0
255 2 1 2.21289e+09 2.21314e+09 2.21416e+09 2.21515e+09 1 1
256 2 0 2.22299e+09 2.22325e+09 2.22427e+09 2.22471e+09 0 0
257 2 1 2.23234e+09 2.23259e+09 2.23361e+09 2.23503e+09 1 1
258 1 0 2.23778e+09 2.23804e+09 2.23906e+09 2.23953e+09 0 1
259 2 1 2.24461e+09 2.24486e+09 2.24588e+09 2.24632e+09 0 1
260 2 1 2.25192e+09 2.25216e+09 2.25318e+09 2.25351e+09 0 1
261 2 1 2.26007e+09 2.26032e+09 2.26134e+09 2.26188e+09 0 1
262 1 0 2.27065e+09 2.2709e+09 2.27192e+09 2.27232e+09 0 1
263 2 1 2.27569e+09 2.27594e+09 2.27696e+09 2.27838e+09 0 1
264 2 0 2.28918e+09 2.28943e+09 2.29045e+09 2.29046e+09 0 0
265 2 1 2.2984e+09 2.29866e+09 2.29968e+09 2.30119e+09 1 1
266 2 1 2.30553e+09 2.30579e+09 2.30681e+09 2.30777e+09 0 1
267 2 1 2.31158e+09 2.31183e+09 2.31285e+09 2.31367e+09 0 1
268 1 0 2.32258e+09 2.32283e+09 2.32385e+09 2.3242e+09 0 1
269 2 0 2.32744e+09 2.3277e+09 2.32872e+09 2.32874e+09 0 0
270 2 1 2.33602e+09 2.33627e+09 2.33729e+09 2.33857e+09 1 1
271 2 1 2.34939e+09 2.34964e+09 2.35066e+09 2.35142e+09 0 1
272 2 0 2.35695e+09 2.35721e+09 2.35822e+09 2.35961e+09 0 0
273 2 1 2.36684e+09 2.36708e+09 2.3681e+09 2.37092e+09 1 1
274 2 1 2.37532e+09 2.37556e+09 2.37658e+09 2.37887e+09 0 1
275 2 1 2.38418e+09 2.38444e+09 2.38546e+09 2.38557e+09 0 1
276 1 0 2.39121e+09 2.39147e+09 2.39249e+09 2.39262e+09 0 1
277 1 1 2.39568e+09 2.39592e+09 2.39694e+09 2.39779e+09 0 0
278 1 0 2.40527e+09 2.40552e+09 2.40654e+09 2.40693e+09 1 1
279 1 0 2.41044e+09 2.4107e+09 2.41172e+09 2.41193e+09 0 1
280 2 1 2.41537e+09 2.41563e+09 2.41665e+09 2.42037e+09 0 1
281 2 1 2.43496e+09 2.43522e+09 2.43624e+09 2.43765e+09 0 1
282 2 1 2.44194e+09 2.4422e+09 2.44321e+09 2.44612e+09 0 1
283 1 0 2.44869e+09 2.44895e+09 2.44997e+09 2.45032e+09 0 1
284 2 1 2.45521e+09 2.45546e+09 2.45648e+09 2.4572e+09 0 1
285 2 1 2.46167e+09 2.46192e+09 2.46294e+09 2.4645e+09 0 1
286 2 1 2.47225e+09 2.4725e+09 2.47352e+09 2.47458e+09 0 1
287 2 1 2.48127e+09 2.48153e+09 2.48255e+09 2.48343e+09 0 1
288 1 0 2.48728e+09 2.48753e+09 2.48855e+09 2.4888e+09 0 1
289 1 0 2.49545e+09 2.4957e+09 2.49672e+09 2.49696e+09 0 1
290 1 0 2.50015e+09 2.50041e+09 2.50143e+09 2.50177e+09 0 1
291 1 0 2.50883e+09 2.50909e+09 2.51011e+09 2.51023e+09 0 1
292 1 0 2.51354e+09 2.5138e+09 2.51482e+09 2.51502e+09 0 1
293 2 1 2.51831e+09 2.51857e+09 2.51959e+09 2.52054e+09 0 1
294 2 1 2.52939e+09 2.52964e+09 2.53066e+09 2.53082e+09 0 1
295 2 0 2.53776e+09 2.53802e+09 2.53904e+09 2.53912e+09 0 0
296 2 1 2.54662e+09 2.54687e+09 2.54789e+09 2.55002e+09 1 1
297 2 0 2.55281e+09 2.55306e+09 2.55408e+09 2.55445e+09 0 0
298 2 1 2.56182e+09 2.56208e+09 2.5631e+09 2.5632e+09 1 1
299 1 1 2.57118e+09 2.57144e+09 2.57246e+09 2.57257e+09 0 0
300 1 1 2.58308e+09 2.58332e+09 2.58434e+09 2.58446e+09 1 0
301 1 0 2.59168e+09 2.59195e+09 2.59297e+09 2.59307e+09 1 1
302 1 1 2.59581e+09 2.59607e+09 2.59709e+09 2.59765e+09 0 0
303 1 0 2.60587e+09 2.60611e+09 2.60713e+09 2.60727e+09 1 1
304 2 1 2.61264e+09 2.6129e+09 2.61392e+09 2.62771e+09 0 1
305 2 1 2.63445e+09 2.63471e+09 2.63573e+09 2.64052e+09 0 1
306 2 0 2.64558e+09 2.64585e+09 2.64687e+09 2.647e+09 0 0
307 2 1 2.65614e+09 2.6564e+09 2.65742e+09 2.66672e+09 1 1
308 2 1 2.67191e+09 2.67217e+09 2.67319e+09 2.67609e+09 0 1
309 2 1 2.68038e+09 2.68064e+09 2.68166e+09 2.68524e+09 0 1
310 1 0 2.69e+09 2.69026e+09 2.69127e+09 2.69141e+09 0 1
311 1 0 2.69906e+09 2.69932e+09 2.70034e+09 2.70605e+09 0 1
312 1 1 2.71052e+09 2.71077e+09 2.71179e+09 2.71213e+09 0 0
313 1 1 2.72028e+09 2.72053e+09 2.72155e+09 2.72157e+09 1 0
314 1 0 2.72868e+09 2.72893e+09 2.72995e+09 2.73001e+09 1 1
315 1 1 2.73425e+09 2.7345e+09 2.73552e+09 2.73594e+09 0 0
316 1 0 2.74331e+09 2.74356e+09 2.74458e+09 2.74468e+09 1 1
317 1 1 2.74879e+09 2.74905e+09 2.75007e+09 2.75049e+09 0 0
318 1 1 2.75813e+09 2.75838e+09 2.7594e+09 2.76116e+09 1 0
319 1 0 2.76923e+09 2.76949e+09 2.77051e+09 2.77077e+09 1 1
320 2 0 2.774e+09 2.77426e+09 2.77528e+09 2.78158e+09 0 0
321 2 1 2.78893e+09 2.78919e+09 2.7902e+09 2.80604e+09 1 1
322 1 1 2.80951e+09 2.80975e+09 2.81077e+09 2.81212e+09 0 0
323 1 1 2.81957e+09 2.81983e+09 2.82085e+09 2.82452e+09 1 0
324 1 0 2.83164e+09 2.83191e+09 2.83293e+09 2.83298e+09 1 1
325 2 0 2.83609e+09 2.83635e+09 2.83737e+09 2.83743e+09 0 0
326 2 0 2.84471e+09 2.84497e+09 2.84599e+09 2.84639e+09 1 0
327 2 1 2.85672e+09 2.85697e+09 2.85799e+09 2.8602e+09 1 1
328 2 1 2.86292e+09 2.86318e+09 2.8642e+09 2.86424e+09 0 1
329 1 0 2.8669e+09 2.86715e+09 2.86817e+09 2.86831e+09 0 1
330 2 1 2.87258e+09 2.87284e+09 2.87386e+09 2.8751e+09 0 1
331 2 1 2.88266e+09 2.88293e+09 2.88395e+09 2.89006e+09 0 1
332 2 1 2.89295e+09 2.89321e+09 2.89423e+09 2.91784e+09 0 1
333 1 0 2.92152e+09 2.92177e+09 2.92279e+09 2.92292e+09 0 1
334 2 1 2.92589e+09 2.92615e+09 2.92717e+09 2.92791e+09 0 1
335 1 0 2.93529e+09 2.93554e+09 2.93656e+09 2.93684e+09 0 1
336 2 1 2.93957e+09 2.93983e+09 2.94085e+09 2.94178e+09 0 1
337 1 0 2.94865e+09 2.94891e+09 2.94993e+09 2.95036e+09 0 1
338 1 0 2.95335e+09 2.95361e+09 2.95463e+09 2.9554e+09 0 1
339 2 0 2.95835e+09 2.95859e+09 2.95961e+09 2.95994e+09 0 0
340 2 0 2.96742e+09 2.96768e+09 2.9687e+09 2.97112e+09 1 0
341 2 0 2.97862e+09 2.97888e+09 2.9799e+09 2.98568e+09 1 0
342 2 0 2.99293e+09 2.9932e+09 2.99422e+09 2.99448e+09 1 0
343 1 0 3.00202e+09 3.00228e+09 3.0033e+09 3.00346e+09 0 1
344 2 1 3.00604e+09 3.00628e+09 3.0073e+09 3.00744e+09 0 1
345 1 0 3.01179e+09 3.01204e+09 3.01306e+09 3.01335e+09 0 1
346 1 0 3.01693e+09 3.01718e+09 3.0182e+09 3.01876e+09 0 1
347 2 1 3.02131e+09 3.02158e+09 3.0226e+09 3.02268e+09 0 1
348 1 0 3.02955e+09 3.02982e+09 3.03083e+09 3.03174e+09 0 1
349 1 1 3.03565e+09 3.0359e+09 3.03692e+09 3.03787e+09 0 0
350 1 1 3.04525e+09 3.04551e+09 3.04652e+09 3.0492e+09 1 0
351 1 1 3.05634e+09 3.0566e+09 3.05762e+09 3.05814e+09 1 0
352 1 1 3.06529e+09 3.06555e+09 3.06657e+09 3.06661e+09 1 0
353 2 1 3.07381e+09 3.07406e+09 3.07508e+09 3.07689e+09 0 1
354 1 0 3.07976e+09 3.08001e+09 3.08103e+09 3.08105e+09 0 1
355 1 1 3.08425e+09 3.08451e+09 3.08553e+09 3.08576e+09 0 0
356 1 1 3.09623e+09 3.09649e+09 3.09751e+09 3.09768e+09 1 0
357 1 1 3.10512e+09 3.10539e+09 3.10641e+09 3.11122e+09 1 0
358 1 0 3.11834e+09 3.1186e+09 3.11962e+09 3.12107e+09 1 1
359 2 1 3.12516e+09 3.12542e+09 3.12644e+09 3.12687e+09 0 1
360 2 1 3.13577e+09 3.13603e+09 3.13705e+09 3.13846e+09 0 1
361 2 1 3.14405e+09 3.14431e+09 3.14533e+09 3.15534e+09 0 1
362 1 0 3.15965e+09 3.15991e+09 3.16093e+09 3.16102e+09 0 1
363 1 0 3.16408e+09 3.16433e+09 3.16535e+09 3.16538e+09 0 1
364 1 0 3.16863e+09 3.16888e+09 3.1699e+09 3.17001e+09 0 1
365 1 1 3.17468e+09 3.17493e+09 3.17595e+09 3.17621e+09 0 0
366 1 1 3.18637e+09 3.18662e+09 3.18764e+09 3.18872e+09 1 0
367 1 0 3.19599e+09 3.19624e+09 3.19726e+09 3.20126e+09 1 1
368 1 0 3.20751e+09 3.20777e+09 3.20879e+09 3.20924e+09 0 1
369 1 1 3.21215e+09 3.21241e+09 3.21343e+09 3.21355e+09 0 0
370 1 0 3.22088e+09 3.22114e+09 3.22216e+09 3.2223e+09 1 1
371 1 0 3.2253e+09 3.22557e+09 3.22659e+09 3.22699e+09 0 1
372 1 0 3.22962e+09 3.22987e+09 3.23089e+09 3.23093e+09 0 1
373 2 1 3.23394e+09 3.2342e+09 3.23522e+09 3.2373e+09 0 1
374 1 0 3.24025e+09 3.24051e+09 3.24153e+09 3.24162e+09 0 1
375 1 0 3.24663e+09 3.24689e+09 3.24791e+09 3.24846e+09 0 1
376 2 0 3.25145e+09 3.25171e+09 3.25273e+09 3.25294e+09 0 0
377 2 1 3.26039e+09 3.26065e+09 3.26167e+09 3.26189e+09 1 1
378 2 1 3.26485e+09 3.26509e+09 3.26611e+09 3.26612e+09 0 1
379 1 1 3.26898e+09 3.26923e+09 3.27025e+09 3.27052e+09 0 0
380 1 0 3.2777e+09 3.27795e+09 3.27897e+09 3.27912e+09 1 1
381 2 1 3.29014e+09 3.29039e+09 3.29141e+09 3.29162e+09 0 1
382 1 0 3.29465e+09 3.2949e+09 3.29592e+09 3.29657e+09 0 1
383 2 0 3.2995e+09 3.29976e+09 3.30078e+09 3.30176e+09 0 0
384 2 0 3.31014e+09 3.3104e+09 3.31142e+09 3.3156e+09 1 0
385 2 0 3.32309e+09 3.32335e+09 3.32436e+09 3.33781e+09 1 0
386 2 0 3.34508e+09 3.34533e+09 3.34635e+09 3.35283e+09 1 0
387 2 1 3.36038e+09 3.36064e+09 3.36166e+09 3.37309e+09 0 1
388 1 0 3.37661e+09 3.37687e+09 3.37789e+09 3.37798e+09 0 1
389 1 1 3.38094e+09 3.38119e+09 3.38221e+09 3.38419e+09 0 0
390 1 0 3.39126e+09 3.39152e+09 3.39254e+09 3.39296e+09 1 1
391 1 1 3.39554e+09 3.39578e+09 3.3968e+09 3.4084e+09 0 0
392 1 0 3.4157e+09 3.41595e+09 3.41697e+09 3.41714e+09 1 1
393 1 0 3.41967e+09 3.41993e+09 3.42095e+09 3.42509e+09 0 1
394 1 0 3.42779e+09 3.42807e+09 3.42909e+09 3.43626e+09 0 1
395 2 0 3.43976e+09 3.44002e+09 3.44104e+09 3.44372e+09 0 0
396 2 0 3.45156e+09 3.45183e+09 3.45284e+09 3.45546e+09 1 0
397 2 0 3.46276e+09 3.46302e+09 3.46404e+09 3.46625e+09 1 0
398 2 0 3.47737e+09 3.47762e+09 3.47864e+09 3.48163e+09 1 0
399 2 0 3.48904e+09 3.4893e+09 3.49032e+09 3.50394e+09 0 0
400 1 0 3.51195e+09 3.5122e+09 3.51322e+09 3.51855e+09 0 1
401 1 0 3.52178e+09 3.52204e+09 3.52306e+09 3.53585e+09 0 1
402 2 1 3.53851e+09 3.53878e+09 3.5398e+09 3.55541e+09 0 1
403 2 0 3.55975e+09 3.56001e+09 3.56103e+09 3.58141e+09 0 0
404 2 0 3.58871e+09 3.58897e+09 3.58999e+09 3.61376e+09 1 0
405 2 1 3.62111e+09 3.62137e+09 3.62239e+09 3.63567e+09 1 1
406 2 1 3.63858e+09 3.63883e+09 3.63985e+09 3.64269e+09 0 1
407 2 0 3.64572e+09 3.64597e+09 3.64699e+09 3.64704e+09 0 0
408 2 0 3.65455e+09 3.6548e+09 3.65582e+09 3.65686e+09 1 0
409 2 0 3.66393e+09 3.66418e+09 3.6652e+09 3.69221e+09 1 0
410 2 1 3.70116e+09 3.70141e+09 3.70243e+09 3.70791e+09 1 1
411 1 1 3.71087e+09 3.71113e+09 3.71215e+09 3.71293e+09 0 0
412 1 1 3.72044e+09 3.72069e+09 3.72171e+09 3.73737e+09 1 0
413 1 0 3.74463e+09 3.74488e+09 3.7459e+09 3.76174e+09 1 1
414 2 0 3.76579e+09 3.76605e+09 3.76707e+09 3.78472e+09 0 0
415 2 0 3.79257e+09 3.79283e+09 3.79385e+09 3.80241e+09 1 0
416 2 0 3.80975e+09 3.81e+09 3.81102e+09 3.81325e+09 1 0
417 2 0 3.82052e+09 3.82078e+09 3.8218e+09 3.82874e+09 1 0
418 1 0 3.83595e+09 3.83621e+09 3.83723e+09 3.84075e+09 0 1
419 1 0 3.84415e+09 3.8444e+09 3.84542e+09 3.88199e+09 0 1
420 1 0 3.88466e+09 3.88491e+09 3.88593e+09 3.90677e+09 0 1
421 2 0 3.90956e+09 3.90982e+09 3.91084e+09 3.92884e+09 0 0
422 2 0 3.93634e+09 3.9366e+09 3.93762e+09 3.9537e+09 1 0
423 2 0 3.96289e+09 3.96314e+09 3.96416e+09 3.9716e+09 1 0
424 2 0 3.97951e+09 3.97977e+09 3.98079e+09 3.99206e+09 1 0
425 1 0 3.99921e+09 3.99946e+09 4.00048e+09 4.00561e+09 0 1
426 2 0 4.00827e+09 4.00853e+09 4.00955e+09 4.04287e+09 0 0
427 2 0 4.04999e+09 4.05025e+09 4.05127e+09 4.05694e+09 1 0
428 2 0 4.06423e+09 4.06449e+09 4.06551e+09 4.06666e+09 1 0
429 2 0 4.07413e+09 4.07439e+09 4.07541e+09 4.08269e+09 1 0
430 1 0 4.09076e+09 4.09103e+09 4.09204e+09 4.10297e+09 0 1
431 2 0 4.10649e+09 4.10674e+09 4.10775e+09 4.112e+09 0 0
432 2 1 4.11934e+09 4.1196e+09 4.12062e+09 4.12087e+09 1 1
433 1 0 4.12362e+09 4.12389e+09 4.12491e+09 4.12921e+09 0 1
434 2 0 4.13182e+09 4.13208e+09 4.1331e+09 4.13642e+09 0 0
435 2 0 4.14388e+09 4.14414e+09 4.14516e+09 4.14966e+09 1 0
436 2 0 4.15697e+09 4.15721e+09 4.15823e+09 4.16015e+09 1 0
437 2 0 4.16733e+09 4.16758e+09 4.1686e+09 4.17684e+09 1 0
438 1 0 4.18434e+09 4.18458e+09 4.1856e+09 4.19079e+09 0 1
439 2 0 4.19458e+09 4.19484e+09 4.19586e+09 4.20206e+09 0 0
440 2 0 4.20911e+09 4.20935e+09 4.21037e+09 4.21753e+09 1 0
441 2 0 4.22458e+09 4.22484e+09 4.22586e+09 4.23644e+09 1 0
442 2 0 4.24376e+09 4.24402e+09 4.24504e+09 4.25021e+09 1 0
443 1 1 4.2576e+09 4.25785e+09 4.25887e+09 4.26038e+09 0 0
444 2 0 4.2676e+09 4.26785e+09 4.26887e+09 4.27535e+09 0 0
445 1 0 4.28246e+09 4.2827e+09 4.28372e+09 4.28401e+09 0 1
446 1 0 4.28658e+09 4.28683e+09 4.28785e+09 4.29366e+09 0 1
447 1 0 1.55445e+06 1.80813e+06 2.82774e+06 1.19815e+07 0 1
448 2 1 1.47006e+07 1.49609e+07 1.59805e+07 2.33354e+07 0 1
449 1 0 2.61458e+07 2.63964e+07 2.7416e+07 3.19851e+07 0 1
450 1 0 3.47075e+07 3.49715e+07 3.59911e+07 4.91881e+07 0 1
451 2 1 5.23827e+07 5.26426e+07 5.36622e+07 6.87356e+07 0 1
452 2 0 7.14476e+07 7.16977e+07 7.27173e+07 7.77733e+07 0 0
453 2 0 8.52286e+07 8.54802e+07 8.64998e+07 9.29464e+07 1 0
454 2 0 1.00079e+08 1.00324e+08 1.01344e+08 1.07639e+08 1 0
455 2 1 1.14735e+08 1.14983e+08 1.16002e+08 1.20972e+08 1 1
456 1 0 1.23573e+08 1.23828e+08 1.24848e+08 1.25551e+08 0 1
457 1 1 1.28838e+08 1.2908e+08 1.301e+08 1.48281e+08 0 0
458 1 0 1.55556e+08 1.55803e+08 1.56822e+08 1.60997e+08 1 1
459 1 0 1.63954e+08 1.64205e+08 1.65225e+08 1.67964e+08 0 1
460 2 0 1.70842e+08 1.71108e+08 1.72127e+08 1.75688e+08 0 0
461 2 0 1.83036e+08 1.83287e+08 1.84306e+08 1.8765e+08 1 0
462 2 0 1.94816e+08 1.95065e+08 1.96084e+08 2.06972e+08 1 0
463 2 1 2.14422e+08 2.14669e+08 2.15689e+08 2.16657e+08 1 1
464 1 0 2.21492e+08 2.21738e+08 2.22758e+08 2.25388e+08 0 1
465 1 0 2.28252e+08 2.28509e+08 2.29529e+08 2.34209e+08 0 1
466 2 0 2.36876e+08 2.37128e+08 2.38148e+08 2.39488e+08 0 0
467 2 0 2.49807e+08 2.50052e+08 2.51072e+08 2.70108e+08 1 0
468 2 0 2.77433e+08 2.77686e+08 2.78706e+08 2.84645e+08 1 0
469 2 0 2.92094e+08 2.92338e+08 2.93357e+08 2.94986e+08 1 0
470 1 0 3.02196e+08 3.02458e+08 3.03478e+08 3.07056e+08 0 1
471 1 0 3.09747e+08 3.09999e+08 3.11019e+08 3.13461e+08 0 1
472 2 0 3.16018e+08 3.1628e+08 3.17299e+08 3.21697e+08 0 0
473 2 0 3.31324e+08 3.31581e+08 3.326e+08 3.35185e+08 1 0
474 2 1 3.42552e+08 3.42798e+08 3.43817e+08 3.66933e+08 1 1
475 2 0 3.69784e+08 3.70035e+08 3.71055e+08 3.83384e+08 0 0
476 2 0 3.90881e+08 3.9114e+08 3.92159e+08 4.11869e+08 1 0
477 2 0 4.19358e+08 4.19601e+08 4.20621e+08 4.29135e+08 1 0
478 2 0 4.36551e+08 4.36796e+08 4.37816e+08 4.41852e+08 1 0
479 1 0 4.49186e+08 4.4945e+08 4.5047e+08 4.55961e+08 0 1
480 1 0 4.58918e+08 4.59178e+08 4.60197e+08 4.66919e+08 0 1
481 1 0 4.697e+08 4.69966e+08 4.70986e+08 4.74731e+08 0 1
482 1 0 4.77331e+08 4.77589e+08 4.78609e+08 4.81339e+08 0 1
483 2 1 4.85125e+08 4.85377e+08 4.86396e+08 4.91578e+08 0 1
484 2 1 4.94559e+08 4.94815e+08 4.95835e+08 4.99399e+08 0 1
485 2 0 5.02501e+08 5.02747e+08 5.03767e+08 5.06776e+08 0 0
486 2 1 5.14656e+08 5.14914e+08 5.15934e+08 5.21204e+08 1 1
487 1 0 5.24373e+08 5.24622e+08 5.25641e+08 5.34368e+08 0 1
488 2 1 5.37285e+08 5.37543e+08 5.38562e+08 5.43021e+08 0 1
489 2 0 5.45856e+08 5.46105e+08 5.47125e+08 5.49562e+08 0 0
490 2 0 5.56954e+08 5.57203e+08 5.58222e+08 5.59484e+08 1 0
491 2 0 5.66906e+08 5.67159e+08 5.68179e+08 5.70889e+08 1 0
492 2 0 5.78874e+08 5.79131e+08 5.80151e+08 5.84089e+08 1 0
493 1 0 5.91406e+08 5.91651e+08 5.92671e+08 5.9685e+08 0 1
494 2 0 5.99501e+08 5.99746e+08 6.00766e+08 6.02712e+08 0 0
495 2 0 6.09833e+08 6.1009e+08 6.1111e+08 6.12666e+08 1 0
496 2 0 6.20061e+08 6.20312e+08 6.21332e+08 6.28447e+08 1 0
497 2 0 6.35832e+08 6.36091e+08 6.3711e+08 6.373e+08 1 0
498 1 0 6.44828e+08 6.45087e+08 6.46106e+08 6.56537e+08 0 1
499 1 0 6.59272e+08 6.5954e+08 6.6056e+08 6.64232e+08 0 1
500 2 0 6.67918e+08 6.68177e+08 6.69197e+08 6.83263e+08 0 0
501 2 0 6.90606e+08 6.90866e+08 6.91886e+08 6.9272e+08 1 0
502 2 0 7.00925e+08 7.01184e+08 7.02203e+08 7.11542e+08 1 0
503 2 0 7.18969e+08 7.19217e+08 7.20237e+08 7.24747e+08 1 0
504 2 0 7.32001e+08 7.32252e+08 7.33272e+08 7.4424e+08 0 0
505 2 0 7.51539e+08 7.51786e+08 7.52806e+08 7.60453e+08 0 0
506 2 0 7.68326e+08 7.68576e+08 7.69595e+08 7.7285e+08 0 0
507 2 0 7.8009e+08 7.8034e+08 7.81359e+08 7.89455e+08 0 0
508 2 0 7.96598e+08 7.96857e+08 7.97877e+08 8.02673e+08 0 0
509 2 0 8.09879e+08 8.10134e+08 8.11153e+08 8.2646e+08 0 0
510 1 0 8.33802e+08 8.3405e+08 8.3507e+08 8.50984e+08 0 1
511 1 1 8.53704e+08 8.53951e+08 8.5497e+08 8.65797e+08 0 0
512 1 1 8.73275e+08 8.73531e+08 8.7455e+08 8.74988e+08 1 0
513 1 0 8.82144e+08 8.82388e+08 8.83408e+08 8.87391e+08 1 1
514 2 0 8.9029e+08 8.90551e+08 8.91571e+08 8.95551e+08 0 0
515 2 0 9.04406e+08 9.04658e+08 9.05678e+08 9.24298e+08 1 0
516 2 0 9.33293e+08 9.33544e+08 9.34564e+08 9.43857e+08 1 0
517 2 0 9.50977e+08 9.51232e+08 9.52252e+08 9.79663e+08 1 0
518 2 0 9.86784e+08 9.87045e+08 9.88065e+08 9.90839e+08 0 0
519 2 0 9.98176e+08 9.98426e+08 9.99445e+08 1.0027e+09 0 0
520 2 1 1.01013e+09 1.01039e+09 1.01141e+09 1.01445e+09 0 1
521 1 1 1.01728e+09 1.01753e+09 1.01855e+09 1.05848e+09 0 0
522 1 0 1.06554e+09 1.06579e+09 1.06681e+09 1.07328e+09 1 1
523 1 0 1.07756e+09 1.0778e+09 1.07882e+09 1.09332e+09 0 1
524 2 1 1.09741e+09 1.09767e+09 1.09869e+09 1.14428e+09 0 1
525 1 0 1.14977e+09 1.15002e+09 1.15104e+09 1.1897e+09 0 1
526 2 0 1.19568e+09 1.19594e+09 1.19696e+09 1.22717e+09 0 0
527 2 0 1.23462e+09 1.23486e+09 1.23588e+09 1.24896e+09 1 0
528 2 0 1.2561e+09 1.25635e+09 1.25737e+09 1.26361e+09 1 0
529 2 0 1.27074e+09 1.271e+09 1.27202e+09 1.28546e+09 1 0
530 1 0 1.2927e+09 1.29295e+09 1.29397e+09 1.30403e+09 0 1
531 2 0 1.30669e+09 1.30695e+09 1.30797e+09 1.33289e+09 0 0
532 2 0 1.34024e+09 1.34049e+09 1.34151e+09 1.34305e+09 1 0
533 2 0 1.3502e+09 1.35045e+09 1.35147e+09 1.3641e+09 1 0
534 2 0 1.37157e+09 1.37182e+09 1.37284e+09 1.38164e+09 1 0
535 2 0 1.38901e+09 1.38926e+09 1.39028e+09 1.39759e+09 0 0
536 1 1 1.4047e+09 1.40495e+09 1.40597e+09 1.41591e+09 0 0
537 2 0 1.42323e+09 1.42348e+09 1.4245e+09 1.42702e+09 0 0
538 2 1 1.43434e+09 1.4346e+09 1.43562e+09 1.44034e+09 0 1
539 1 1 1.44328e+09 1.44354e+09 1.44456e+09 1.44796e+09 0 0
540 1 0 1.45546e+09 1.4557e+09 1.45672e+09 1.46605e+09 1 1
541 1 0 1.46887e+09 1.46912e+09 1.47014e+09 1.4731e+09 0 1
542 1 0 1.47719e+09 1.47745e+09 1.47847e+09 1.50757e+09 0 1
543 2 0 1.51042e+09 1.51068e+09 1.5117e+09 1.52171e+09 0 0
544 2 0 1.52891e+09 1.52917e+09 1.53019e+09 1.55546e+09 1 0
545 2 0 1.56286e+09 1.5631e+09 1.56412e+09 1.56552e+09 1 0
546 2 0 1.57289e+09 1.57314e+09 1.57416e+09 1.58177e+09 1 0
547 2 0 1.58889e+09 1.58914e+09 1.59016e+09 1.6067e+09 0 0
548 1 0 1.61401e+09 1.61427e+09 1.61529e+09 1.61785e+09 0 1
549 2 0 1.62182e+09 1.62207e+09 1.62309e+09 1.63884e+09 0 0
550 2 0 1.6465e+09 1.64676e+09 1.64778e+09 1.65692e+09 1 0
551 2 0 1.66411e+09 1.66436e+09 1.66538e+09 1.67487e+09 1 0
552 2 0 1.68569e+09 1.68594e+09 1.68696e+09 1.7119e+09 1 0
553 1 0 1.71946e+09 1.71972e+09 1.72074e+09 1.72564e+09 0 1
554 2 0 1.72826e+09 1.72851e+09 1.72953e+09 1.73467e+09 0 0
555 2 1 1.74179e+09 1.74203e+09 1.74305e+09 1.7486e+09 1 1
556 2 0 1.75133e+09 1.75158e+09 1.7526e+09 1.77005e+09 0 0
557 2 0 1.77756e+09 1.77781e+09 1.77883e+09 1.79766e+09 1 0
558 2 0 1.8047e+09 1.80495e+09 1.80597e+09 1.82604e+09 1 0
559 2 0 1.83346e+09 1.8337e+09 1.83472e+09 1.85672e+09 1 0
560 1 0 1.8643e+09 1.86455e+09 1.86557e+09 1.86975e+09 0 1
561 1 0 1.87251e+09 1.87276e+09 1.87378e+09 1.88281e+09 0 1
562 2 0 1.88563e+09 1.88588e+09 1.8869e+09 1.89288e+09 0 0
563 2 1 1.90022e+09 1.90047e+09 1.90149e+09 2.3002e+09 1 1
