trial trialType response stillTime stimOnset stimOffset respTime correctionTrial correct
001 1 1 6.79323e+06 7.11315e+06 8.13277e+06 2.82609e+08 0 0
002 1 1 2.95823e+08 2.96107e+08 2.97126e+08 2.9715e+08 1 0
003 1 1 3.07587e+08 3.0787e+08 3.0889e+08 3.09482e+08 1 0
004 1 0 3.1852e+08 3.18776e+08 3.19795e+08 3.20037e+08 1 1
005 2 0 3.33232e+08 3.33493e+08 3.34512e+08 3.35298e+08 0 0
006 2 0 3.43939e+08 3.44205e+08 3.45224e+08 3.46122e+08 1 0
007 2 1 3.54559e+08 3.5481e+08 3.55829e+08 3.56459e+08 1 1
008 2 0 3.77268e+08 3.77527e+08 3.78547e+08 3.78951e+08 0 0
009 2 0 3.88754e+08 3.89024e+08 3.90043e+08 3.90477e+08 1 0
010 2 0 4.03217e+08 4.03478e+08 4.04498e+08 4.04608e+08 1 0
011 2 1 4.14428e+08 4.14682e+08 4.15701e+08 4.18787e+08 1 1
012 2 0 4.26589e+08 4.26844e+08 4.27863e+08 4.2805e+08 0 0
013 2 1 4.39248e+08 4.39502e+08 4.40522e+08 4.40541e+08 1 1
014 2 1 4.44671e+08 4.44924e+08 4.45944e+08 4.47657e+08 0 1
015 1 0 4.51512e+08 4.51763e+08 4.52782e+08 4.52843e+08 0 1
016 2 0 4.5679e+08 4.57048e+08 4.58067e+08 4.59052e+08 0 0
017 2 0 4.67308e+08 4.67558e+08 4.68577e+08 4.69483e+08 1 0
018 2 0 4.84456e+08 4.84702e+08 4.85721e+08 4.87186e+08 1 0
019 2 1 4.96137e+08 4.96396e+08 4.97416e+08 4.97798e+08 1 1
020 1 0 5.03108e+08 5.03368e+08 5.04388e+08 5.0445e+08 0 1
021 2 0 5.13658e+08 5.13914e+08 5.14934e+08 5.15884e+08 0 0
022 2 1 5.32317e+08 5.3257e+08 5.3359e+08 5.34493e+08 1 1
023 1 0 5.44002e+08 5.44256e+08 5.45276e+08 5.46603e+08 0 1
024 1 1 5.54996e+08 5.55264e+08 5.56284e+08 5.56859e+08 0 0
025 1 1 5.73473e+08 5.73724e+08 5.74744e+08 5.74789e+08 1 0
026 1 0 5.90802e+08 5.91061e+08 5.92081e+08 5.93432e+08 1 1
027 2 0 5.98788e+08 5.99049e+08 6.00069e+08 6.00398e+08 0 0
028 2 0 6.15154e+08 6.15406e+08 6.16425e+08 6.1804e+08 1 0
029 2 0 6.28206e+08 6.28455e+08 6.29475e+08 6.29728e+08 1 0
030 2 1 6.54771e+08 6.55017e+08 6.56037e+08 6.56754e+08 1 1
031 2 0 6.5939e+08 6.59637e+08 6.60657e+08 6.61047e+08 0 0
032 2 0 6.69282e+08 6.69539e+08 6.70559e+08 6.71292e+08 1 0
033 2 1 6.78643e+08 6.7891e+08 6.7993e+08 6.81106e+08 1 1
034 1 1 6.85826e+08 6.8608e+08 6.87099e+08 6.88083e+08 0 0
035 1 1 7.01789e+08 7.02045e+08 7.03064e+08 7.03361e+08 1 0
036 1 1 7.22406e+08 7.22659e+08 7.23679e+08 7.25888e+08 1 0
037 1 0 7.40228e+08 7.40479e+08 7.41499e+08 7.42325e+08 1 1
038 1 0 7.48768e+08 7.49021e+08 7.50041e+08 7.50212e+08 0 1
039 2 0 7.55205e+08 7.55463e+08 7.56482e+08 7.56888e+08 0 0
040 2 0 7.66089e+08 7.66344e+08 7.67364e+08 7.67572e+08 1 0
041 2 1 7.75073e+08 7.75323e+08 7.76342e+08 7.76357e+08 1 1
042 2 0 7.82727e+08 7.82975e+08 7.83994e+08 7.8404e+08 0 0
043 2 0 7.95016e+08 7.95267e+08 7.96287e+08 7.97142e+08 1 0
044 2 1 8.0656e+08 8.06813e+08 8.07833e+08 8.0856e+08 1 1
045 2 1 8.16082e+08 8.16339e+08 8.17358e+08 8.17901e+08 0 1
046 1 1 8.29093e+08 8.29344e+08 8.30364e+08 8.30884e+08 0 0
047 1 0 8.38452e+08 8.38706e+08 8.39726e+08 8.40802e+08 1 1
048 2 0 8.45415e+08 8.45671e+08 8.46691e+08 8.48358e+08 0 0
049 2 0 8.58721e+08 8.58976e+08 8.59995e+08 8.60751e+08 1 0
050 2 0 8.69608e+08 8.69856e+08 8.70876e+08 8.7272e+08 1 0
051 2 0 8.80866e+08 8.81126e+08 8.82146e+08 8.85513e+08 1 0
052 1 0 8.9833e+08 8.98586e+08 8.99606e+08 9.00284e+08 0 1
053 2 0 9.04324e+08 9.04574e+08 9.05593e+08 9.05641e+08 0 0
054 2 0 9.18169e+08 9.18425e+08 9.19444e+08 9.19612e+08 1 0
055 2 1 9.27605e+08 9.27861e+08 9.2888e+08 9.28988e+08 1 1
056 2 0 9.40049e+08 9.40296e+08 9.41316e+08 9.42064e+08 0 0
057 2 0 9.50393e+08 9.5065e+08 9.51669e+08 9.52112e+08 1 0
058 2 1 9.61134e+08 9.61383e+08 9.62403e+08 9.62791e+08 1 1
059 2 0 9.65407e+08 9.65657e+08 9.66677e+08 9.68156e+08 0 0
060 2 0 9.762e+08 9.76453e+08 9.77473e+08 9.78691e+08 1 0
061 2 1 9.90962e+08 9.91211e+08 9.92231e+08 9.92539e+08 1 1
062 2 1 9.98023e+08 9.9829e+08 9.9931e+08 9.99467e+08 0 1
063 1 0 1.0078e+09 1.00806e+09 1.00908e+09 1.00959e+09 0 1
064 1 0 1.01832e+09 1.01856e+09 1.01958e+09 1.01972e+09 0 1
065 2 0 1.03059e+09 1.03085e+09 1.03187e+09 1.03245e+09 0 0
066 2 1 1.04351e+09 1.04376e+09 1.04478e+09 1.04546e+09 1 1
067 2 1 1.05008e+09 1.05034e+09 1.05136e+09 1.05137e+09 0 1
068 2 0 1.06376e+09 1.064e+09 1.06502e+09 1.06678e+09 0 0
069 2 0 1.07423e+09 1.07448e+09 1.0755e+09 1.07579e+09 1 0
070 2 0 1.08421e+09 1.08445e+09 1.08547e+09 1.08554e+09 1 0
071 2 1 1.09497e+09 1.09522e+09 1.09624e+09 1.09683e+09 1 1
072 1 0 1.12156e+09 1.12181e+09 1.12283e+09 1.12301e+09 0 1
073 1 1 1.13907e+09 1.13933e+09 1.14035e+09 1.14069e+09 0 0
074 1 0 1.15028e+09 1.15053e+09 1.15155e+09 1.15203e+09 1 1
075 1 0 1.16308e+09 1.16335e+09 1.16436e+09 1.16467e+09 0 1
076 2 1 1.16774e+09 1.168e+09 1.16902e+09 1.16906e+09 0 1
077 2 0 1.17848e+09 1.17873e+09 1.17975e+09 1.17984e+09 0 0
078 2 0 1.1884e+09 1.18865e+09 1.18967e+09 1.19112e+09 1 0
079 2 1 1.19858e+09 1.19884e+09 1.19986e+09 1.20041e+09 1 1
080 2 1 1.2032e+09 1.20346e+09 1.20448e+09 1.20581e+09 0 1
081 2 1 1.20852e+09 1.20878e+09 1.2098e+09 1.2104e+09 0 1
082 1 1 1.21698e+09 1.21723e+09 1.21825e+09 1.21869e+09 0 0
083 1 0 1.2306e+09 1.23088e+09 1.2319e+09 1.23207e+09 1 1
084 1 1 1.24294e+09 1.24318e+09 1.2442e+09 1.24422e+09 0 0
085 1 0 1.25258e+09 1.25283e+09 1.25385e+09 1.25426e+09 1 1
086 1 0 1.26497e+09 1.26523e+09 1.26625e+09 1.26668e+09 0 1
087 2 1 1.28427e+09 1.28452e+09 1.28554e+09 1.28578e+09 0 1
088 2 1 1.2952e+09 1.29545e+09 1.29647e+09 1.29755e+09 0 1
089 2 1 1.313e+09 1.31325e+09 1.31427e+09 1.3143e+09 0 1
090 1 0 1.32891e+09 1.32916e+09 1.33018e+09 1.33021e+09 0 1
091 1 1 1.34607e+09 1.34633e+09 1.34735e+09 1.34791e+09 0 0
092 1 1 1.35927e+09 1.35952e+09 1.36054e+09 1.36061e+09 1 0
093 1 0 1.36972e+09 1.36998e+09 1.371e+09 1.37131e+09 1 1
094 1 1 1.38266e+09 1.38292e+09 1.38394e+09 1.38395e+09 0 0
095 1 1 1.39342e+09 1.39368e+09 1.3947e+09 1.39488e+09 1 0
096 1 1 1.40209e+09 1.40235e+09 1.40337e+09 1.40355e+09 1 0
097 1 0 1.41225e+09 1.41251e+09 1.41353e+09 1.41426e+09 1 1
098 1 0 1.43142e+09 1.43168e+09 1.4327e+09 1.433e+09 0 1
099 1 0 1.44857e+09 1.44883e+09 1.44985e+09 1.44993e+09 0 1
100 2 1 1.45256e+09 1.45281e+09 1.45383e+09 1.45395e+09 0 1
101 2 0 1.4596e+09 1.45986e+09 1.46088e+09 1.46182e+09 0 0
102 2 0 1.47133e+09 1.47159e+09 1.47261e+09 1.47274e+09 1 0
103 2 0 1.48014e+09 1.48041e+09 1.48143e+09 1.48264e+09 1 0
104 2 1 1.49167e+09 1.49191e+09 1.49293e+09 1.49309e+09 1 1
105 2 1 1.49819e+09 1.49845e+09 1.49947e+09 1.50006e+09 0 1
106 1 0 1.51166e+09 1.51191e+09 1.51292e+09 1.51297e+09 0 1
107 2 0 1.51857e+09 1.51882e+09 1.51984e+09 1.52052e+09 0 0
108 2 0 1.53185e+09 1.53209e+09 1.53311e+09 1.53356e+09 1 0
109 2 0 1.54381e+09 1.54407e+09 1.54509e+09 1.54703e+09 1 0
110 2 1 1.55447e+09 1.55473e+09 1.55575e+09 1.55652e+09 1 1
111 1 1 1.57043e+09 1.57068e+09 1.5717e+09 1.57292e+09 0 0
112 1 0 1.58165e+09 1.5819e+09 1.58292e+09 1.58295e+09 1 1
113 2 0 1.59127e+09 1.59153e+09 1.59255e+09 1.5928e+09 0 0
114 2 0 1.60004e+09 1.6003e+09 1.60132e+09 1.60139e+09 1 0
115 2 1 1.61115e+09 1.6114e+09 1.61242e+09 1.61277e+09 1 1
116 2 1 1.62727e+09 1.62753e+09 1.62855e+09 1.62903e+09 0 1
117 1 0 1.64242e+09 1.64268e+09 1.6437e+09 1.64416e+09 0 1
118 1 0 1.64891e+09 1.64916e+09 1.65018e+09 1.65069e+09 0 1
119 1 0 1.65859e+09 1.65885e+09 1.65987e+09 1.66039e+09 0 1
120 2 0 1.67546e+09 1.67571e+09 1.67673e+09 1.67746e+09 0 0
121 2 0 1.68781e+09 1.68806e+09 1.68908e+09 1.69178e+09 1 0
122 2 0 1.70072e+09 1.70098e+09 1.702e+09 1.70395e+09 1 0
123 2 1 1.7113e+09 1.71155e+09 1.71257e+09 1.71274e+09 1 1
124 2 1 1.71524e+09 1.7155e+09 1.71652e+09 1.71655e+09 0 1
125 1 1 1.72691e+09 1.72716e+09 1.72818e+09 1.72964e+09 0 0
126 1 0 1.74207e+09 1.74232e+09 1.74334e+09 1.74358e+09 1 1
127 2 1 1.75441e+09 1.75467e+09 1.75569e+09 1.7568e+09 0 1
128 1 0 1.76162e+09 1.76189e+09 1.76291e+09 1.76328e+09 0 1
129 2 1 1.76935e+09 1.76962e+09 1.77064e+09 1.77083e+09 0 1
130 1 1 1.79314e+09 1.79338e+09 1.7944e+09 1.79451e+09 0 0
131 1 1 1.80909e+09 1.80935e+09 1.81037e+09 1.81068e+09 1 0
132 1 1 1.81808e+09 1.81834e+09 1.81936e+09 1.81978e+09 1 0
133 1 0 1.83035e+09 1.8306e+09 1.83162e+09 1.83178e+09 1 1
134 1 0 1.83942e+09 1.83968e+09 1.8407e+09 1.84077e+09 0 1
135 1 1 1.84351e+09 1.84377e+09 1.84479e+09 1.84515e+09 0 0
136 1 0 1.8662e+09 1.86645e+09 1.86747e+09 1.86768e+09 1 1
137 2 0 1.87755e+09 1.8778e+09 1.87882e+09 1.87889e+09 0 0
138 2 0 1.89144e+09 1.8917e+09 1.89272e+09 1.89275e+09 1 0
139 2 1 1.90098e+09 1.90123e+09 1.90225e+09 1.90459e+09 1 1
140 2 1 1.90747e+09 1.90773e+09 1.90875e+09 1.90882e+09 0 1
141 1 1 1.91575e+09 1.91601e+09 1.91703e+09 1.91749e+09 0 0
142 1 1 1.92938e+09 1.92965e+09 1.93067e+09 1.93099e+09 1 0
143 1 0 1.93826e+09 1.93852e+09 1.93954e+09 1.93969e+09 1 1
144 2 0 1.94503e+09 1.94528e+09 1.9463e+09 1.94717e+09 0 0
145 2 0 1.95598e+09 1.95624e+09 1.95726e+09 1.95735e+09 1 0
146 2 0 1.967e+09 1.96725e+09 1.96826e+09 1.9683e+09 1 0
147 2 0 1.97551e+09 1.97575e+09 1.97677e+09 1.97718e+09 1 0
148 2 1 1.98477e+09 1.98502e+09 1.98604e+09 1.98605e+09 0 1
149 1 1 1.99062e+09 1.99088e+09 1.9919e+09 1.99265e+09 0 0
150 1 0 2.00008e+09 2.00034e+09 2.00136e+09 2.00151e+09 1 1
151 2 1 2.00721e+09 2.00746e+09 2.00848e+09 2.00893e+09 0 1
152 1 1 2.01473e+09 2.01498e+09 2.016e+09 2.01731e+09 0 0
153 1 0 2.02713e+09 2.02739e+09 2.02841e+09 2.02851e+09 1 1
154 1 1 2.03177e+09 2.03204e+09 2.03306e+09 2.03333e+09 0 0
155 1 0 2.0421e+09 2.04236e+09 2.04338e+09 2.04381e+09 1 1
156 1 0 2.05044e+09 2.0507e+09 2.05172e+09 2.05264e+09 0 1
157 1 0 2.06002e+09 2.06028e+09 2.0613e+09 2.06131e+09 0 1
158 2 0 2.06944e+09 2.06969e+09 2.07071e+09 2.07082e+09 0 0
159 2 1 2.08212e+09 2.08238e+09 2.08339e+09 2.08734e+09 1 1
160 2 1 2.09797e+09 2.09822e+09 2.09924e+09 2.10042e+09 0 1
161 2 0 2.11128e+09 2.11154e+09 2.11256e+09 2.11273e+09 0 0
162 2 1 2.12181e+09 2.12207e+09 2.12309e+09 2.12342e+09 1 1
163 1 0 2.13818e+09 2.13844e+09 2.13946e+09 2.14102e+09 0 1
164 2 0 2.14866e+09 2.14891e+09 2.14993e+09 2.15046e+09 0 0
165 2 0 2.15773e+09 2.15799e+09 2.15901e+09 2.15911e+09 1 0
166 2 0 2.16971e+09 2.16997e+09 2.17099e+09 2.17144e+09 1 0
167 2 1 2.18061e+09 2.18086e+09 2.18188e+09 2.18189e+09 1 1
168 1 1 2.19019e+09 2.19046e+09 2.19148e+09 2.19273e+09 0 0
169 1 1 2.20208e+09 2.20234e+09 2.20336e+09 2.20497e+09 1 0
170 1 1 2.21343e+09 2.21368e+09 2.2147e+09 2.21898e+09 1 0
171 1 0 2.22625e+09 2.22651e+09 2.22753e+09 2.2276e+09 1 1
172 1 1 2.24407e+09 2.24433e+09 2.24535e+09 2.24715e+09 0 0
173 1 0 2.25454e+09 2.25479e+09 2.25581e+09 2.25607e+09 1 1
174 2 0 2.26898e+09 2.26924e+09 2.27026e+09 2.27032e+09 0 0
175 2 0 2.27807e+09 2.27832e+09 2.27934e+09 2.27947e+09 1 0
176 2 1 2.28903e+09 2.28928e+09 2.2903e+09 2.2904e+09 1 1
177 2 0 2.29578e+09 2.29603e+09 2.29705e+09 2.2972e+09 0 0
178 2 1 2.30699e+09 2.30724e+09 2.30826e+09 2.30881e+09 1 1
179 1 0 2.31569e+09 2.31594e+09 2.31696e+09 2.3172e+09 0 1
180 2 0 2.32541e+09 2.32567e+09 2.32669e+09 2.32671e+09 0 0
181 2 0 2.33809e+09 2.33834e+09 2.33936e+09 2.33953e+09 1 0
182 2 0 2.34679e+09 2.34704e+09 2.34806e+09 2.34807e+09 1 0
183 2 0 2.35538e+09 2.35563e+09 2.35665e+09 2.3568e+09 1 0
184 1 1 2.36391e+09 2.36418e+09 2.3652e+09 2.36591e+09 0 0
185 2 0 2.37428e+09 2.37454e+09 2.37556e+09 2.37675e+09 0 0
186 1 0 2.38513e+09 2.38539e+09 2.38641e+09 2.38647e+09 0 1
187 2 1 2.39697e+09 2.39724e+09 2.39825e+09 2.39854e+09 0 1
188 1 0 2.40683e+09 2.40708e+09 2.4081e+09 2.40898e+09 0 1
189 1 0 2.42182e+09 2.42208e+09 2.42309e+09 2.42317e+09 0 1
190 1 0 2.43462e+09 2.43488e+09 2.4359e+09 2.43629e+09 0 1
191 1 1 2.4395e+09 2.43975e+09 2.44077e+09 2.44262e+09 0 0
192 1 0 2.45402e+09 2.45427e+09 2.45529e+09 2.4558e+09 1 1
193 1 0 2.45942e+09 2.45968e+09 2.4607e+09 2.46076e+09 0 1
194 1 0 2.47734e+09 2.4776e+09 2.47862e+09 2.4791e+09 0 1
195 1 0 2.49304e+09 2.49329e+09 2.49431e+09 2.4945e+09 0 1
196 2 0 2.50688e+09 2.50714e+09 2.50816e+09 2.50817e+09 0 0
197 2 1 2.51923e+09 2.51948e+09 2.5205e+09 2.52101e+09 1 1
198 2 1 2.52979e+09 2.53005e+09 2.53107e+09 2.53129e+09 0 1
199 1 1 2.54404e+09 2.54429e+09 2.54531e+09 2.54562e+09 0 0
200 1 0 2.5544e+09 2.55464e+09 2.55566e+09 2.55744e+09 1 1
201 2 0 2.56643e+09 2.56668e+09 2.5677e+09 2.56847e+09 0 0
202 2 0 2.5758e+09 2.57606e+09 2.57708e+09 2.57747e+09 1 0
203 2 0 2.58789e+09 2.58814e+09 2.58916e+09 2.58949e+09 1 0
204 2 0 2.59813e+09 2.59839e+09 2.59941e+09 2.60058e+09 1 0
205 1 1 2.60824e+09 2.60849e+09 2.60951e+09 2.60961e+09 0 0
206 2 1 2.61749e+09 2.61774e+09 2.61876e+09 2.61899e+09 0 1
207 2 1 2.63053e+09 2.63078e+09 2.6318e+09 2.63219e+09 0 1
208 1 0 2.64682e+09 2.64709e+09 2.64811e+09 2.64833e+09 0 1
209 1 0 2.65307e+09 2.65333e+09 2.65435e+09 2.65512e+09 0 1
210 1 1 2.66749e+09 2.66775e+09 2.66877e+09 2.66956e+09 0 0
211 1 0 2.67786e+09 2.6781e+09 2.67912e+09 2.67919e+09 1 1
212 2 0 2.68749e+09 2.68774e+09 2.68876e+09 2.68909e+09 0 0
213 2 0 2.69754e+09 2.69779e+09 2.69881e+09 2.69883e+09 1 0
214 2 1 2.70828e+09 2.70853e+09 2.70955e+09 2.70965e+09 1 1
215 2 0 2.71483e+09 2.71508e+09 2.7161e+09 2.7162e+09 0 0
216 2 0 2.72541e+09 2.72567e+09 2.72669e+09 2.72671e+09 1 0
217 2 0 2.73405e+09 2.7343e+09 2.73532e+09 2.7384e+09 1 0
218 2 1 2.74766e+09 2.74791e+09 2.74892e+09 2.74934e+09 1 1
219 2 0 2.75633e+09 2.75658e+09 2.7576e+09 2.75767e+09 0 0
220 2 1 2.76586e+09 2.76612e+09 2.76714e+09 2.76755e+09 1 1
221 2 1 2.77502e+09 2.77528e+09 2.7763e+09 2.77662e+09 0 1
222 2 0 2.78551e+09 2.78577e+09 2.78679e+09 2.78865e+09 0 0
223 2 1 2.79621e+09 2.79646e+09 2.79748e+09 2.79796e+09 1 1
224 2 0 2.80272e+09 2.80298e+09 2.804e+09 2.80439e+09 0 0
225 2 1 2.81367e+09 2.81393e+09 2.81495e+09 2.81572e+09 1 1
226 2 1 2.82272e+09 2.82297e+09 2.82399e+09 2.82403e+09 0 1
227 2 1 2.8293e+09 2.82955e+09 2.83057e+09 2.83067e+09 0 1
228 1 1 2.83801e+09 2.83826e+09 2.83928e+09 2.84106e+09 0 0
229 1 0 2.84816e+09 2.84844e+09 2.84946e+09 2.85046e+09 1 1
230 1 0 2.85593e+09 2.85619e+09 2.85721e+09 2.85734e+09 0 1
231 1 1 2.86022e+09 2.86047e+09 2.86149e+09 2.86493e+09 0 0
232 1 1 2.87368e+09 2.87394e+09 2.87495e+09 2.87571e+09 1 0
233 1 0 2.88284e+09 2.88309e+09 2.88411e+09 2.88848e+09 1 1
234 2 1 2.8915e+09 2.89175e+09 2.89277e+09 2.89459e+09 0 1
235 2 0 2.89735e+09 2.8976e+09 2.89862e+09 2.8999e+09 0 0
236 2 0 2.91902e+09 2.91928e+09 2.9203e+09 2.92059e+09 1 0
237 2 0 2.92814e+09 2.9284e+09 2.92942e+09 2.93028e+09 1 0
238 2 0 2.93733e+09 2.93759e+09 2.93861e+09 2.93929e+09 1 0
239 2 1 2.9476e+09 2.94785e+09 2.94887e+09 2.95246e+09 0 1
240 1 0 2.95525e+09 2.9555e+09 2.95652e+09 2.95654e+09 0 1
241 1 0 2.97471e+09 2.97496e+09 2.97598e+09 2.97629e+09 0 1
242 1 0 2.99908e+09 2.99933e+09 3.00035e+09 3.00054e+09 0 1
243 2 1 3.01204e+09 3.0123e+09 3.01332e+09 3.01353e+09 0 1
244 2 1 3.01833e+09 3.01857e+09 3.01959e+09 3.01972e+09 0 1
245 2 1 3.02775e+09 3.028e+09 3.02902e+09 3.02914e+09 0 1
246 2 0 3.03414e+09 3.03439e+09 3.03541e+09 3.03564e+09 0 0
247 2 0 3.04644e+09 3.0467e+09 3.04772e+09 3.04831e+09 1 0
248 2 0 3.05554e+09 3.05579e+09 3.05681e+09 3.05725e+09 1 0
249 2 0 3.06556e+09 3.06581e+09 3.06683e+09 3.06688e+09 1 0
250 1 1 3.07461e+09 3.07488e+09 3.0759e+09 3.0803e+09 0 0
251 1 1 3.0878e+09 3.08806e+09 3.08908e+09 3.08937e+09 0 0
252 1 0 3.09856e+09 3.09883e+09 3.09985e+09 3.09995e+09 0 1
253 1 0 3.10472e+09 3.10497e+09 3.10599e+09 3.10675e+09 0 1
254 2 1 3.12824e+09 3.12849e+09 3.12951e+09 3.12989e+09 0 1
255 1 0 3.14321e+09 3.14347e+09 3.14449e+09 3.14535e+09 0 1
256 2 1 3.15159e+09 3.15185e+09 3.15287e+09 3.1531e+09 0 1
257 1 0 3.16801e+09 3.16827e+09 3.16929e+09 3.1694e+09 0 1
258 2 0 3.18178e+09 3.18204e+09 3.18306e+09 3.18354e+09 0 0
259 2 0 3.19098e+09 3.19123e+09 3.19225e+09 3.19243e+09 1 0
260 2 1 3.20228e+09 3.20254e+09 3.20356e+09 3.20633e+09 1 1
261 2 1 3.21003e+09 3.21029e+09 3.21131e+09 3.21167e+09 0 1
262 2 1 3.22453e+09 3.22478e+09 3.22579e+09 3.22587e+09 0 1
263 2 0 3.24197e+09 3.24222e+09 3.24324e+09 3.2433e+09 0 0
264 2 1 3.25116e+09 3.2514e+09 3.25242e+09 3.25244e+09 1 1
265 1 1 3.25789e+09 3.25813e+09 3.25915e+09 3.25993e+09 0 0
266 1 1 3.26793e+09 3.26818e+09 3.2692e+09 3.26923e+09 1 0
267 1 0 3.27631e+09 3.27657e+09 3.27759e+09 3.27767e+09 1 1
268 1 0 3.29284e+09 3.29308e+09 3.2941e+09 3.29507e+09 0 1
269 1 0 3.30089e+09 3.30113e+09 3.30215e+09 3.30274e+09 0 1
270 1 0 3.31797e+09 3.31822e+09 3.31924e+09 3.31944e+09 0 1
271 1 0 3.32938e+09 3.32963e+09 3.33065e+09 3.33076e+09 0 1
272 1 0 3.33559e+09 3.33584e+09 3.33686e+09 3.33689e+09 0 1
273 2 0 3.34433e+09 3.34458e+09 3.3456e+09 3.34629e+09 0 0
274 2 0 3.35915e+09 3.35939e+09 3.36041e+09 3.36089e+09 1 0
275 2 0 3.37184e+09 3.3721e+09 3.37312e+09 3.37638e+09 1 0
276 2 0 3.38474e+09 3.385e+09 3.38602e+09 3.40026e+09 1 0
277 1 0 3.4086e+09 3.40885e+09 3.40987e+09 3.41034e+09 0 1
278 1 0 3.41503e+09 3.41529e+09 3.41631e+09 3.41637e+09 0 1
279 1 0 3.43081e+09 3.43106e+09 3.43207e+09 3.43256e+09 0 1
280 1 0 3.44304e+09 3.44329e+09 3.44431e+09 3.44479e+09 0 1
281 1 0 3.45871e+09 3.45896e+09 3.45998e+09 3.46051e+09 0 1
282 2 0 3.46928e+09 3.46954e+09 3.47056e+09 3.47259e+09 0 0
283 2 1 3.4827e+09 3.48294e+09 3.48396e+09 3.48537e+09 1 1
284 2 1 3.5018e+09 3.50206e+09 3.50308e+09 3.50436e+09 0 1
285 2 1 3.51e+09 3.51025e+09 3.51127e+09 3.51201e+09 0 1
286 1 0 3.52528e+09 3.52553e+09 3.52655e+09 3.5267e+09 0 1
287 1 0 3.5336e+09 3.53385e+09 3.53487e+09 3.53982e+09 0 1
288 1 0 3.55037e+09 3.55063e+09 3.55165e+09 3.55254e+09 0 1
289 2 0 3.56604e+09 3.56629e+09 3.56731e+09 3.56743e+09 0 0
290 2 1 3.57676e+09 3.57702e+09 3.57804e+09 3.57816e+09 1 1
291 2 0 3.58236e+09 3.58262e+09 3.58364e+09 3.58382e+09 0 0
292 2 0 3.59583e+09 3.59607e+09 3.59709e+09 3.59783e+09 1 0
293 2 0 3.60626e+09 3.60651e+09 3.60753e+09 3.60762e+09 1 0
294 2 0 3.61515e+09 3.6154e+09 3.61642e+09 3.6226e+09 1 0
295 2 1 3.63014e+09 3.63039e+09 3.63141e+09 3.63142e+09 0 1
296 2 0 3.64262e+09 3.64286e+09 3.64388e+09 3.64397e+09 0 0
297 2 1 3.65411e+09 3.65438e+09 3.6554e+09 3.65826e+09 1 1
298 2 1 3.66421e+09 3.66448e+09 3.6655e+09 3.66551e+09 0 1
299 2 0 3.68026e+09 3.68052e+09 3.68154e+09 3.68189e+09 0 0
300 2 1 3.69148e+09 3.69172e+09 3.69274e+09 3.69431e+09 1 1
301 1 0 3.70317e+09 3.70342e+09 3.70444e+09 3.70455e+09 0 1
302 1 1 3.71789e+09 3.71815e+09 3.71917e+09 3.7196e+09 0 0
303 1 0 3.72736e+09 3.72761e+09 3.72863e+09 3.72871e+09 1 1
304 1 1 3.73869e+09 3.73895e+09 3.73997e+09 3.74005e+09 0 0
305 1 0 3.74822e+09 3.74847e+09 3.74949e+09 3.74957e+09 1 1
306 2 1 3.77235e+09 3.77261e+09 3.77363e+09 3.77511e+09 0 1
307 1 0 3.77951e+09 3.77976e+09 3.78078e+09 3.78116e+09 0 1
308 2 0 3.78558e+09 3.78583e+09 3.78685e+09 3.78864e+09 0 0
309 2 0 3.79603e+09 3.79627e+09 3.79729e+09 3.7975e+09 1 0
310 2 1 3.80493e+09 3.80518e+09 3.8062e+09 3.80697e+09 1 1
311 1 0 3.81517e+09 3.81543e+09 3.81645e+09 3.81724e+09 0 1
312 2 1 3.82434e+09 3.8246e+09 3.82562e+09 3.82682e+09 0 1
313 2 0 3.83427e+09 3.83453e+09 3.83555e+09 3.83581e+09 0 0
314 2 1 3.84293e+09 3.84317e+09 3.84419e+09 3.84647e+09 1 1
315 2 1 3.84925e+09 3.84951e+09 3.85053e+09 3.85247e+09 0 1
316 1 0 3.85886e+09 3.85912e+09 3.86014e+09 3.86068e+09 0 1
317 1 0 3.86545e+09 3.86571e+09 3.86673e+09 3.86702e+09 0 1
318 1 0 3.87646e+09 3.87672e+09 3.87774e+09 3.87789e+09 0 1
319 1 0 3.88194e+09 3.88219e+09 3.88321e+09 3.88348e+09 0 1
320 1 0 3.88653e+09 3.88679e+09 3.88781e+09 3.88805e+09 0 1
321 2 1 3.89426e+09 3.89451e+09 3.89553e+09 3.89578e+09 0 1
322 1 0 3.90353e+09 3.90378e+09 3.9048e+09 3.905e+09 0 1
323 1 0 3.91417e+09 3.91441e+09 3.91543e+09 3.91616e+09 0 1
324 2 0 3.92001e+09 3.92026e+09 3.92128e+09 3.92143e+09 0 0
325 2 1 3.92888e+09 3.92913e+09 3.93015e+09 3.9302e+09 1 1
326 1 0 3.93485e+09 3.93511e+09 3.93613e+09 3.93633e+09 0 1
327 2 1 3.95092e+09 3.95117e+09 3.95219e+09 3.95351e+09 0 1
328 1 1 3.96321e+09 3.96346e+09 3.96448e+09 3.96455e+09 0 0
329 1 0 3.97241e+09 3.97266e+09 3.97368e+09 3.97506e+09 1 1
330 1 1 3.97832e+09 3.97858e+09 3.9796e+09 3.97964e+09 0 0
331 1 0 3.98694e+09 3.98719e+09 3.98821e+09 3.98827e+09 1 1
332 2 0 3.9924e+09 3.99266e+09 3.99368e+09 3.99369e+09 0 0
333 2 0 4.00261e+09 4.00286e+09 4.00388e+09 4.00446e+09 1 0
334 2 1 4.01559e+09 4.01584e+09 4.01686e+09 4.01735e+09 1 1
335 1 0 4.0243e+09 4.02456e+09 4.02558e+09 4.02669e+09 0 1
336 2 1 4.02977e+09 4.03002e+09 4.03104e+09 4.0314e+09 0 1
337 2 0 4.04731e+09 4.04756e+09 4.04858e+09 4.04866e+09 0 0
338 2 0 4.05883e+09 4.05909e+09 4.06011e+09 4.06053e+09 1 0
339 2 0 4.06797e+09 4.06822e+09 4.06924e+09 4.06929e+09 1 0
340 2 0 4.07904e+09 4.07931e+09 4.08033e+09 4.08034e+09 1 0
341 2 0 4.08792e+09 4.08818e+09 4.0892e+09 4.0898e+09 0 0
342 2 1 4.09713e+09 4.09739e+09 4.09841e+09 4.10244e+09 0 1
343 2 0 4.10541e+09 4.10567e+09 4.10669e+09 4.11665e+09 0 0
344 2 0 4.12475e+09 4.12501e+09 4.12603e+09 4.12719e+09 1 0
345 2 1 4.13433e+09 4.13458e+09 4.1356e+09 4.13599e+09 1 1
346 1 0 4.14356e+09 4.14382e+09 4.14484e+09 4.14488e+09 0 1
347 1 0 4.14741e+09 4.14767e+09 4.14869e+09 4.14879e+09 0 1
348 2 1 4.15567e+09 4.15593e+09 4.15695e+09 4.1579e+09 0 1
349 2 0 4.1614e+09 4.16165e+09 4.16266e+09 4.16665e+09 0 0
350 2 1 4.17873e+09 4.17899e+09 4.18001e+09 4.1804e+09 1 1
351 1 1 4.18662e+09 4.18686e+09 4.18788e+09 4.18855e+09 0 0
352 1 0 4.19572e+09 4.19596e+09 4.19698e+09 4.19708e+09 1 1
353 2 1 4.21203e+09 4.21228e+09 4.2133e+09 4.21726e+09 0 1
354 1 1 4.22828e+09 4.22854e+09 4.22956e+09 4.22994e+09 0 0
355 1 0 4.2375e+09 4.23775e+09 4.23877e+09 4.23884e+09 1 1
356 1 1 4.24613e+09 4.24638e+09 4.2474e+09 4.24784e+09 0 0
357 1 0 4.25522e+09 4.25548e+09 4.25649e+09 4.25655e+09 1 1
358 2 1 4.25979e+09 4.26006e+09 4.26108e+09 4.26121e+09 0 1
359 1 1 4.26422e+09 4.26448e+09 4.2655e+09 4.2672e+09 0 0
360 1 0 4.27671e+09 4.27696e+09 4.27797e+09 4.27822e+09 1 1
361 1 1 4.28431e+09 4.28455e+09 4.28557e+09 4.28582e+09 0 0
362 1 0 4.29298e+09 4.29324e+09 4.29426e+09 4.29432e+09 1 1
363 1 1 5.16097e+06 5.42513e+06 6.44476e+06 6.59316e+06 0 0
364 1 0 1.41415e+07 1.43919e+07 1.54115e+07 1.54778e+07 1 1
365 1 0 2.59072e+07 2.61595e+07 2.71791e+07 2.91578e+07 0 1
366 1 0 4.02309e+07 4.04833e+07 4.15029e+07 4.15765e+07 0 1
367 1 0 5.04935e+07 5.07481e+07 5.17677e+07 5.2356e+07 0 1
368 2 0 6.81011e+07 6.83553e+07 6.93749e+07 6.94207e+07 0 0
369 2 1 8.05417e+07 8.07835e+07 8.18032e+07 8.21839e+07 1 1
370 1 1 8.92877e+07 8.95327e+07 9.05524e+07 9.23257e+07 0 0
371 1 0 1.02619e+08 1.02878e+08 1.03898e+08 1.04283e+08 1 1
372 1 0 1.09363e+08 1.0961e+08 1.10629e+08 1.15259e+08 0 1
373 1 0 1.20903e+08 1.21156e+08 1.22176e+08 1.23262e+08 0 1
374 2 0 1.27601e+08 1.27844e+08 1.28864e+08 1.29333e+08 0 0
375 2 0 1.38179e+08 1.38423e+08 1.39443e+08 1.47938e+08 1 0
376 2 1 1.55435e+08 1.55682e+08 1.56702e+08 1.58627e+08 1 1
377 1 0 1.61561e+08 1.61811e+08 1.62831e+08 1.63057e+08 0 1
378 2 1 1.67666e+08 1.67924e+08 1.68944e+08 1.69683e+08 0 1
379 1 0 1.86402e+08 1.86659e+08 1.87678e+08 1.88078e+08 0 1
380 1 0 2.02081e+08 2.02336e+08 2.03356e+08 2.03806e+08 0 1
381 2 1 2.11408e+08 2.11653e+08 2.12672e+08 2.12701e+08 0 1
382 1 0 2.24615e+08 2.24876e+08 2.25896e+08 2.26596e+08 0 1
383 2 1 2.33833e+08 2.3409e+08 2.3511e+08 2.3523e+08 0 1
384 1 0 2.49156e+08 2.4941e+08 2.5043e+08 2.51043e+08 0 1
385 1 0 2.58839e+08 2.59085e+08 2.60105e+08 2.60278e+08 0 1
386 1 0 2.66731e+08 2.6698e+08 2.67999e+08 2.68612e+08 0 1
387 2 0 2.76522e+08 2.76767e+08 2.77787e+08 2.78555e+08 0 0
388 2 0 2.85792e+08 2.86048e+08 2.87068e+08 2.87442e+08 1 0
389 2 1 2.95803e+08 2.96047e+08 2.97067e+08 2.97366e+08 1 1
390 1 1 3.06302e+08 3.06559e+08 3.07578e+08 3.07657e+08 0 0
391 1 0 3.19837e+08 3.20081e+08 3.21101e+08 3.21466e+08 1 1
392 2 1 3.25661e+08 3.25909e+08 3.26928e+08 3.27054e+08 0 1
393 1 0 3.29825e+08 3.30079e+08 3.31099e+08 3.31645e+08 0 1
394 2 0 3.37655e+08 3.37903e+08 3.38923e+08 3.38939e+08 0 0
395 2 1 3.47066e+08 3.47311e+08 3.4833e+08 3.50726e+08 1 1
396 2 1 3.54372e+08 3.54632e+08 3.55652e+08 3.55898e+08 0 1
397 2 1 3.61609e+08 3.61856e+08 3.62876e+08 3.64259e+08 0 1
398 2 1 3.69763e+08 3.70025e+08 3.71045e+08 3.71066e+08 0 1
399 2 0 3.7608e+08 3.76345e+08 3.77365e+08 3.77381e+08 0 0
400 2 1 3.84497e+08 3.84747e+08 3.85766e+08 3.87292e+08 1 1
401 2 1 3.97779e+08 3.9804e+08 3.99059e+08 3.99714e+08 0 1
402 1 0 4.05103e+08 4.05361e+08 4.06381e+08 4.06392e+08 0 1
403 1 0 4.09162e+08 4.09413e+08 4.10433e+08 4.10462e+08 0 1
404 1 0 4.14523e+08 4.1478e+08 4.158e+08 4.17498e+08 0 1
405 1 1 4.21704e+08 4.21959e+08 4.22979e+08 4.23024e+08 0 0
406 1 0 4.30445e+08 4.30702e+08 4.31722e+08 4.31812e+08 1 1
407 1 0 4.39435e+08 4.3968e+08 4.407e+08 4.40963e+08 0 1
408 1 1 4.4398e+08 4.44236e+08 4.45256e+08 4.46209e+08 0 0
409 1 1 4.53281e+08 4.53532e+08 4.54552e+08 4.57617e+08 1 0
410 1 0 4.64868e+08 4.65115e+08 4.66134e+08 4.66517e+08 1 1
411 2 0 4.7223e+08 4.72483e+08 4.73502e+08 4.81519e+08 0 0
412 2 1 4.89022e+08 4.89267e+08 4.90287e+08 4.90308e+08 1 1
413 1 0 4.94945e+08 4.95189e+08 4.96209e+08 4.97714e+08 0 1
414 1 0 5.00565e+08 5.00811e+08 5.01831e+08 5.02528e+08 0 1
415 1 0 5.10307e+08 5.10561e+08 5.11581e+08 5.1237e+08 0 1
416 1 0 5.15207e+08 5.1545e+08 5.1647e+08 5.18142e+08 0 1
417 2 1 5.20891e+08 5.21142e+08 5.22161e+08 5.24936e+08 0 1
418 1 0 5.28545e+08 5.28792e+08 5.29812e+08 5.29836e+08 0 1
419 1 1 5.32647e+08 5.32895e+08 5.33915e+08 5.40248e+08 0 0
420 1 1 5.49999e+08 5.50245e+08 5.51265e+08 5.5139e+08 1 0
421 1 1 5.5979e+08 5.60043e+08 5.61063e+08 5.61769e+08 1 0
422 1 0 5.69611e+08 5.69855e+08 5.70875e+08 5.71345e+08 1 1
423 2 1 5.76749e+08 5.77e+08 5.7802e+08 5.78258e+08 0 1
424 2 1 5.87411e+08 5.87674e+08 5.88693e+08 5.88733e+08 0 1
425 2 1 5.91343e+08 5.91601e+08 5.92621e+08 5.97238e+08 0 1
426 1 1 5.99854e+08 6.001e+08 6.01119e+08 6.0236e+08 0 0
427 1 1 6.09484e+08 6.09742e+08 6.10761e+08 6.149e+08 1 0
428 1 0 6.24265e+08 6.24526e+08 6.25546e+08 6.26465e+08 1 1
429 2 0 6.29734e+08 6.29983e+08 6.31003e+08 6.31151e+08 0 0
430 2 0 6.40073e+08 6.40321e+08 6.41341e+08 6.50095e+08 1 0
431 2 1 6.57183e+08 6.5744e+08 6.5846e+08 6.83835e+08 1 1
432 1 0 6.86691e+08 6.86951e+08 6.8797e+08 6.88187e+08 0 1
433 2 0 6.92253e+08 6.92509e+08 6.93529e+08 6.95053e+08 0 0
434 2 0 7.02277e+08 7.02533e+08 7.03553e+08 7.05276e+08 1 0
435 2 0 7.12728e+08 7.12983e+08 7.14003e+08 7.20662e+08 1 0
436 2 1 7.28679e+08 7.28929e+08 7.29948e+08 7.31604e+08 1 1
437 2 1 7.37442e+08 7.37686e+08 7.38705e+08 7.38835e+08 0 1
438 2 1 7.4178e+08 7.4204e+08 7.4306e+08 7.43451e+08 0 1
439 2 1 7.47434e+08 7.47695e+08 7.48715e+08 7.53657e+08 0 1
440 1 1 7.56374e+08 7.56641e+08 7.57661e+08 7.59086e+08 0 0
441 1 0 7.66129e+08 7.66392e+08 7.67412e+08 7.67779e+08 1 1
442 2 1 7.70621e+08 7.7087e+08 7.71889e+08 7.79701e+08 0 1
443 2 0 7.83366e+08 7.83624e+08 7.84644e+08 8.12939e+08 0 0
444 2 0 8.20509e+08 8.20775e+08 8.21794e+08 8.41943e+08 1 0
445 2 1 8.48981e+08 8.49225e+08 8.50244e+08 8.52827e+08 1 1
446 1 0 8.5541e+08 8.55655e+08 8.56675e+08 8.59869e+08 0 1
447 1 0 8.6434e+08 8.64601e+08 8.65621e+08 8.66157e+08 0 1
448 1 0 8.69641e+08 8.69896e+08 8.70916e+08 8.78411e+08 0 1
449 2 0 8.81294e+08 8.81572e+08 8.82592e+08 8.87145e+08 0 0
450 2 0 8.94195e+08 8.94446e+08 8.95466e+08 9.2128e+08 1 0
451 2 0 9.28504e+08 9.28755e+08 9.29774e+08 9.37489e+08 1 0
452 2 1 9.46726e+08 9.4697e+08 9.4799e+08 9.49319e+08 1 1
453 1 0 9.52258e+08 9.52505e+08 9.53524e+08 9.60395e+08 0 1
454 2 1 9.63026e+08 9.63275e+08 9.64295e+08 9.64851e+08 0 1
455 1 1 9.67438e+08 9.67686e+08 9.68706e+08 9.68882e+08 0 0
456 1 0 9.75983e+08 9.76235e+08 9.77254e+08 9.83318e+08 1 1
457 2 0 9.87826e+08 9.8809e+08 9.8911e+08 9.92537e+08 0 0
458 2 0 9.99814e+08 1.00008e+09 1.0011e+09 1.00311e+09 1 0
459 2 0 1.01236e+09 1.01262e+09 1.01364e+09 1.01799e+09 1 0
460 2 0 1.02538e+09 1.02562e+09 1.02664e+09 1.03673e+09 1 0
461 2 0 1.04673e+09 1.04698e+09 1.048e+09 1.05173e+09 0 0
462 2 0 1.05895e+09 1.0592e+09 1.06022e+09 1.06154e+09 0 0
463 2 0 1.06904e+09 1.0693e+09 1.07032e+09 1.08261e+09 0 0
464 2 0 1.08991e+09 1.09016e+09 1.09117e+09 1.09221e+09 0 0
465 2 0 1.10054e+09 1.10079e+09 1.10181e+09 1.11256e+09 0 0
466 1 0 1.11978e+09 1.12004e+09 1.12106e+09 1.12695e+09 0 1
467 1 0 1.1305e+09 1.13076e+09 1.13178e+09 1.14077e+09 0 1
468 1 1 1.1436e+09 1.14385e+09 1.14487e+09 1.15007e+09 0 0
469 1 0 1.15752e+09 1.15777e+09 1.15879e+09 1.18607e+09 1 1
470 2 0 1.19122e+09 1.19148e+09 1.1925e+09 1.1977e+09 0 0
471 2 0 1.20488e+09 1.20512e+09 1.20614e+09 1.20932e+09 1 0
472 2 0 1.21638e+09 1.21663e+09 1.21765e+09 1.21789e+09 1 0
473 2 0 1.22527e+09 1.22551e+09 1.22653e+09 1.23686e+09 1 0
474 2 0 1.2443e+09 1.24454e+09 1.24556e+09 1.25214e+09 0 0
475 2 0 1.25956e+09 1.2598e+09 1.26082e+09 1.27982e+09 0 0
476 1 0 1.28739e+09 1.28764e+09 1.28866e+09 1.29005e+09 0 1
477 2 0 1.29502e+09 1.29527e+09 1.29629e+09 1.29976e+09 0 0
478 2 1 1.30716e+09 1.30741e+09 1.30843e+09 1.31066e+09 1 1
479 2 0 1.31341e+09 1.31367e+09 1.31469e+09 1.31951e+09 0 0
480 2 0 1.32696e+09 1.32721e+09 1.32823e+09 1.33474e+09 1 0
481 2 0 1.34201e+09 1.34226e+09 1.34328e+09 1.34706e+09 1 0
482 2 1 1.35415e+09 1.35441e+09 1.35543e+09 1.36075e+09 1 1
