trial trialType response stillTime stimOnset stimOffset respTime correctionTrial correct
001 5 0 1.22675e+07 1.25948e+07 1.36144e+07 1.37294e+07 0 0
002 5 1 2.11518e+07 2.14255e+07 2.24451e+07 2.25214e+07 1 1
003 1 0 2.8288e+07 2.8569e+07 2.95886e+07 3.06175e+07 0 1
004 5 0 3.33578e+07 3.36101e+07 3.46297e+07 3.46962e+07 0 0
005 5 1 5.09952e+07 5.12476e+07 5.22672e+07 5.35199e+07 1 1
006 5 1 5.75201e+07 5.77755e+07 5.87951e+07 5.95338e+07 0 1
007 5 1 6.3317e+07 6.35869e+07 6.46065e+07 6.57175e+07 0 1
008 5 1 8.4521e+07 8.47846e+07 8.58042e+07 8.75954e+07 0 1
009 1 0 9.52914e+07 9.5553e+07 9.65726e+07 9.7056e+07 0 1
010 5 0 1.01831e+08 1.02092e+08 1.03112e+08 1.03782e+08 0 0
011 5 1 1.13773e+08 1.14035e+08 1.15055e+08 1.16022e+08 1 1
012 1 0 1.20548e+08 1.20826e+08 1.21845e+08 1.21861e+08 0 1
013 1 0 1.27184e+08 1.27444e+08 1.28463e+08 1.28662e+08 0 1
014 2 0 1.3231e+08 1.32571e+08 1.33591e+08 1.33619e+08 0 99
015 5 1 1.36162e+08 1.36427e+08 1.37446e+08 1.39328e+08 0 1
016 1 1 1.46003e+08 1.46258e+08 1.47278e+08 1.47297e+08 0 0
017 1 1 1.58163e+08 1.58414e+08 1.59434e+08 1.59576e+08 1 0
018 1 0 1.6974e+08 1.69987e+08 1.71007e+08 1.71816e+08 1 1
019 5 1 1.76608e+08 1.7687e+08 1.77889e+08 1.78452e+08 0 1
020 1 0 1.84394e+08 1.84662e+08 1.85682e+08 1.85869e+08 0 1
021 1 0 1.92926e+08 1.93185e+08 1.94205e+08 1.94436e+08 0 1
022 5 0 1.9933e+08 1.99592e+08 2.00611e+08 2.00616e+08 0 0
023 5 1 2.0864e+08 2.08899e+08 2.09918e+08 2.10897e+08 1 1
024 1 0 2.15524e+08 2.15787e+08 2.16807e+08 2.1721e+08 0 1
025 1 0 2.22636e+08 2.229e+08 2.23919e+08 2.24274e+08 0 1
026 1 1 2.26923e+08 2.27171e+08 2.28191e+08 2.2911e+08 0 0
027 1 0 2.36617e+08 2.36872e+08 2.37891e+08 2.38338e+08 1 1
028 1 1 2.41222e+08 2.41478e+08 2.42497e+08 2.42517e+08 0 0
029 1 0 2.51934e+08 2.5218e+08 2.532e+08 2.53293e+08 1 1
030 5 1 2.55946e+08 2.56207e+08 2.57226e+08 2.57295e+08 0 1
031 2 0 2.62187e+08 2.62449e+08 2.63469e+08 2.63905e+08 0 99
032 5 1 2.66704e+08 2.66964e+08 2.67983e+08 2.7e+08 0 1
033 1 1 2.80711e+08 2.80976e+08 2.81995e+08 2.82541e+08 0 0
034 1 1 2.89774e+08 2.90023e+08 2.91043e+08 2.91166e+08 1 0
035 1 1 3.04773e+08 3.0503e+08 3.0605e+08 3.07543e+08 1 0
036 1 1 3.14861e+08 3.15119e+08 3.16139e+08 3.1666e+08 1 0
037 1 0 3.23849e+08 3.24101e+08 3.2512e+08 3.25433e+08 0 1
038 1 0 3.28312e+08 3.28577e+08 3.29597e+08 3.29757e+08 0 1
039 5 1 3.32795e+08 3.33063e+08 3.34083e+08 3.36714e+08 0 1
040 5 1 3.40997e+08 3.4126e+08 3.4228e+08 3.45268e+08 0 1
041 5 1 3.50465e+08 3.50718e+08 3.51738e+08 3.52681e+08 0 1
042 5 1 3.5793e+08 3.58183e+08 3.59203e+08 3.60208e+08 0 1
043 1 0 3.65822e+08 3.6608e+08 3.671e+08 3.67233e+08 0 1
044 2 0 3.70018e+08 3.70272e+08 3.71292e+08 3.71391e+08 0 99
045 2 1 3.74022e+08 3.74283e+08 3.75302e+08 3.7574e+08 0 99
046 1 0 3.80112e+08 3.80359e+08 3.81378e+08 3.81383e+08 0 1
047 1 0 3.85679e+08 3.85935e+08 3.86954e+08 3.87438e+08 0 1
048 5 1 3.9017e+08 3.90423e+08 3.91443e+08 3.91688e+08 0 1
049 1 0 3.97895e+08 3.98155e+08 3.99175e+08 3.99189e+08 0 1
050 1 0 4.04172e+08 4.04417e+08 4.05436e+08 4.06186e+08 0 1
051 1 0 4.11987e+08 4.12241e+08 4.13261e+08 4.13754e+08 0 1
052 4 0 4.16771e+08 4.17036e+08 4.18056e+08 4.18115e+08 0 99
053 3 1 4.20934e+08 4.21182e+08 4.22202e+08 4.23596e+08 0 99
054 5 1 4.26526e+08 4.26783e+08 4.27802e+08 4.28545e+08 0 1
055 2 0 4.34091e+08 4.34355e+08 4.35375e+08 4.35629e+08 0 99
056 2 1 4.38246e+08 4.38497e+08 4.39516e+08 4.39561e+08 0 99
057 5 1 4.43202e+08 4.43459e+08 4.44479e+08 4.44536e+08 0 1
058 3 0 4.51934e+08 4.52191e+08 4.53211e+08 4.53954e+08 0 99
059 4 1 4.56982e+08 4.57235e+08 4.58254e+08 4.59899e+08 0 99
060 5 1 4.667e+08 4.66968e+08 4.67987e+08 4.69192e+08 0 1
061 5 1 4.74122e+08 4.74374e+08 4.75394e+08 4.76166e+08 0 1
062 1 0 4.79279e+08 4.79532e+08 4.80551e+08 4.80557e+08 0 1
063 5 1 4.8335e+08 4.83599e+08 4.84619e+08 4.84773e+08 0 1
064 1 0 4.87442e+08 4.87698e+08 4.88718e+08 4.89359e+08 0 1
065 5 1 4.92422e+08 4.92677e+08 4.93697e+08 4.9559e+08 0 1
066 1 0 5.05438e+08 5.05689e+08 5.06708e+08 5.06967e+08 0 1
067 1 0 5.0972e+08 5.09974e+08 5.10994e+08 5.11035e+08 0 1
068 3 0 5.15914e+08 5.16172e+08 5.17192e+08 5.17207e+08 0 99
069 5 1 5.20147e+08 5.20401e+08 5.2142e+08 5.23435e+08 0 1
070 3 0 5.26306e+08 5.26554e+08 5.27573e+08 5.27709e+08 0 99
071 1 1 5.30565e+08 5.30831e+08 5.31851e+08 5.32536e+08 0 0
072 1 1 5.3974e+08 5.40002e+08 5.41022e+08 5.41542e+08 1 0
073 1 0 5.48602e+08 5.48852e+08 5.49872e+08 5.50359e+08 1 1
074 1 1 5.5334e+08 5.53605e+08 5.54624e+08 5.54904e+08 0 0
075 1 0 5.62097e+08 5.62347e+08 5.63367e+08 5.6425e+08 1 1
076 4 1 5.69576e+08 5.69845e+08 5.70864e+08 5.70921e+08 0 99
077 5 1 5.75867e+08 5.76116e+08 5.77136e+08 5.85318e+08 0 1
078 4 1 5.90646e+08 5.90902e+08 5.91922e+08 5.92551e+08 0 99
079 1 0 5.95417e+08 5.95675e+08 5.96695e+08 5.97228e+08 0 1
080 4 1 6.02257e+08 6.02519e+08 6.03538e+08 6.0415e+08 0 99
081 1 1 6.07073e+08 6.07334e+08 6.08354e+08 6.09783e+08 0 0
082 1 0 6.17041e+08 6.17285e+08 6.18305e+08 6.18343e+08 1 1
083 4 0 6.24677e+08 6.24932e+08 6.25952e+08 6.26512e+08 0 99
084 5 1 6.2998e+08 6.3023e+08 6.3125e+08 6.31337e+08 0 1
085 5 1 6.34253e+08 6.345e+08 6.35519e+08 6.35523e+08 0 1
086 1 0 6.4149e+08 6.41745e+08 6.42764e+08 6.42777e+08 0 1
087 3 0 6.47495e+08 6.47744e+08 6.48764e+08 6.48998e+08 0 99
088 5 1 6.52071e+08 6.5232e+08 6.5334e+08 6.53385e+08 0 1
089 4 0 6.58768e+08 6.59033e+08 6.60052e+08 6.60807e+08 0 99
090 5 1 6.64171e+08 6.64416e+08 6.65436e+08 6.6598e+08 0 1
091 5 0 6.71322e+08 6.71575e+08 6.72594e+08 6.74548e+08 0 0
092 5 1 6.84973e+08 6.85236e+08 6.86256e+08 6.87066e+08 1 1
093 1 1 6.92163e+08 6.92409e+08 6.93429e+08 6.93486e+08 0 0
094 1 1 7.01129e+08 7.01374e+08 7.02394e+08 7.02452e+08 1 0
095 1 0 7.09719e+08 7.09971e+08 7.10991e+08 7.11094e+08 1 1
096 5 1 7.16834e+08 7.17078e+08 7.18098e+08 7.18993e+08 0 1
097 1 0 7.24798e+08 7.25046e+08 7.26065e+08 7.26587e+08 0 1
098 3 1 7.31952e+08 7.32214e+08 7.33234e+08 7.33433e+08 0 99
099 5 1 7.38617e+08 7.38876e+08 7.39895e+08 7.41644e+08 0 1
100 2 0 7.47564e+08 7.47816e+08 7.48836e+08 7.48954e+08 0 99
101 5 1 7.52429e+08 7.52688e+08 7.53708e+08 7.54435e+08 0 1
102 1 1 7.59188e+08 7.59442e+08 7.60462e+08 7.60474e+08 0 0
103 1 0 7.69492e+08 7.69753e+08 7.70772e+08 7.70777e+08 1 1
104 4 0 7.7401e+08 7.7427e+08 7.7529e+08 7.7551e+08 0 99
105 1 0 7.79132e+08 7.79401e+08 7.8042e+08 7.80677e+08 0 1
106 5 1 7.86357e+08 7.86606e+08 7.87625e+08 7.87652e+08 0 1
107 5 1 7.93415e+08 7.93666e+08 7.94685e+08 7.94969e+08 0 1
108 1 0 7.98203e+08 7.9845e+08 7.99469e+08 7.99496e+08 0 1
109 1 0 8.0487e+08 8.05134e+08 8.06154e+08 8.06592e+08 0 1
110 5 1 8.11172e+08 8.11419e+08 8.12439e+08 8.12966e+08 0 1
111 5 1 8.18267e+08 8.18521e+08 8.19541e+08 8.2274e+08 0 1
112 3 0 8.28231e+08 8.28496e+08 8.29516e+08 8.29664e+08 0 99
113 1 1 8.33179e+08 8.33442e+08 8.34461e+08 8.35161e+08 0 0
114 1 0 8.4507e+08 8.45324e+08 8.46343e+08 8.46662e+08 1 1
115 5 1 8.52075e+08 8.52333e+08 8.53353e+08 8.54178e+08 0 1
116 1 0 8.59092e+08 8.59344e+08 8.60364e+08 8.60735e+08 0 1
117 5 1 8.66337e+08 8.666e+08 8.6762e+08 8.67715e+08 0 1
118 2 0 8.74733e+08 8.74986e+08 8.76005e+08 8.76128e+08 0 99
119 3 0 8.79914e+08 8.80174e+08 8.81193e+08 8.812e+08 0 99
120 1 0 8.85522e+08 8.8577e+08 8.8679e+08 8.87137e+08 0 1
121 5 1 8.92173e+08 8.92432e+08 8.93451e+08 8.9483e+08 0 1
122 5 0 9.00571e+08 9.00827e+08 9.01846e+08 9.02618e+08 0 0
123 5 1 9.1085e+08 9.11114e+08 9.12134e+08 9.12327e+08 1 1
124 1 1 9.17468e+08 9.17716e+08 9.18736e+08 9.18767e+08 0 0
125 1 0 9.26907e+08 9.27151e+08 9.2817e+08 9.28459e+08 1 1
126 5 1 9.35287e+08 9.35538e+08 9.36558e+08 9.41118e+08 0 1
127 5 1 9.47345e+08 9.47592e+08 9.48611e+08 9.50716e+08 0 1
128 5 1 9.55832e+08 9.56082e+08 9.57102e+08 9.59874e+08 0 1
129 5 1 9.64489e+08 9.64735e+08 9.65754e+08 9.66238e+08 0 1
130 1 0 9.70903e+08 9.71164e+08 9.72183e+08 9.72217e+08 0 1
131 1 0 9.78126e+08 9.78377e+08 9.79397e+08 9.79405e+08 0 1
132 1 1 9.84657e+08 9.84907e+08 9.85926e+08 9.86564e+08 0 0
133 1 0 9.94787e+08 9.95047e+08 9.96067e+08 9.96072e+08 1 1
134 1 0 1.0019e+09 1.00216e+09 1.00318e+09 1.00349e+09 0 1
135 1 1 1.00932e+09 1.00958e+09 1.0106e+09 1.01062e+09 0 0
136 1 0 1.01795e+09 1.01821e+09 1.01923e+09 1.01925e+09 1 1
137 1 0 1.02516e+09 1.02541e+09 1.02643e+09 1.02663e+09 0 1
138 5 1 1.0329e+09 1.03315e+09 1.03416e+09 1.03605e+09 0 1
139 1 0 1.04215e+09 1.04241e+09 1.04343e+09 1.04351e+09 0 1
140 1 0 1.04988e+09 1.05013e+09 1.05115e+09 1.05132e+09 0 1
141 1 0 1.05764e+09 1.05789e+09 1.05891e+09 1.05901e+09 0 1
142 5 1 1.06436e+09 1.06461e+09 1.06563e+09 1.06588e+09 0 1
143 1 0 1.07137e+09 1.07162e+09 1.07264e+09 1.07265e+09 0 1
144 4 1 1.07912e+09 1.07936e+09 1.08038e+09 1.08039e+09 0 99
145 5 1 1.08555e+09 1.08581e+09 1.08683e+09 1.08874e+09 0 1
146 5 1 1.09431e+09 1.09457e+09 1.09559e+09 1.09626e+09 0 1
147 1 0 1.1049e+09 1.10515e+09 1.10617e+09 1.10619e+09 0 1
148 5 0 1.11319e+09 1.11344e+09 1.11446e+09 1.11524e+09 0 0
149 5 0 1.12461e+09 1.12487e+09 1.12589e+09 1.1263e+09 1 0
150 5 1 1.13617e+09 1.13644e+09 1.13746e+09 1.13804e+09 1 1
151 5 1 1.1432e+09 1.14346e+09 1.14448e+09 1.14529e+09 0 1
152 5 1 1.14997e+09 1.15021e+09 1.15123e+09 1.1518e+09 0 1
153 5 1 1.16341e+09 1.16366e+09 1.16468e+09 1.16641e+09 0 1
154 2 1 1.17158e+09 1.17183e+09 1.17285e+09 1.17287e+09 0 99
155 5 1 1.17703e+09 1.17728e+09 1.1783e+09 1.17851e+09 0 1
156 3 0 1.18508e+09 1.18534e+09 1.18636e+09 1.18676e+09 0 99
157 1 0 1.1906e+09 1.19085e+09 1.19187e+09 1.19206e+09 0 1
158 2 0 1.19857e+09 1.19882e+09 1.19984e+09 1.19987e+09 0 99
159 2 0 1.20552e+09 1.20579e+09 1.2068e+09 1.20683e+09 0 99
160 1 0 1.2145e+09 1.21475e+09 1.21577e+09 1.21602e+09 0 1
161 5 1 1.22481e+09 1.22506e+09 1.22608e+09 1.22666e+09 0 1
162 3 0 1.23227e+09 1.23252e+09 1.23354e+09 1.23365e+09 0 99
163 1 0 1.24285e+09 1.2431e+09 1.24412e+09 1.2443e+09 0 1
164 1 0 1.24869e+09 1.24894e+09 1.24996e+09 1.24999e+09 0 1
165 5 0 1.25525e+09 1.2555e+09 1.25652e+09 1.25795e+09 0 0
166 5 1 1.26568e+09 1.26593e+09 1.26695e+09 1.26758e+09 1 1
167 1 0 1.27282e+09 1.27307e+09 1.27409e+09 1.27425e+09 0 1
168 1 0 1.28059e+09 1.28085e+09 1.28187e+09 1.28191e+09 0 1
169 5 1 1.28936e+09 1.28962e+09 1.29064e+09 1.29102e+09 0 1
170 5 1 1.2963e+09 1.29655e+09 1.29757e+09 1.29841e+09 0 1
171 5 1 1.30632e+09 1.30658e+09 1.3076e+09 1.30877e+09 0 1
172 1 0 1.31451e+09 1.31476e+09 1.31578e+09 1.31579e+09 0 1
173 1 1 1.32168e+09 1.32193e+09 1.32295e+09 1.32315e+09 0 0
174 1 0 1.33719e+09 1.33743e+09 1.33845e+09 1.33871e+09 1 1
175 4 0 1.34416e+09 1.34443e+09 1.34545e+09 1.34556e+09 0 99
176 2 0 1.35184e+09 1.3521e+09 1.35312e+09 1.35386e+09 0 99
177 5 1 1.3594e+09 1.35965e+09 1.36067e+09 1.36156e+09 0 1
178 5 1 1.37495e+09 1.3752e+09 1.37622e+09 1.37648e+09 0 1
179 5 1 1.38184e+09 1.38209e+09 1.38311e+09 1.38446e+09 0 1
180 5 1 1.38989e+09 1.39014e+09 1.39116e+09 1.39155e+09 0 1
181 1 0 1.39783e+09 1.39808e+09 1.3991e+09 1.39941e+09 0 1
182 1 0 1.40738e+09 1.40762e+09 1.40864e+09 1.40903e+09 0 1
183 1 0 1.41498e+09 1.41524e+09 1.41626e+09 1.4164e+09 0 1
184 4 1 1.42384e+09 1.4241e+09 1.42512e+09 1.42523e+09 0 99
185 2 0 1.43015e+09 1.43039e+09 1.43141e+09 1.43149e+09 0 99
186 3 0 1.43805e+09 1.4383e+09 1.43932e+09 1.43933e+09 0 99
187 1 0 1.4472e+09 1.44746e+09 1.44848e+09 1.44856e+09 0 1
188 5 1 1.45413e+09 1.45439e+09 1.45541e+09 1.45587e+09 0 1
189 2 0 1.46041e+09 1.46066e+09 1.46168e+09 1.46194e+09 0 99
190 1 0 1.46862e+09 1.46887e+09 1.46989e+09 1.46994e+09 0 1
191 1 0 1.47497e+09 1.47522e+09 1.47624e+09 1.47641e+09 0 1
192 5 1 1.48462e+09 1.48488e+09 1.4859e+09 1.48591e+09 0 1
193 5 1 1.49095e+09 1.4912e+09 1.49222e+09 1.493e+09 0 1
194 2 0 1.50038e+09 1.50063e+09 1.50165e+09 1.50176e+09 0 99
195 1 0 1.50705e+09 1.5073e+09 1.50832e+09 1.5084e+09 0 1
196 5 1 1.51496e+09 1.51522e+09 1.51624e+09 1.51626e+09 0 1
197 4 1 1.52503e+09 1.52528e+09 1.5263e+09 1.52632e+09 0 99
198 4 1 1.53269e+09 1.53294e+09 1.53396e+09 1.5344e+09 0 99
199 5 1 1.54028e+09 1.54053e+09 1.54155e+09 1.54156e+09 0 1
200 1 0 1.54887e+09 1.54912e+09 1.55014e+09 1.55028e+09 0 1
201 3 0 1.55945e+09 1.5597e+09 1.56072e+09 1.56079e+09 0 99
202 5 1 1.56833e+09 1.56858e+09 1.5696e+09 1.57063e+09 0 1
203 5 1 1.57866e+09 1.57892e+09 1.57994e+09 1.58105e+09 0 1
204 1 0 1.58605e+09 1.58631e+09 1.58733e+09 1.58744e+09 0 1
205 1 0 1.59343e+09 1.59368e+09 1.5947e+09 1.5948e+09 0 1
206 5 1 1.60144e+09 1.60169e+09 1.60271e+09 1.60282e+09 0 1
207 3 0 1.60819e+09 1.60844e+09 1.60946e+09 1.60963e+09 0 99
208 4 1 1.61594e+09 1.6162e+09 1.61722e+09 1.61804e+09 0 99
209 5 1 1.63332e+09 1.63359e+09 1.63461e+09 1.63522e+09 0 1
210 3 0 1.63986e+09 1.64012e+09 1.64114e+09 1.6413e+09 0 99
211 1 0 1.64763e+09 1.64789e+09 1.64891e+09 1.64892e+09 0 1
212 1 0 1.65562e+09 1.65588e+09 1.6569e+09 1.65697e+09 0 1
213 3 1 1.66587e+09 1.66613e+09 1.66715e+09 1.6677e+09 0 99
214 2 0 1.67256e+09 1.67281e+09 1.67383e+09 1.67398e+09 0 99
215 5 1 1.67854e+09 1.6788e+09 1.67982e+09 1.68105e+09 0 1
216 1 0 1.69206e+09 1.69231e+09 1.69333e+09 1.69342e+09 0 1
217 5 1 1.69944e+09 1.69969e+09 1.70071e+09 1.70127e+09 0 1
218 5 1 1.70687e+09 1.70713e+09 1.70815e+09 1.70855e+09 0 1
219 1 0 1.71464e+09 1.7149e+09 1.71592e+09 1.71608e+09 0 1
220 1 0 1.72319e+09 1.72346e+09 1.72448e+09 1.72456e+09 0 1
221 4 0 1.7303e+09 1.73056e+09 1.73158e+09 1.7316e+09 0 99
222 5 1 1.74249e+09 1.74274e+09 1.74376e+09 1.74466e+09 0 1
223 3 1 1.75704e+09 1.75729e+09 1.75831e+09 1.75982e+09 0 99
224 1 1 1.77166e+09 1.77191e+09 1.77293e+09 1.77424e+09 0 0
225 1 0 1.78274e+09 1.78299e+09 1.78401e+09 1.78416e+09 1 1
226 5 1 1.79031e+09 1.79057e+09 1.79159e+09 1.79186e+09 0 1
227 1 0 1.79721e+09 1.79746e+09 1.79847e+09 1.79849e+09 0 1
228 1 0 1.80379e+09 1.80404e+09 1.80506e+09 1.80599e+09 0 1
229 4 1 1.8122e+09 1.81245e+09 1.81347e+09 1.81354e+09 0 99
230 1 0 1.81978e+09 1.82004e+09 1.82106e+09 1.82124e+09 0 1
231 5 1 1.82744e+09 1.82769e+09 1.82871e+09 1.82891e+09 0 1
232 5 1 1.83407e+09 1.83432e+09 1.83534e+09 1.83546e+09 0 1
233 5 1 1.84361e+09 1.84386e+09 1.84488e+09 1.84591e+09 0 1
234 5 1 1.85229e+09 1.85255e+09 1.85357e+09 1.8541e+09 0 1
235 5 1 1.86002e+09 1.86027e+09 1.86129e+09 1.86154e+09 0 1
236 4 0 1.86674e+09 1.867e+09 1.86802e+09 1.86814e+09 0 99
237 5 1 1.87413e+09 1.87439e+09 1.87541e+09 1.87546e+09 0 1
238 4 1 1.88162e+09 1.88188e+09 1.8829e+09 1.88299e+09 0 99
239 5 1 1.89001e+09 1.89027e+09 1.89129e+09 1.89133e+09 0 1
240 2 0 1.90035e+09 1.9006e+09 1.90162e+09 1.90163e+09 0 99
241 1 0 1.90896e+09 1.90921e+09 1.91023e+09 1.9108e+09 0 1
242 4 0 1.91653e+09 1.9168e+09 1.91782e+09 1.91822e+09 0 99
243 1 1 1.92434e+09 1.9246e+09 1.92562e+09 1.92564e+09 0 0
244 1 0 1.93278e+09 1.93303e+09 1.93405e+09 1.93429e+09 1 1
245 5 1 1.94101e+09 1.94127e+09 1.94229e+09 1.94322e+09 0 1
246 1 0 1.94892e+09 1.94918e+09 1.9502e+09 1.95034e+09 0 1
247 2 0 1.95678e+09 1.95704e+09 1.95806e+09 1.95806e+09 0 99
248 1 1 1.96673e+09 1.96698e+09 1.968e+09 1.96846e+09 0 0
249 1 1 1.97694e+09 1.97718e+09 1.9782e+09 1.98054e+09 1 0
250 1 0 1.98844e+09 1.98869e+09 1.98971e+09 1.98988e+09 1 1
251 4 1 1.99557e+09 1.99583e+09 1.99685e+09 1.99781e+09 0 99
252 1 1 2.00501e+09 2.00527e+09 2.00629e+09 2.00713e+09 0 0
253 1 1 2.01453e+09 2.01478e+09 2.0158e+09 2.02646e+09 1 0
254 1 1 2.03379e+09 2.03404e+09 2.03506e+09 2.03795e+09 1 0
255 1 0 2.045e+09 2.04526e+09 2.04628e+09 2.04648e+09 1 1
256 1 1 2.05318e+09 2.05344e+09 2.05446e+09 2.05454e+09 0 0
257 1 1 2.06174e+09 2.062e+09 2.06302e+09 2.06324e+09 1 0
258 1 0 2.07041e+09 2.07067e+09 2.07169e+09 2.07194e+09 1 1
259 1 1 2.07807e+09 2.07832e+09 2.07934e+09 2.0796e+09 0 0
260 1 1 2.08816e+09 2.08842e+09 2.08944e+09 2.08971e+09 1 0
261 1 0 2.09691e+09 2.09717e+09 2.09819e+09 2.09822e+09 1 1
262 5 0 2.10428e+09 2.10453e+09 2.10555e+09 2.10638e+09 0 0
263 5 0 2.11377e+09 2.11403e+09 2.11505e+09 2.11528e+09 1 0
264 5 1 2.12273e+09 2.12298e+09 2.124e+09 2.12555e+09 1 1
265 1 0 2.13149e+09 2.13174e+09 2.13276e+09 2.13299e+09 0 1
266 1 0 2.13967e+09 2.13993e+09 2.14095e+09 2.14101e+09 0 1
267 3 0 2.1472e+09 2.14744e+09 2.14846e+09 2.14883e+09 0 99
268 3 1 2.15436e+09 2.15462e+09 2.15564e+09 2.15565e+09 0 99
269 1 0 2.16122e+09 2.16147e+09 2.16249e+09 2.1625e+09 0 1
270 5 1 2.16985e+09 2.17011e+09 2.17113e+09 2.17124e+09 0 1
271 1 0 2.17681e+09 2.17707e+09 2.17809e+09 2.1785e+09 0 1
272 5 1 2.18588e+09 2.18613e+09 2.18715e+09 2.19122e+09 0 1
273 1 0 2.19811e+09 2.19837e+09 2.19939e+09 2.19941e+09 0 1
274 5 1 2.20483e+09 2.20508e+09 2.2061e+09 2.20616e+09 0 1
275 3 0 2.21175e+09 2.212e+09 2.21302e+09 2.21328e+09 0 99
276 5 0 2.22106e+09 2.22132e+09 2.22234e+09 2.22434e+09 0 0
277 5 1 2.23171e+09 2.23198e+09 2.233e+09 2.23457e+09 1 1
278 3 0 2.24038e+09 2.24063e+09 2.24165e+09 2.24168e+09 0 99
279 1 0 2.24737e+09 2.24763e+09 2.24865e+09 2.24879e+09 0 1
280 1 0 2.25586e+09 2.25612e+09 2.25714e+09 2.25727e+09 0 1
281 1 0 2.26801e+09 2.26826e+09 2.26928e+09 2.26929e+09 0 1
282 1 0 2.277e+09 2.27725e+09 2.27827e+09 2.27909e+09 0 1
283 5 1 2.28517e+09 2.28541e+09 2.28643e+09 2.28663e+09 0 1
284 5 0 2.29243e+09 2.29269e+09 2.29371e+09 2.29613e+09 0 0
285 5 1 2.30438e+09 2.30464e+09 2.30566e+09 2.30596e+09 1 1
286 2 0 2.31161e+09 2.31187e+09 2.31289e+09 2.31298e+09 0 99
287 5 1 2.32029e+09 2.32053e+09 2.32155e+09 2.32179e+09 0 1
288 5 1 2.32809e+09 2.32835e+09 2.32937e+09 2.3302e+09 0 1
289 1 0 2.33916e+09 2.3394e+09 2.34042e+09 2.34051e+09 0 1
290 5 1 2.34608e+09 2.34633e+09 2.34735e+09 2.34874e+09 0 1
291 1 0 2.35489e+09 2.35515e+09 2.35617e+09 2.35622e+09 0 1
292 3 1 2.3628e+09 2.36305e+09 2.36407e+09 2.36741e+09 0 99
293 5 1 2.37324e+09 2.3735e+09 2.37452e+09 2.37459e+09 0 1
294 3 0 2.38331e+09 2.38356e+09 2.38458e+09 2.3847e+09 0 99
295 1 0 2.39223e+09 2.39249e+09 2.39351e+09 2.39382e+09 0 1
296 5 1 2.39987e+09 2.40012e+09 2.40114e+09 2.40212e+09 0 1
297 2 0 2.40847e+09 2.40873e+09 2.40975e+09 2.4108e+09 0 99
298 2 0 2.41748e+09 2.41774e+09 2.41876e+09 2.41888e+09 0 99
299 5 1 2.4263e+09 2.42655e+09 2.42757e+09 2.42887e+09 0 1
300 4 1 2.43564e+09 2.43591e+09 2.43693e+09 2.43738e+09 0 99
301 5 1 2.4437e+09 2.44397e+09 2.44499e+09 2.44942e+09 0 1
302 1 0 2.46288e+09 2.46314e+09 2.46416e+09 2.4645e+09 0 1
303 5 1 2.47113e+09 2.47139e+09 2.47241e+09 2.47318e+09 0 1
304 5 1 2.48043e+09 2.48068e+09 2.4817e+09 2.48171e+09 0 1
305 1 0 2.48864e+09 2.48891e+09 2.48993e+09 2.49009e+09 0 1
306 1 0 2.49631e+09 2.49656e+09 2.49758e+09 2.49759e+09 0 1
307 5 1 2.50819e+09 2.50845e+09 2.50947e+09 2.51223e+09 0 1
308 5 1 2.51958e+09 2.51984e+09 2.52086e+09 2.52092e+09 0 1
309 5 1 2.52749e+09 2.52774e+09 2.52876e+09 2.52948e+09 0 1
310 5 1 2.53624e+09 2.5365e+09 2.53752e+09 2.53994e+09 0 1
311 5 1 2.54638e+09 2.54664e+09 2.54766e+09 2.54823e+09 0 1
312 5 1 2.55776e+09 2.55801e+09 2.55903e+09 2.56076e+09 0 1
313 3 0 2.5672e+09 2.56746e+09 2.56848e+09 2.56884e+09 0 99
314 1 0 2.57546e+09 2.57571e+09 2.57673e+09 2.57688e+09 0 1
315 4 0 2.58307e+09 2.58333e+09 2.58435e+09 2.58441e+09 0 99
316 1 0 2.5919e+09 2.59216e+09 2.59318e+09 2.59379e+09 0 1
317 5 1 2.60198e+09 2.60223e+09 2.60325e+09 2.60503e+09 0 1
318 5 1 2.61379e+09 2.61403e+09 2.61505e+09 2.61637e+09 0 1
319 1 1 2.62358e+09 2.62385e+09 2.62487e+09 2.62552e+09 0 0
320 1 0 2.63363e+09 2.63389e+09 2.63491e+09 2.63526e+09 1 1
321 2 0 2.64183e+09 2.64208e+09 2.6431e+09 2.64361e+09 0 99
322 5 1 2.65072e+09 2.65097e+09 2.65199e+09 2.65295e+09 0 1
323 5 1 2.65914e+09 2.6594e+09 2.66042e+09 2.66173e+09 0 1
324 3 1 2.66862e+09 2.66887e+09 2.66989e+09 2.66993e+09 0 99
325 5 1 2.67614e+09 2.6764e+09 2.67742e+09 2.67905e+09 0 1
326 1 0 2.68524e+09 2.68551e+09 2.68653e+09 2.68655e+09 0 1
327 1 0 2.69309e+09 2.69334e+09 2.69436e+09 2.69438e+09 0 1
328 5 1 2.70242e+09 2.70267e+09 2.70369e+09 2.70378e+09 0 1
329 1 0 2.71232e+09 2.71257e+09 2.71359e+09 2.71371e+09 0 1
330 2 0 2.72072e+09 2.72097e+09 2.72199e+09 2.72211e+09 0 99
331 1 0 2.73018e+09 2.73043e+09 2.73145e+09 2.73199e+09 0 1
332 1 0 2.73823e+09 2.73847e+09 2.73949e+09 2.73961e+09 0 1
333 5 1 2.74585e+09 2.7461e+09 2.74712e+09 2.74816e+09 0 1
334 1 1 2.75619e+09 2.75645e+09 2.75747e+09 2.75843e+09 0 0
335 1 0 2.76782e+09 2.76806e+09 2.76908e+09 2.7691e+09 1 1
336 1 1 2.77579e+09 2.77607e+09 2.77709e+09 2.77732e+09 0 0
337 1 0 2.78665e+09 2.7869e+09 2.78792e+09 2.79226e+09 1 1
338 1 0 2.79964e+09 2.7999e+09 2.80092e+09 2.806e+09 0 1
339 2 1 2.81266e+09 2.81291e+09 2.81393e+09 2.81447e+09 0 99
340 4 1 2.82167e+09 2.82193e+09 2.82295e+09 2.82367e+09 0 99
341 1 0 2.83093e+09 2.83118e+09 2.8322e+09 2.86446e+09 0 1
342 1 0 2.87092e+09 2.87117e+09 2.87219e+09 2.91589e+09 0 1
343 1 0 2.92259e+09 2.92283e+09 2.92385e+09 2.93321e+09 0 1
344 5 0 2.93974e+09 2.94e+09 2.94102e+09 2.98195e+09 0 0
345 5 0 2.98929e+09 2.98954e+09 2.99056e+09 2.99718e+09 1 0
346 5 0 3.00444e+09 3.0047e+09 3.00572e+09 3.01415e+09 1 0
347 5 0 3.02129e+09 3.02155e+09 3.02257e+09 3.02964e+09 1 0
348 1 1 3.03702e+09 3.03728e+09 3.0383e+09 3.04404e+09 0 0
349 4 0 3.05125e+09 3.0515e+09 3.05252e+09 3.0708e+09 0 99
350 5 1 3.07779e+09 3.07805e+09 3.07907e+09 3.26482e+09 0 1
351 5 0 3.27164e+09 3.2719e+09 3.27292e+09 3.52317e+09 0 0
352 5 0 3.53048e+09 3.53074e+09 3.53176e+09 3.5916e+09 1 0
353 5 0 3.59871e+09 3.59897e+09 3.59999e+09 3.63298e+09 1 0
354 5 0 3.64007e+09 3.64033e+09 3.64135e+09 3.64601e+09 1 0
355 1 1 3.65322e+09 3.65348e+09 3.6545e+09 3.89978e+09 0 0
356 5 0 3.90713e+09 3.90739e+09 3.90841e+09 4.2025e+09 0 0
357 1 0 4.21004e+09 4.21031e+09 4.21133e+09 4.24304e+09 0 1
358 3 0 4.24957e+09 4.24982e+09 4.25084e+09 4.25177e+09 0 99
359 4 1 4.25856e+09 4.25881e+09 4.25983e+09 4.2614e+09 0 99
360 1 0 4.26812e+09 4.26838e+09 4.2694e+09 4.27295e+09 0 1
361 5 0 4.27995e+09 4.28021e+09 4.28123e+09 4.28133e+09 0 0
362 5 1 4.28863e+09 4.28889e+09 4.28991e+09 3.3301e+06 1 1
363 1 0 1.10428e+07 1.12882e+07 1.23078e+07 1.36218e+07 0 1
364 1 1 2.07422e+07 2.1006e+07 2.20256e+07 3.71543e+07 0 0
365 1 0 4.44969e+07 4.47507e+07 4.57703e+07 8.43256e+07 1 1
366 1 1 9.09834e+07 9.12319e+07 9.22515e+07 9.6159e+07 0 0
367 1 1 1.06102e+08 1.0636e+08 1.0738e+08 1.12896e+08 1 0
368 1 1 1.2021e+08 1.20461e+08 1.2148e+08 1.60626e+08 1 0
369 1 1 1.67953e+08 1.68202e+08 1.69222e+08 2.0995e+08 1 0
370 5 1 2.17152e+08 2.17418e+08 2.18437e+08 2.23051e+08 0 1
371 1 0 2.2984e+08 2.30085e+08 2.31104e+08 2.6393e+08 0 1
372 2 0 2.70639e+08 2.70901e+08 2.71921e+08 3.2214e+08 0 99
373 5 0 3.29119e+08 3.29368e+08 3.30388e+08 4.45179e+08 0 0
374 5 0 4.52534e+08 4.52795e+08 4.53815e+08 4.6878e+08 1 0
375 5 1 4.75895e+08 4.76148e+08 4.77168e+08 4.80387e+08 1 1
376 5 0 4.87323e+08 4.87576e+08 4.88596e+08 4.88853e+08 0 0
377 5 1 4.96046e+08 4.96299e+08 4.97318e+08 5.47799e+08 1 1
378 5 0 5.55043e+08 5.55289e+08 5.56309e+08 5.91665e+08 0 0
379 5 0 5.98876e+08 5.99125e+08 6.00145e+08 6.19879e+08 1 0
380 5 0 6.2711e+08 6.27366e+08 6.28386e+08 6.36503e+08 1 0
381 5 0 6.43736e+08 6.43993e+08 6.45013e+08 7.1258e+08 1 0
382 2 0 7.20176e+08 7.20436e+08 7.21456e+08 7.42867e+08 0 99
383 2 0 7.50187e+08 7.50439e+08 7.51458e+08 7.82876e+08 0 99
384 1 0 7.90055e+08 7.90299e+08 7.91319e+08 8.25828e+08 0 1
385 4 1 8.32838e+08 8.3309e+08 8.34109e+08 8.34594e+08 0 99
386 1 0 8.41625e+08 8.41882e+08 8.42902e+08 8.6394e+08 0 1
387 5 0 8.711e+08 8.71349e+08 8.72369e+08 9.07078e+08 0 0
388 5 0 9.14388e+08 9.14636e+08 9.15655e+08 9.21904e+08 1 0
389 5 0 9.29287e+08 9.29543e+08 9.30562e+08 9.56655e+08 1 0
390 5 0 9.64263e+08 9.64523e+08 9.65542e+08 1.01072e+09 1 0
391 1 1 1.01852e+09 1.01877e+09 1.01979e+09 1.02119e+09 0 0
392 5 0 1.0285e+09 1.02875e+09 1.02977e+09 1.03794e+09 0 0
393 1 1 1.04552e+09 1.04578e+09 1.0468e+09 1.04967e+09 0 0
394 1 0 1.057e+09 1.05726e+09 1.05828e+09 1.05995e+09 0 1
395 5 1 1.06733e+09 1.06759e+09 1.06861e+09 1.0861e+09 0 1
396 5 0 1.0936e+09 1.09386e+09 1.09488e+09 1.10291e+09 0 0
397 5 0 1.11045e+09 1.1107e+09 1.11172e+09 1.12898e+09 1 0
398 5 0 1.13682e+09 1.13707e+09 1.13809e+09 1.14331e+09 1 0
399 5 1 1.15119e+09 1.15143e+09 1.15245e+09 1.15281e+09 1 1
400 2 1 1.16041e+09 1.16067e+09 1.16169e+09 1.16879e+09 0 99
401 4 0 1.1764e+09 1.17664e+09 1.17766e+09 1.18244e+09 0 99
402 3 0 1.18972e+09 1.18997e+09 1.19099e+09 1.19139e+09 0 99
403 5 0 1.19908e+09 1.19934e+09 1.20036e+09 1.24528e+09 0 0
404 5 1 1.2529e+09 1.25315e+09 1.25417e+09 1.50612e+09 1 1
405 5 0 1.514e+09 1.51426e+09 1.51528e+09 1.51565e+09 0 0
406 5 1 1.52393e+09 1.52418e+09 1.5252e+09 1.53559e+09 1 1
407 1 1 1.54407e+09 1.54432e+09 1.54534e+09 1.57586e+09 0 0
