trial trialType response stillTime stimOnset stimOffset respTime correctionTrial correct
001 2 1 3.47444e+06 3.74288e+06 4.7625e+06 4.37155e+08 0
001 002 1 0 4.40518e+08 4.40771e+08 4.41791e+08 4.44219e+08 0
001 003 1 1 4.50415e+08 4.5067e+08 4.5169e+08 4.51786e+08 0
000 004 1 1 4.60232e+08 4.60478e+08 4.61497e+08 4.61525e+08 1
000 005 1 0 4.70131e+08 4.70391e+08 4.71411e+08 4.75313e+08 1
001 006 1 0 4.82304e+08 4.82551e+08 4.83571e+08 4.8386e+08 0
001 007 2 1 4.87185e+08 4.87443e+08 4.88463e+08 4.89926e+08 0
001 008 2 0 4.97621e+08 4.97874e+08 4.98894e+08 5.02312e+08 0
000 009 2 0 5.09768e+08 5.10018e+08 5.11037e+08 5.17021e+08 1
000 010 2 1 5.24263e+08 5.24522e+08 5.25542e+08 5.25714e+08 1
001 011 1 0 5.28693e+08 5.28943e+08 5.29962e+08 5.31383e+08 0
001 012 2 0 5.35192e+08 5.35434e+08 5.36454e+08 5.37793e+08 0
000 013 2 0 5.46011e+08 5.46259e+08 5.47279e+08 5.48954e+08 1
000 014 2 1 5.60153e+08 5.60406e+08 5.61425e+08 5.64546e+08 1
001 015 2 1 5.6757e+08 5.6783e+08 5.6885e+08 5.76705e+08 0
001 016 2 1 5.79245e+08 5.79507e+08 5.80527e+08 5.81323e+08 0
001 017 1 1 5.84323e+08 5.84574e+08 5.85594e+08 5.86585e+08 0
000 018 1 1 5.93856e+08 5.94115e+08 5.95134e+08 5.97883e+08 1
000 019 1 1 6.05267e+08 6.05519e+08 6.06538e+08 6.33497e+08 1
000 020 1 0 6.43087e+08 6.43342e+08 6.44362e+08 6.69451e+08 1
001 021 1 1 6.73127e+08 6.7339e+08 6.74409e+08 7.23551e+08 0
000 022 1 0 7.30747e+08 7.31012e+08 7.32032e+08 7.49188e+08 1
001 023 2 0 7.53632e+08 7.53887e+08 7.54906e+08 7.59611e+08 0
000 024 2 1 7.66802e+08 7.67054e+08 7.68074e+08 8.01007e+08 1
001 025 1 0 8.07837e+08 8.08096e+08 8.09116e+08 8.09249e+08 0
001 026 1 1 8.12227e+08 8.12476e+08 8.13495e+08 8.14235e+08 0
000 027 1 0 8.21369e+08 8.21619e+08 8.22639e+08 8.23764e+08 1
001 028 1 0 8.29635e+08 8.29885e+08 8.30905e+08 8.31115e+08 0
001 029 1 0 8.33969e+08 8.34213e+08 8.35232e+08 8.87481e+08 0
001 030 2 0 8.90345e+08 8.90603e+08 8.91622e+08 8.9312e+08 0
000 031 2 0 9.00254e+08 9.00505e+08 9.01524e+08 9.02941e+08 1
000 032 2 0 9.10297e+08 9.10545e+08 9.11565e+08 9.13252e+08 1
000 033 2 1 9.2029e+08 9.20563e+08 9.21583e+08 9.25122e+08 1
001 034 2 1 9.32108e+08 9.3237e+08 9.33389e+08 9.38413e+08 0
001 035 2 0 9.422e+08 9.42454e+08 9.43473e+08 9.45734e+08 0
000 036 2 0 9.53899e+08 9.54142e+08 9.55162e+08 9.56617e+08 1
000 037 2 0 9.64137e+08 9.64388e+08 9.65408e+08 9.65495e+08 1
000 038 2 1 9.72894e+08 9.73137e+08 9.74156e+08 9.74604e+08 1
001 039 2 1 9.81505e+08 9.8176e+08 9.8278e+08 9.82974e+08 0
001 040 2 0 9.88677e+08 9.8894e+08 9.8996e+08 9.9122e+08 0
000 041 2 1 9.98959e+08 9.99225e+08 1.00024e+09 1.00025e+09 1
001 042 2 1 1.00411e+09 1.00435e+09 1.00537e+09 1.00605e+09 0
001 043 1 0 1.01111e+09 1.01137e+09 1.01239e+09 1.01246e+09 0
001 044 1 1 1.01866e+09 1.01892e+09 1.01994e+09 1.02001e+09 0
000 045 1 1 1.02796e+09 1.02821e+09 1.02923e+09 1.03285e+09 1
000 046 1 1 1.0403e+09 1.04055e+09 1.04157e+09 1.04162e+09 1
000 047 1 1 1.05009e+09 1.05035e+09 1.05137e+09 1.05314e+09 1
000 048 2 0 1.06084e+09 1.06109e+09 1.06211e+09 1.06431e+09 0
000 049 1 0 1.07507e+09 1.07533e+09 1.07635e+09 1.07981e+09 0
001 050 1 0 1.08273e+09 1.08299e+09 1.08401e+09 1.09617e+09 0
001 051 1 1 1.10038e+09 1.10063e+09 1.10165e+09 1.10695e+09 0
000 052 1 0 1.11892e+09 1.11917e+09 1.12019e+09 1.12392e+09 1
001 053 1 0 1.12669e+09 1.12695e+09 1.12797e+09 1.13515e+09 0
001 054 2 0 1.13817e+09 1.13843e+09 1.13945e+09 1.14254e+09 0
000 055 2 1 1.14974e+09 1.14999e+09 1.15101e+09 1.1559e+09 1
001 056 2 0 1.1644e+09 1.16466e+09 1.16568e+09 1.16568e+09 0
000 057 2 1 1.17468e+09 1.17493e+09 1.17595e+09 1.17598e+09 1
001 058 2 0 1.17977e+09 1.18002e+09 1.18104e+09 1.18107e+09 0
000 059 2 0 1.18812e+09 1.18837e+09 1.18939e+09 1.1894e+09 1
000 060 2 1 1.20114e+09 1.20139e+09 1.20241e+09 1.20484e+09 1
001 061 2 1 1.20915e+09 1.20941e+09 1.21043e+09 1.21087e+09 0
001 062 2 0 1.21468e+09 1.21494e+09 1.21596e+09 1.2165e+09 0
000 063 2 0 1.22358e+09 1.22384e+09 1.22486e+09 1.22792e+09 1
000 064 2 1 1.23642e+09 1.23668e+09 1.2377e+09 1.23789e+09 1
001 065 1 1 1.24726e+09 1.24752e+09 1.24854e+09 1.25155e+09 0
000 066 1 1 1.25893e+09 1.25919e+09 1.26021e+09 1.26127e+09 1
000 067 1 1 1.2693e+09 1.26955e+09 1.27057e+09 1.27066e+09 1
000 068 1 1 1.27811e+09 1.27837e+09 1.27939e+09 1.27987e+09 1
000 069 2 1 1.28879e+09 1.28904e+09 1.29006e+09 1.29225e+09 0
001 070 1 1 1.30573e+09 1.30599e+09 1.30701e+09 1.31026e+09 0
000 071 1 1 1.32026e+09 1.32053e+09 1.32155e+09 1.32298e+09 1
000 072 1 1 1.33668e+09 1.33693e+09 1.33795e+09 1.34035e+09 1
000 073 1 1 1.34752e+09 1.34778e+09 1.3488e+09 1.35261e+09 1
000 074 2 0 1.35997e+09 1.36022e+09 1.36124e+09 1.36599e+09 0
000 075 1 1 1.37368e+09 1.37393e+09 1.37495e+09 1.378e+09 0
000 076 1 0 1.3968e+09 1.39706e+09 1.39808e+09 1.40332e+09 0
001 077 1 1 1.40741e+09 1.40767e+09 1.40869e+09 1.40925e+09 0
000 078 1 1 1.41631e+09 1.41657e+09 1.41759e+09 1.42015e+09 1
000 079 1 1 1.42802e+09 1.42827e+09 1.42929e+09 1.42973e+09 1
000 080 1 1 1.43694e+09 1.43719e+09 1.43821e+09 1.44667e+09 1
000 081 1 0 1.45387e+09 1.45413e+09 1.45515e+09 1.46402e+09 0
001 082 1 0 1.47024e+09 1.47049e+09 1.47151e+09 1.47318e+09 0
001 083 2 0 1.48264e+09 1.4829e+09 1.48392e+09 1.48713e+09 0
000 084 2 0 1.49417e+09 1.49443e+09 1.49545e+09 1.4982e+09 1
000 085 2 1 1.5067e+09 1.50695e+09 1.50797e+09 1.50982e+09 1
001 086 1 1 1.51718e+09 1.51742e+09 1.51844e+09 1.51848e+09 0
000 087 1 1 1.52686e+09 1.5271e+09 1.52812e+09 1.52863e+09 1
000 088 1 0 1.53606e+09 1.53632e+09 1.53734e+09 1.53776e+09 1
001 089 2 0 1.5473e+09 1.54755e+09 1.54857e+09 1.54986e+09 0
000 090 2 0 1.56e+09 1.56026e+09 1.56128e+09 1.56214e+09 1
000 091 2 0 1.56936e+09 1.56961e+09 1.57063e+09 1.5721e+09 1
000 092 2 0 1.57926e+09 1.57952e+09 1.58054e+09 1.58222e+09 1
000 093 1 0 1.58933e+09 1.58958e+09 1.5906e+09 1.591e+09 0
001 094 1 1 1.59386e+09 1.59411e+09 1.59513e+09 1.59548e+09 0
000 095 1 0 1.60278e+09 1.60304e+09 1.60405e+09 1.60589e+09 1
001 096 1 0 1.61135e+09 1.61161e+09 1.61263e+09 1.61569e+09 0
001 097 2 1 1.61838e+09 1.61862e+09 1.61964e+09 1.61999e+09 0
001 098 2 0 1.62683e+09 1.62708e+09 1.6281e+09 1.62848e+09 0
000 099 2 0 1.63595e+09 1.63621e+09 1.63723e+09 1.639e+09 1
000 100 2 0 1.64756e+09 1.64782e+09 1.64884e+09 1.65184e+09 1
000 101 2 0 1.65984e+09 1.6601e+09 1.66112e+09 1.66151e+09 1
000 102 1 1 1.669e+09 1.66925e+09 1.67027e+09 1.67048e+09 0
000 103 2 1 1.68032e+09 1.68058e+09 1.6816e+09 1.68192e+09 0
001 104 1 0 1.68937e+09 1.68963e+09 1.69065e+09 1.6907e+09 0
001 105 2 1 1.69733e+09 1.69758e+09 1.6986e+09 1.69872e+09 0
001 106 2 0 1.7052e+09 1.70546e+09 1.70648e+09 1.70649e+09 0
000 107 2 1 1.71582e+09 1.71607e+09 1.71709e+09 1.71724e+09 1
001 108 2 1 1.72242e+09 1.72267e+09 1.72369e+09 1.72828e+09 0
001 109 1 1 1.73514e+09 1.73539e+09 1.73641e+09 1.73903e+09 0
000 110 1 0 1.74646e+09 1.74671e+09 1.74773e+09 1.74915e+09 1
001 111 1 1 1.75358e+09 1.75383e+09 1.75485e+09 1.75545e+09 0
000 112 1 0 1.76272e+09 1.76297e+09 1.76399e+09 1.7641e+09 1
001 113 2 0 1.7694e+09 1.76966e+09 1.77068e+09 1.77335e+09 0
000 114 2 1 1.78056e+09 1.78081e+09 1.78183e+09 1.78241e+09 1
001 115 1 0 1.78883e+09 1.78907e+09 1.79009e+09 1.7902e+09 0
001 116 2 0 1.79492e+09 1.79518e+09 1.7962e+09 1.7969e+09 0
000 117 2 1 1.8046e+09 1.80486e+09 1.80588e+09 1.81027e+09 1
001 118 1 1 1.81488e+09 1.81514e+09 1.81615e+09 1.81616e+09 0
000 119 1 0 1.82424e+09 1.8245e+09 1.82552e+09 1.82714e+09 1
001 120 2 0 1.83216e+09 1.83242e+09 1.83344e+09 1.83941e+09 0
000 121 2 1 1.84755e+09 1.8478e+09 1.84882e+09 1.85009e+09 1
001 122 1 0 1.85262e+09 1.85287e+09 1.85389e+09 1.85389e+09 0
001 123 2 0 1.85659e+09 1.85684e+09 1.85786e+09 1.86722e+09 0
000 124 2 1 1.87434e+09 1.8746e+09 1.87562e+09 1.88051e+09 1
001 125 1 0 1.88337e+09 1.88363e+09 1.88465e+09 1.88559e+09 0
001 126 2 0 1.88931e+09 1.88957e+09 1.89059e+09 1.89146e+09 0
000 127 2 1 1.89859e+09 1.89884e+09 1.89986e+09 1.90782e+09 1
001 128 1 1 1.91122e+09 1.91147e+09 1.91249e+09 1.91299e+09 0
000 129 1 1 1.92161e+09 1.92187e+09 1.92288e+09 1.92298e+09 1
000 130 1 0 1.93049e+09 1.93074e+09 1.93176e+09 1.93457e+09 1
001 131 1 0 1.93984e+09 1.94009e+09 1.94111e+09 1.94374e+09 0
001 132 1 0 1.9475e+09 1.94775e+09 1.94877e+09 1.95029e+09 0
001 133 2 1 1.95495e+09 1.9552e+09 1.95622e+09 1.9588e+09 0
001 134 2 0 1.9647e+09 1.96494e+09 1.96596e+09 1.97478e+09 0
000 135 2 0 1.98318e+09 1.98344e+09 1.98446e+09 1.98907e+09 1
000 136 2 0 1.99642e+09 1.99667e+09 1.99769e+09 1.99886e+09 1
000 137 2 0 2.00724e+09 2.00749e+09 2.00851e+09 2.00852e+09 1
000 138 2 0 2.01886e+09 2.01911e+09 2.02013e+09 2.02144e+09 0
000 139 1 0 2.0287e+09 2.02895e+09 2.02997e+09 2.03067e+09 0
001 140 1 1 2.03789e+09 2.03815e+09 2.03917e+09 2.04241e+09 0
000 141 1 0 2.0508e+09 2.05105e+09 2.05207e+09 2.05298e+09 1
001 142 1 0 2.06121e+09 2.06147e+09 2.06249e+09 2.06574e+09 0
001 143 2 0 2.07004e+09 2.0703e+09 2.07132e+09 2.09167e+09 0
000 144 2 0 2.09876e+09 2.09902e+09 2.10004e+09 2.11288e+09 1
000 145 2 0 2.12143e+09 2.12168e+09 2.1227e+09 2.15389e+09 1
000 146 2 0 2.16122e+09 2.16147e+09 2.16249e+09 2.19573e+09 1
000 147 1 1 2.20366e+09 2.20391e+09 2.20493e+09 2.21677e+09 0
000 148 2 1 2.22405e+09 2.2243e+09 2.22532e+09 2.22797e+09 0
001 149 2 0 2.23398e+09 2.23423e+09 2.23525e+09 2.23891e+09 0
000 150 2 0 2.24718e+09 2.24743e+09 2.24845e+09 2.2501e+09 1
000 151 2 1 2.25817e+09 2.25842e+09 2.25944e+09 2.27007e+09 1
001 152 2 0 2.2743e+09 2.27455e+09 2.27557e+09 2.27805e+09 0
000 153 2 1 2.2864e+09 2.28665e+09 2.28767e+09 2.2881e+09 1
001 154 2 0 2.29406e+09 2.29432e+09 2.29534e+09 2.29534e+09 0
000 155 2 0 2.30567e+09 2.30594e+09 2.30696e+09 2.31001e+09 1
000 156 2 0 2.31983e+09 2.32008e+09 2.3211e+09 2.32194e+09 1
000 157 2 0 2.3307e+09 2.33094e+09 2.33196e+09 2.33501e+09 1
000 158 2 1 2.34237e+09 2.34263e+09 2.34365e+09 2.34721e+09 0
001 159 2 0 2.36472e+09 2.36496e+09 2.36598e+09 2.37176e+09 0
000 160 2 0 2.37918e+09 2.37944e+09 2.38046e+09 2.38069e+09 1
000 161 2 0 2.38785e+09 2.3881e+09 2.38912e+09 2.39002e+09 1
000 162 2 1 2.39934e+09 2.39958e+09 2.4006e+09 2.40386e+09 1
001 163 2 1 2.41214e+09 2.41239e+09 2.41341e+09 2.41343e+09 0
001 164 2 0 2.42467e+09 2.42492e+09 2.42594e+09 2.42717e+09 0
000 165 2 0 2.43576e+09 2.43603e+09 2.43705e+09 2.43784e+09 1
000 166 2 0 2.44625e+09 2.4465e+09 2.44752e+09 2.44754e+09 1
000 167 2 0 2.4566e+09 2.45691e+09 2.45793e+09 2.4607e+09 1
000 168 1 1 2.46937e+09 2.46963e+09 2.47065e+09 2.47258e+09 0
000 169 2 0 2.48003e+09 2.48028e+09 2.4813e+09 2.48281e+09 0
000 170 1 0 2.48996e+09 2.49021e+09 2.49123e+09 2.49135e+09 0
001 171 1 0 2.50238e+09 2.50264e+09 2.50366e+09 2.50576e+09 0
001 172 1 1 2.51453e+09 2.51477e+09 2.51579e+09 2.51863e+09 0
000 173 1 1 2.52603e+09 2.52628e+09 2.5273e+09 2.52866e+09 1
000 174 1 1 2.5365e+09 2.53675e+09 2.53777e+09 2.53965e+09 1
000 175 1 1 2.54884e+09 2.54908e+09 2.5501e+09 2.55025e+09 1
000 176 2 0 2.55841e+09 2.55865e+09 2.55967e+09 2.56382e+09 0
000 177 1 0 2.57095e+09 2.57121e+09 2.57223e+09 2.57511e+09 0
001 178 1 1 2.57887e+09 2.57912e+09 2.58014e+09 2.58109e+09 0
000 179 1 0 2.58933e+09 2.58959e+09 2.59061e+09 2.59114e+09 1
001 180 2 0 2.59602e+09 2.59627e+09 2.59729e+09 2.60435e+09 0
000 181 2 0 2.61177e+09 2.61202e+09 2.61304e+09 2.6169e+09 1
000 182 2 0 2.62416e+09 2.62441e+09 2.62543e+09 2.62933e+09 1
000 183 2 0 2.63663e+09 2.63688e+09 2.6379e+09 2.64041e+09 1
000 184 1 1 2.64923e+09 2.64947e+09 2.65049e+09 2.65591e+09 0
000 185 2 1 2.66351e+09 2.66376e+09 2.66478e+09 2.66676e+09 0
001 186 1 1 2.67143e+09 2.67169e+09 2.67271e+09 2.68137e+09 0
000 187 1 0 2.69086e+09 2.69111e+09 2.69213e+09 2.69329e+09 1
001 188 2 0 2.69643e+09 2.69669e+09 2.6977e+09 2.6999e+09 0
000 189 2 0 2.70706e+09 2.7073e+09 2.70832e+09 2.70913e+09 1
000 190 2 0 2.72166e+09 2.72192e+09 2.72294e+09 2.72805e+09 1
000 191 2 0 2.73523e+09 2.73548e+09 2.7365e+09 2.75922e+09 1
000 192 2 0 2.76678e+09 2.76702e+09 2.76804e+09 2.80195e+09 0
000 193 2 0 2.80929e+09 2.80954e+09 2.81056e+09 2.86234e+09 0
000 194 2 0 2.86986e+09 2.87012e+09 2.87114e+09 2.88605e+09 0
000 195 1 0 2.89327e+09 2.89353e+09 2.89455e+09 2.93644e+09 0
001 196 1 0 2.93894e+09 2.93919e+09 2.94021e+09 2.98028e+09 0
001 197 2 0 2.98287e+09 2.98312e+09 2.98414e+09 2.98468e+09 0
000 198 2 0 2.99173e+09 2.99198e+09 2.993e+09 3.00326e+09 1
000 199 2 0 3.01077e+09 3.01103e+09 3.01205e+09 3.01685e+09 1
000 200 2 0 3.02404e+09 3.02429e+09 3.02531e+09 3.02549e+09 1
000 201 2 0 3.03282e+09 3.03307e+09 3.03409e+09 3.05569e+09 0
000 202 1 1 3.06307e+09 3.06333e+09 3.06435e+09 3.07952e+09 0
000 203 1 0 3.08692e+09 3.08718e+09 3.0882e+09 3.08826e+09 0
001 204 2 0 3.09186e+09 3.09212e+09 3.09314e+09 3.1061e+09 0
000 205 2 0 3.11333e+09 3.11358e+09 3.1146e+09 3.12432e+09 1
000 206 2 0 3.13167e+09 3.13193e+09 3.13295e+09 3.14434e+09 1
000 207 2 0 3.15187e+09 3.15213e+09 3.15315e+09 3.17689e+09 1
000 208 1 0 3.18442e+09 3.18468e+09 3.1857e+09 3.18854e+09 0
001 209 2 0 3.19218e+09 3.19243e+09 3.19345e+09 3.19708e+09 0
000 210 2 1 3.20452e+09 3.20476e+09 3.20578e+09 3.27587e+09 1
001 211 2 1 3.2784e+09 3.27864e+09 3.27966e+09 3.27983e+09 0
001 212 1 1 3.28653e+09 3.28678e+09 3.2878e+09 3.28823e+09 0
000 213 1 0 3.29608e+09 3.29633e+09 3.29735e+09 3.30877e+09 1
001 214 2 0 3.31146e+09 3.31171e+09 3.31273e+09 3.31977e+09 0
000 215 2 1 3.32697e+09 3.32723e+09 3.32825e+09 3.34493e+09 1
001 216 1 0 3.34883e+09 3.34909e+09 3.35011e+09 3.35217e+09 0
001 217 2 0 3.35779e+09 3.35804e+09 3.35906e+09 3.36513e+09 0
000 218 2 0 3.37254e+09 3.37279e+09 3.37381e+09 3.39118e+09 1
000 219 2 0 3.39854e+09 3.39879e+09 3.39981e+09 3.41988e+09 1
000 220 2 0 3.42703e+09 3.42728e+09 3.4283e+09 3.43706e+09 1
000 221 2 0 3.44542e+09 3.44568e+09 3.4467e+09 3.44719e+09 0
000 222 2 0 3.45467e+09 3.45491e+09 3.45593e+09 3.47006e+09 0
000 223 1 1 3.47765e+09 3.47791e+09 3.47893e+09 3.51154e+09 0
000 224 2 0 3.51891e+09 3.51917e+09 3.52019e+09 3.52202e+09 0
000 225 2 0 3.52938e+09 3.52963e+09 3.53065e+09 3.53119e+09 0
000 226 2 0 3.53873e+09 3.53897e+09 3.53999e+09 3.54061e+09 0
000 227 1 1 3.54983e+09 3.55007e+09 3.55109e+09 3.5588e+09 0
000 228 2 0 3.56752e+09 3.56778e+09 3.5688e+09 3.58859e+09 0
000 229 2 0 3.59574e+09 3.59599e+09 3.59701e+09 3.60932e+09 0
000 230 2 0 3.61672e+09 3.61699e+09 3.61801e+09 3.62201e+09 0
000 231 2 0 3.62949e+09 3.62975e+09 3.63077e+09 3.65352e+09 0
000 232 2 1 3.66066e+09 3.66092e+09 3.66194e+09 3.66241e+09 0
001 233 2 1 3.66895e+09 3.66921e+09 3.67023e+09 3.67213e+09 0
001 234 1 0 3.67766e+09 3.67791e+09 3.67893e+09 3.69435e+09 0
001 235 1 1 3.69711e+09 3.69737e+09 3.69839e+09 3.69877e+09 0
000 236 1 0 3.70609e+09 3.70633e+09 3.70735e+09 3.71629e+09 1
001 237 2 0 3.72101e+09 3.72127e+09 3.72229e+09 3.76347e+09 0
000 238 2 0 3.77053e+09 3.77077e+09 3.77179e+09 3.80834e+09 1
000 239 2 1 3.81555e+09 3.81581e+09 3.81683e+09 3.817e+09 1
001 240 2 0 3.82217e+09 3.82244e+09 3.82345e+09 3.86679e+09 0
000 241 2 0 3.87513e+09 3.87537e+09 3.87639e+09 3.87816e+09 1
000 242 2 0 3.8858e+09 3.88605e+09 3.88707e+09 3.88917e+09 1
000 243 2 0 3.89655e+09 3.89681e+09 3.89783e+09 3.94037e+09 1
000 244 1 0 3.9475e+09 3.94774e+09 3.94876e+09 3.96013e+09 0
001 245 2 0 3.9666e+09 3.96685e+09 3.96787e+09 3.97798e+09 0
000 246 2 0 3.98502e+09 3.98526e+09 3.98628e+09 3.98666e+09 1
000 247 2 0 3.99387e+09 3.99412e+09 3.99514e+09 4.0058e+09 1
000 248 2 0 4.01294e+09 4.01319e+09 4.01421e+09 4.04022e+09 1
000 249 2 1 4.05083e+09 4.0511e+09 4.05212e+09 4.06818e+09 0
001 250 1 1 4.07363e+09 4.07389e+09 4.07491e+09 4.08104e+09 0
000 251 1 0 4.08981e+09 4.09006e+09 4.09108e+09 4.10183e+09 1
001 252 2 0 4.10447e+09 4.10472e+09 4.10574e+09 4.10901e+09 0
000 253 2 0 4.11636e+09 4.11662e+09 4.11764e+09 4.15812e+09 1
000 254 2 0 4.1719e+09 4.17216e+09 4.17318e+09 4.17754e+09 1
000 255 2 0 4.18705e+09 4.18731e+09 4.18833e+09 4.23584e+09 1
000 256 2 0 4.24842e+09 4.24868e+09 4.2497e+09 4.25352e+09 0
000 257 1 0 4.26083e+09 4.26109e+09 4.26211e+09 4.26526e+09 0
001 258 1 0 4.268e+09 4.26825e+09 4.26927e+09 4.27363e+09 0
001 259 1 1 4.27616e+09 4.2764e+09 4.27742e+09 4.28883e+09 0
000 260 1 0 907276 1.16203e+06 2.18164e+06 8.27148e+06 1
001 261 1 0 1.12077e+07 1.1462e+07 1.24816e+07 1.36927e+07 0
001 262 1 0 1.85774e+07 1.88247e+07 1.98444e+07 2.46057e+07 0
001 263 1 0 2.83228e+07 2.85788e+07 2.95984e+07 4.96753e+07 0
001 264 1 0 5.30289e+07 5.32844e+07 5.4304e+07 6.11948e+07 0
001 265 1 0 6.41157e+07 6.43619e+07 6.53815e+07 7.5135e+07 0
001 266 1 1 7.78629e+07 7.8119e+07 7.91386e+07 8.0597e+07 0
000 267 1 0 8.76862e+07 8.79392e+07 8.89588e+07 8.92177e+07 1
001 268 1 1 9.19573e+07 9.22088e+07 9.32285e+07 9.42338e+07 0
000 269 1 0 1.02017e+08 1.02269e+08 1.03289e+08 1.10145e+08 1
001 270 2 0 1.12878e+08 1.13135e+08 1.14155e+08 1.23009e+08 0
000 271 2 0 1.30355e+08 1.30606e+08 1.31626e+08 1.32483e+08 1
000 272 2 0 1.39543e+08 1.39795e+08 1.40814e+08 1.43416e+08 1
000 273 2 0 1.50656e+08 1.50915e+08 1.51935e+08 1.57078e+08 1
000 274 1 0 1.64424e+08 1.6468e+08 1.65699e+08 1.72475e+08 0
001 275 1 0 1.75037e+08 1.7529e+08 1.76309e+08 1.80569e+08 0
001 276 1 0 1.83174e+08 1.83424e+08 1.84443e+08 2.01089e+08 0
001 277 2 0 2.03727e+08 2.03978e+08 2.04998e+08 2.09294e+08 0
000 278 2 1 2.16534e+08 2.16782e+08 2.17801e+08 2.18986e+08 1
001 279 1 1 2.21539e+08 2.21789e+08 2.22809e+08 2.72505e+08 0
000 280 1 1 2.79697e+08 2.79954e+08 2.80974e+08 2.85598e+08 1
000 281 1 0 2.93104e+08 2.93358e+08 2.94377e+08 3.77707e+08 1
001 282 1 0 3.81213e+08 3.81463e+08 3.82482e+08 4.18538e+08 0
001 283 1 0 4.21089e+08 4.21336e+08 4.22356e+08 4.65029e+08 0
001 284 2 0 4.69578e+08 4.6984e+08 4.7086e+08 4.78003e+08 0
000 285 2 0 4.85045e+08 4.8529e+08 4.86309e+08 4.95715e+08 1
000 286 2 0 5.03491e+08 5.03734e+08 5.04754e+08 5.18976e+08 1
000 287 2 0 5.26247e+08 5.26491e+08 5.27511e+08 5.39645e+08 1
000 288 2 0 5.468e+08 5.47064e+08 5.48084e+08 5.5736e+08 0
000 289 2 0 5.64827e+08 5.65075e+08 5.66094e+08 5.90609e+08 0
000 290 2 0 5.98e+08 5.98252e+08 5.99272e+08 6.36005e+08 0
000 291 2 0 6.433e+08 6.43544e+08 6.44563e+08 6.46401e+08 0
000 292 1 1 6.56692e+08 6.56938e+08 6.57957e+08 6.60575e+08 0
000 293 2 0 6.67716e+08 6.67967e+08 6.68986e+08 6.69069e+08 0
000 294 1 0 6.76642e+08 6.76896e+08 6.77916e+08 6.82892e+08 0
001 295 2 0 6.89037e+08 6.89286e+08 6.90306e+08 6.91377e+08 0
000 296 2 1 7.04295e+08 7.04553e+08 7.05572e+08 7.17699e+08 1
001 297 1 0 7.2048e+08 7.20726e+08 7.21746e+08 7.33633e+08 0
001 298 1 0 7.36457e+08 7.36702e+08 7.37721e+08 7.83296e+08 0
001 299 2 0 7.86081e+08 7.86344e+08 7.87364e+08 7.92311e+08 0
000 300 2 0 7.99526e+08 7.99777e+08 8.00796e+08 8.11134e+08 1
000 301 2 0 8.18228e+08 8.18481e+08 8.195e+08 8.21302e+08 1
000 302 2 0 8.28563e+08 8.28809e+08 8.29828e+08 8.93713e+08 1
000 303 2 0 9.0095e+08 9.01199e+08 9.02219e+08 9.02636e+08 0
000 304 1 0 9.10095e+08 9.10352e+08 9.11371e+08 9.98972e+08 0
001 305 1 1 1.0057e+09 1.00595e+09 1.00697e+09 1.09032e+09 0
000 306 1 0 1.0978e+09 1.09804e+09 1.09906e+09 1.10138e+09 1
001 307 2 0 1.10503e+09 1.10529e+09 1.10631e+09 1.1075e+09 0
000 308 2 0 1.1174e+09 1.11766e+09 1.11868e+09 1.128e+09 1
000 309 2 0 1.13505e+09 1.1353e+09 1.13632e+09 1.13657e+09 1
000 310 2 0 1.144e+09 1.14425e+09 1.14527e+09 1.14634e+09 1
000 311 1 0 1.15482e+09 1.15508e+09 1.1561e+09 1.15881e+09 0
001 312 1 0 1.16146e+09 1.1617e+09 1.16272e+09 1.17769e+09 0
001 313 1 0 1.18026e+09 1.18051e+09 1.18152e+09 1.2005e+09 0
001 314 1 0 1.20421e+09 1.20446e+09 1.20548e+09 1.20973e+09 0
001 315 2 1 1.2149e+09 1.21515e+09 1.21617e+09 1.2484e+09 0
001 316 1 0 1.25198e+09 1.25223e+09 1.25325e+09 1.26823e+09 0
001 317 2 0 1.27166e+09 1.27191e+09 1.27293e+09 1.27899e+09 0
000 318 2 0 1.28654e+09 1.28679e+09 1.28781e+09 1.29178e+09 1
000 319 2 0 1.29927e+09 1.29952e+09 1.30054e+09 1.30631e+09 1
000 320 2 0 1.31671e+09 1.31697e+09 1.31799e+09 1.3208e+09 1
000 321 2 0 1.32821e+09 1.32846e+09 1.32948e+09 1.33137e+09 0
000 322 1 0 1.3387e+09 1.33895e+09 1.33997e+09 1.34307e+09 0
001 323 2 0 1.34575e+09 1.34601e+09 1.34702e+09 1.34818e+09 0
000 324 2 0 1.3553e+09 1.35555e+09 1.35657e+09 1.36473e+09 1
000 325 2 0 1.37199e+09 1.37224e+09 1.37326e+09 1.38083e+09 1
000 326 2 0 1.38811e+09 1.38836e+09 1.38938e+09 1.41251e+09 1
000 327 1 0 1.41974e+09 1.41998e+09 1.421e+09 1.43109e+09 0
001 328 2 0 1.43435e+09 1.4346e+09 1.43562e+09 1.43715e+09 0
000 329 2 0 1.44421e+09 1.44445e+09 1.44547e+09 1.44635e+09 1
000 330 2 0 1.45348e+09 1.45372e+09 1.45474e+09 1.46037e+09 1
000 331 2 0 1.46767e+09 1.46792e+09 1.46894e+09 1.47052e+09 1
000 332 2 0 1.47797e+09 1.47822e+09 1.47924e+09 1.48884e+09 0
000 333 1 0 1.4963e+09 1.49655e+09 1.49757e+09 1.50246e+09 0
001 334 1 0 1.5064e+09 1.50667e+09 1.50769e+09 1.51114e+09 0
001 335 1 0 1.514e+09 1.51426e+09 1.51527e+09 1.52068e+09 0
001 336 1 0 1.52339e+09 1.52365e+09 1.52467e+09 1.52469e+09 0
001 337 2 0 1.52822e+09 1.52847e+09 1.52949e+09 1.53641e+09 0
000 338 2 0 1.54391e+09 1.54416e+09 1.54518e+09 1.55034e+09 1
000 339 2 0 1.55807e+09 1.55833e+09 1.55935e+09 1.56073e+09 1
000 340 2 0 1.56821e+09 1.56847e+09 1.56948e+09 1.56958e+09 1
000 341 1 1 1.57802e+09 1.57829e+09 1.57931e+09 1.5838e+09 0
000 342 2 0 1.59242e+09 1.59268e+09 1.5937e+09 1.60385e+09 0
000 343 1 0 1.61339e+09 1.61364e+09 1.61466e+09 1.72477e+09 0
001 344 1 1 1.72732e+09 1.72758e+09 1.7286e+09 1.76265e+09 0
000 345 1 1 1.77051e+09 1.77076e+09 1.77178e+09 1.77218e+09 1
000 346 1 0 1.77947e+09 1.77973e+09 1.78075e+09 1.78751e+09 1
001 347 2 0 1.79118e+09 1.79143e+09 1.79245e+09 1.80212e+09 0
000 348 2 0 1.80957e+09 1.80982e+09 1.81084e+09 1.85095e+09 1
000 349 2 0 1.85803e+09 1.85828e+09 1.8593e+09 1.87256e+09 1
000 350 2 0 1.87995e+09 1.88021e+09 1.88123e+09 1.88124e+09 1
000 351 2 0 1.88846e+09 1.88871e+09 1.88973e+09 1.8931e+09 0
000 352 1 0 1.90101e+09 1.90127e+09 1.90229e+09 1.90939e+09 0
001 353 1 0 1.91223e+09 1.91248e+09 1.9135e+09 1.91964e+09 0
001 354 1 0 1.92355e+09 1.92381e+09 1.92483e+09 1.9371e+09 0
001 355 1 0 1.93998e+09 1.94023e+09 1.94125e+09 1.95302e+09 0
001 356 2 0 1.95596e+09 1.95621e+09 1.95723e+09 1.95748e+09 0
000 357 2 1 1.96638e+09 1.96662e+09 1.96764e+09 1.96768e+09 1
001 358 1 0 1.97095e+09 1.9712e+09 1.97222e+09 1.9741e+09 0
001 359 2 0 1.97684e+09 1.97709e+09 1.97811e+09 1.98309e+09 0
000 360 2 1 1.99381e+09 1.99406e+09 1.99508e+09 2.00155e+09 1
001 361 2 0 2.00411e+09 2.00436e+09 2.00538e+09 2.01938e+09 0
000 362 2 0 2.02651e+09 2.02677e+09 2.02779e+09 2.02831e+09 1
000 363 2 1 2.03577e+09 2.03602e+09 2.03704e+09 2.03755e+09 1
001 364 2 1 2.04019e+09 2.04044e+09 2.04146e+09 2.04713e+09 0
001 365 1 0 2.05126e+09 2.05151e+09 2.05253e+09 2.05307e+09 0
001 366 2 0 2.05605e+09 2.05631e+09 2.05733e+09 2.09332e+09 0
000 367 2 1 2.10334e+09 2.10359e+09 2.10461e+09 2.10532e+09 1
001 368 1 0 2.1081e+09 2.10836e+09 2.10938e+09 2.11149e+09 0
001 369 2 0 2.1144e+09 2.11465e+09 2.11567e+09 2.12861e+09 0
000 370 2 0 2.13596e+09 2.13621e+09 2.13722e+09 2.1415e+09 1
000 371 2 0 2.14901e+09 2.14926e+09 2.15028e+09 2.15031e+09 1
000 372 2 0 2.1585e+09 2.15875e+09 2.15977e+09 2.16558e+09 1
000 373 1 0 2.17291e+09 2.17316e+09 2.17418e+09 2.17982e+09 0
001 374 1 0 2.18271e+09 2.18296e+09 2.18397e+09 2.18676e+09 0
001 375 1 0 2.19513e+09 2.19538e+09 2.1964e+09 2.22551e+09 0
001 376 1 0 2.22849e+09 2.22874e+09 2.22976e+09 2.23593e+09 0
001 377 1 0 2.24497e+09 2.24522e+09 2.24624e+09 2.2716e+09 0
001 378 2 1 2.27454e+09 2.27479e+09 2.27581e+09 2.29535e+09 0
001 379 1 1 2.3009e+09 2.30115e+09 2.30217e+09 2.3023e+09 0
000 380 1 0 2.30947e+09 2.30972e+09 2.31074e+09 2.32658e+09 1
001 381 1 0 2.32956e+09 2.32981e+09 2.33083e+09 2.39061e+09 0
001 382 1 0 2.39322e+09 2.39348e+09 2.3945e+09 2.40703e+09 0
001 383 1 0 2.40999e+09 2.41024e+09 2.41126e+09 2.41203e+09 0
001 384 2 0 2.41787e+09 2.41813e+09 2.41915e+09 2.42795e+09 0
000 385 2 0 2.43672e+09 2.43698e+09 2.438e+09 2.44122e+09 1
000 386 2 0 2.44847e+09 2.44874e+09 2.44976e+09 2.46473e+09 1
000 387 2 0 2.47481e+09 2.47505e+09 2.47607e+09 2.48163e+09 1
000 388 2 1 2.48892e+09 2.48916e+09 2.49018e+09 2.50409e+09 0
001 389 1 0 2.507e+09 2.50725e+09 2.50827e+09 2.50954e+09 0
001 390 2 0 2.51615e+09 2.5164e+09 2.51742e+09 2.53768e+09 0
000 391 2 0 2.54474e+09 2.54498e+09 2.546e+09 2.55132e+09 1
000 392 2 0 2.55861e+09 2.55886e+09 2.55988e+09 2.56596e+09 1
000 393 2 0 2.573e+09 2.57325e+09 2.57427e+09 2.62344e+09 1
000 394 1 0 2.63069e+09 2.63095e+09 2.63197e+09 2.63254e+09 0
001 395 2 0 2.63815e+09 2.63841e+09 2.63943e+09 2.64776e+09 0
000 396 2 0 2.65523e+09 2.65548e+09 2.6565e+09 2.65721e+09 1
000 397 2 0 2.66451e+09 2.66477e+09 2.66579e+09 2.70348e+09 1
000 398 2 0 2.71222e+09 2.71247e+09 2.71349e+09 2.72528e+09 1
000 399 1 0 2.73267e+09 2.73293e+09 2.73395e+09 2.74016e+09 0
001 400 2 1 2.74281e+09 2.74307e+09 2.74409e+09 2.75068e+09 0
001 