trial trialType response stillTime stimOnset stimOffset respTime correctionTrial correct
001 1 0 6.78196e+06 7.09725e+06 8.11687e+06 9.4108e+06 0 1
002 2 1 1.83235e+07 1.85979e+07 1.96175e+07 2.03277e+07 0 1
003 2 1 2.9526e+07 2.98044e+07 3.0824e+07 3.38e+07 0 1
004 2 0 6.67935e+07 6.7038e+07 6.80576e+07 6.86472e+07 0 0
005 2 1 7.84886e+07 7.87322e+07 7.97518e+07 8.09473e+07 1 1
006 2 1 9.09302e+07 9.11774e+07 9.2197e+07 9.32132e+07 0 1
007 1 0 1.01819e+08 1.02072e+08 1.03092e+08 1.0405e+08 0 1
008 1 1 1.11286e+08 1.11538e+08 1.12558e+08 1.13721e+08 0 0
009 1 0 1.25194e+08 1.25447e+08 1.26467e+08 1.27289e+08 1 1
010 2 0 1.49956e+08 1.50209e+08 1.51229e+08 1.52523e+08 0 0
011 2 1 1.62328e+08 1.62595e+08 1.63614e+08 1.63711e+08 1 1
012 2 1 1.76714e+08 1.76971e+08 1.77991e+08 1.78371e+08 0 1
013 2 0 2.36551e+08 2.36814e+08 2.37834e+08 2.38614e+08 0 0
014 2 0 2.46773e+08 2.47023e+08 2.48043e+08 2.49176e+08 1 0
015 2 0 2.6015e+08 2.6041e+08 2.61429e+08 2.62007e+08 1 0
016 2 0 2.70185e+08 2.7045e+08 2.71469e+08 2.71785e+08 1 0
017 1 0 2.85335e+08 2.8558e+08 2.866e+08 2.91228e+08 0 1
018 1 1 2.93991e+08 2.94248e+08 2.95267e+08 2.97957e+08 0 0
019 1 0 3.05973e+08 3.06231e+08 3.07251e+08 3.07257e+08 1 1
020 1 0 3.09903e+08 3.1016e+08 3.11179e+08 3.14156e+08 0 1
021 2 1 3.21195e+08 3.21459e+08 3.22479e+08 3.24158e+08 0 1
022 1 1 3.27965e+08 3.28214e+08 3.29233e+08 3.30603e+08 0 0
023 1 0 3.38843e+08 3.39093e+08 3.40113e+08 3.40817e+08 1 1
024 2 0 3.45477e+08 3.45734e+08 3.46754e+08 3.47329e+08 0 0
025 2 1 3.54698e+08 3.54949e+08 3.55969e+08 3.57877e+08 1 1
026 2 0 3.64019e+08 3.64276e+08 3.65295e+08 3.65881e+08 0 0
027 2 0 3.74832e+08 3.75085e+08 3.76105e+08 3.78683e+08 1 0
028 2 0 3.85995e+08 3.86254e+08 3.87273e+08 3.88703e+08 1 0
029 2 0 4.03625e+08 4.03889e+08 4.04909e+08 4.07117e+08 1 0
030 1 1 4.22673e+08 4.22929e+08 4.23949e+08 4.24409e+08 0 0
031 2 0 4.33785e+08 4.34036e+08 4.35056e+08 4.35405e+08 0 0
032 2 1 4.42819e+08 4.4308e+08 4.441e+08 4.44174e+08 0 1
033 1 0 4.55951e+08 4.56215e+08 4.57235e+08 4.58211e+08 0 1
034 1 0 4.7557e+08 4.75836e+08 4.76855e+08 4.77291e+08 0 1
035 1 1 4.90105e+08 4.90355e+08 4.91374e+08 4.93467e+08 0 0
036 1 0 5.00631e+08 5.00892e+08 5.01912e+08 5.03251e+08 1 1
037 1 1 5.23979e+08 5.2423e+08 5.2525e+08 5.26593e+08 0 0
038 1 0 5.38209e+08 5.38471e+08 5.3949e+08 5.40604e+08 1 1
039 1 0 5.49682e+08 5.49938e+08 5.50958e+08 5.54172e+08 0 1
040 2 0 5.70728e+08 5.70978e+08 5.71997e+08 5.73025e+08 0 0
041 2 0 5.83447e+08 5.83695e+08 5.84715e+08 5.85802e+08 1 0
042 2 0 5.93109e+08 5.93372e+08 5.94392e+08 5.94913e+08 1 0
043 2 0 6.08742e+08 6.08994e+08 6.10014e+08 6.10035e+08 1 0
044 1 0 6.20765e+08 6.21017e+08 6.22037e+08 6.22998e+08 0 1
045 2 0 6.31239e+08 6.31499e+08 6.32519e+08 6.35957e+08 0 0
046 2 1 6.43988e+08 6.4424e+08 6.4526e+08 6.45285e+08 1 1
047 1 0 6.59342e+08 6.59602e+08 6.60622e+08 6.60843e+08 0 1
048 2 1 6.74126e+08 6.7438e+08 6.75399e+08 6.7717e+08 0 1
049 2 1 6.83307e+08 6.83565e+08 6.84584e+08 6.84651e+08 0 1
050 2 0 6.92164e+08 6.92418e+08 6.93437e+08 6.93761e+08 0 0
051 2 0 7.00793e+08 7.01049e+08 7.02069e+08 7.02179e+08 1 0
052 2 1 7.09362e+08 7.09623e+08 7.10642e+08 7.10715e+08 1 1
053 2 0 7.13488e+08 7.13749e+08 7.14768e+08 7.15738e+08 0 0
054 2 0 7.31828e+08 7.32088e+08 7.33108e+08 7.34416e+08 1 0
055 2 0 7.45032e+08 7.45291e+08 7.4631e+08 7.46649e+08 1 0
056 2 1 7.54691e+08 7.54948e+08 7.55967e+08 7.56814e+08 1 1
057 2 1 7.63992e+08 7.64242e+08 7.65262e+08 7.66723e+08 0 1
058 1 1 7.74373e+08 7.74631e+08 7.75651e+08 7.76538e+08 0 0
059 1 0 7.84071e+08 7.84327e+08 7.85346e+08 7.85845e+08 1 1
060 1 0 8.04369e+08 8.04637e+08 8.05656e+08 8.05842e+08 0 1
061 1 0 8.18926e+08 8.19179e+08 8.20199e+08 8.21135e+08 0 1
062 1 1 8.23856e+08 8.24107e+08 8.25126e+08 8.25135e+08 0 0
063 1 0 8.33518e+08 8.33767e+08 8.34787e+08 8.34848e+08 1 1
064 2 1 8.40332e+08 8.40591e+08 8.41611e+08 8.41892e+08 0 1
065 1 0 8.48609e+08 8.48871e+08 8.4989e+08 8.50862e+08 0 1
066 2 1 8.84193e+08 8.84453e+08 8.85472e+08 8.85535e+08 0 1
067 2 0 9.04249e+08 9.04507e+08 9.05527e+08 9.06099e+08 0 0
068 2 1 9.16639e+08 9.16892e+08 9.17911e+08 9.17948e+08 1 1
069 2 1 9.27458e+08 9.27716e+08 9.28736e+08 9.30318e+08 0 1
070 1 0 9.42407e+08 9.42662e+08 9.43681e+08 9.44081e+08 0 1
071 1 1 9.46941e+08 9.47199e+08 9.48219e+08 9.48232e+08 0 0
072 1 0 9.62868e+08 9.6312e+08 9.64139e+08 9.64191e+08 1 1
073 1 0 9.71049e+08 9.71303e+08 9.72323e+08 9.72353e+08 0 1
074 2 0 9.74831e+08 9.75088e+08 9.76107e+08 9.76696e+08 0 0
075 2 0 9.84101e+08 9.84362e+08 9.85381e+08 9.85733e+08 1 0
076 2 1 9.9497e+08 9.95223e+08 9.96243e+08 9.9903e+08 1 1
077 1 0 1.01262e+09 1.01288e+09 1.01389e+09 1.014e+09 0 1
078 1 0 1.0229e+09 1.02316e+09 1.02418e+09 1.02472e+09 0 1
079 1 0 1.03333e+09 1.03359e+09 1.03461e+09 1.03667e+09 0 1
080 2 0 1.04206e+09 1.04231e+09 1.04333e+09 1.04371e+09 0 0
081 2 0 1.05085e+09 1.05111e+09 1.05213e+09 1.0526e+09 1 0
082 2 1 1.05979e+09 1.06005e+09 1.06107e+09 1.06389e+09 1 1
083 1 0 1.07196e+09 1.07223e+09 1.07325e+09 1.07327e+09 0 1
084 2 1 1.07573e+09 1.076e+09 1.07702e+09 1.07711e+09 0 1
085 2 0 1.0796e+09 1.07986e+09 1.08088e+09 1.08119e+09 0 0
086 2 1 1.08843e+09 1.08868e+09 1.0897e+09 1.08992e+09 1 1
087 2 0 1.0926e+09 1.09286e+09 1.09388e+09 1.09427e+09 0 0
088 2 0 1.10877e+09 1.10903e+09 1.11005e+09 1.11035e+09 1 0
089 2 0 1.11794e+09 1.1182e+09 1.11922e+09 1.11961e+09 1 0
090 2 1 1.12729e+09 1.12753e+09 1.12855e+09 1.12917e+09 1 1
091 2 0 1.13665e+09 1.13691e+09 1.13793e+09 1.13812e+09 0 0
092 2 0 1.14993e+09 1.15019e+09 1.15121e+09 1.15239e+09 1 0
093 2 1 1.16353e+09 1.16378e+09 1.1648e+09 1.16581e+09 1 1
094 1 1 1.17336e+09 1.17362e+09 1.17464e+09 1.17685e+09 0 0
095 1 1 1.18755e+09 1.1878e+09 1.18882e+09 1.18884e+09 1 0
096 1 0 1.19648e+09 1.19673e+09 1.19775e+09 1.19838e+09 1 1
097 2 1 1.20337e+09 1.20362e+09 1.20464e+09 1.20465e+09 0 1
098 2 0 1.21465e+09 1.2149e+09 1.21592e+09 1.217e+09 0 0
099 2 0 1.23605e+09 1.2363e+09 1.23732e+09 1.24192e+09 1 0
100 2 1 1.25103e+09 1.25129e+09 1.25231e+09 1.25238e+09 1 1
101 2 1 1.25485e+09 1.25511e+09 1.25613e+09 1.25634e+09 0 1
102 1 1 1.27797e+09 1.27822e+09 1.27924e+09 1.2793e+09 0 0
103 1 0 1.29574e+09 1.296e+09 1.29702e+09 1.29704e+09 1 1
104 2 1 1.30513e+09 1.30539e+09 1.30641e+09 1.30642e+09 0 1
105 1 1 1.31106e+09 1.31132e+09 1.31234e+09 1.31252e+09 0 0
106 1 0 1.32286e+09 1.32311e+09 1.32413e+09 1.32559e+09 1 1
107 2 0 1.32823e+09 1.32847e+09 1.32949e+09 1.32972e+09 0 0
108 2 1 1.3413e+09 1.34155e+09 1.34257e+09 1.34436e+09 1 1
109 2 0 1.37399e+09 1.37424e+09 1.37526e+09 1.37599e+09 0 0
110 2 1 1.3921e+09 1.39235e+09 1.39337e+09 1.39463e+09 1 1
111 2 0 1.40744e+09 1.4077e+09 1.40872e+09 1.40935e+09 0 0
112 2 0 1.41834e+09 1.41859e+09 1.41961e+09 1.42064e+09 1 0
113 2 1 1.42917e+09 1.42942e+09 1.43044e+09 1.43086e+09 1 1
114 2 0 1.43804e+09 1.4383e+09 1.43932e+09 1.43955e+09 0 0
115 2 1 1.45089e+09 1.45114e+09 1.45216e+09 1.45414e+09 1 1
116 2 1 1.46117e+09 1.46143e+09 1.46245e+09 1.46409e+09 0 1
117 2 1 1.48468e+09 1.48493e+09 1.48595e+09 1.48613e+09 0 1
118 1 0 1.49683e+09 1.49709e+09 1.49811e+09 1.49853e+09 0 1
119 2 0 1.50148e+09 1.50173e+09 1.50275e+09 1.50477e+09 0 0
120 2 0 1.51577e+09 1.51603e+09 1.51705e+09 1.51758e+09 1 0
121 2 0 1.52558e+09 1.52585e+09 1.52687e+09 1.52715e+09 1 0
122 2 0 1.53425e+09 1.5345e+09 1.53552e+09 1.53571e+09 1 0
123 1 0 1.54404e+09 1.54429e+09 1.54531e+09 1.54545e+09 0 1
124 2 1 1.54803e+09 1.54828e+09 1.5493e+09 1.54948e+09 0 1
125 2 0 1.57139e+09 1.57165e+09 1.57267e+09 1.57306e+09 0 0
126 2 1 1.58162e+09 1.58189e+09 1.58291e+09 1.58495e+09 1 1
127 1 1 1.59158e+09 1.59183e+09 1.59285e+09 1.59494e+09 0 0
128 1 1 1.60384e+09 1.6041e+09 1.60512e+09 1.60677e+09 1 0
129 1 0 1.61381e+09 1.61406e+09 1.61508e+09 1.61622e+09 1 1
130 2 1 1.6211e+09 1.62137e+09 1.62239e+09 1.62522e+09 0 1
131 2 0 1.63804e+09 1.6383e+09 1.63931e+09 1.64076e+09 0 0
132 2 0 1.64989e+09 1.65015e+09 1.65117e+09 1.65138e+09 1 0
133 2 1 1.65849e+09 1.65874e+09 1.65976e+09 1.66381e+09 1 1
134 1 1 1.67458e+09 1.67483e+09 1.67585e+09 1.67727e+09 0 0
135 1 0 1.68734e+09 1.6876e+09 1.68862e+09 1.69144e+09 1 1
136 2 1 1.70458e+09 1.70483e+09 1.70585e+09 1.70919e+09 0 1
137 1 0 1.71561e+09 1.71587e+09 1.71689e+09 1.71693e+09 0 1
138 2 1 1.72617e+09 1.72642e+09 1.72744e+09 1.72842e+09 0 1
139 2 1 1.73107e+09 1.73133e+09 1.73235e+09 1.73351e+09 0 1
140 1 0 1.7364e+09 1.73666e+09 1.73768e+09 1.73819e+09 0 1
141 1 1 1.75264e+09 1.7529e+09 1.75392e+09 1.75448e+09 0 0
142 1 0 1.76357e+09 1.76383e+09 1.76485e+09 1.765e+09 1 1
143 1 1 1.78236e+09 1.78262e+09 1.78364e+09 1.78371e+09 0 0
144 1 0 1.79122e+09 1.79148e+09 1.7925e+09 1.79267e+09 1 1
145 1 1 1.80124e+09 1.80149e+09 1.80251e+09 1.80266e+09 0 0
146 1 0 1.8104e+09 1.81066e+09 1.81168e+09 1.81237e+09 1 1
147 1 1 1.82019e+09 1.82044e+09 1.82146e+09 1.82149e+09 0 0
148 1 1 1.8314e+09 1.83166e+09 1.83268e+09 1.83687e+09 1 0
149 1 0 1.84506e+09 1.84532e+09 1.84634e+09 1.84696e+09 1 1
150 1 1 1.84944e+09 1.84969e+09 1.85071e+09 1.85088e+09 0 0
151 1 1 1.86555e+09 1.8658e+09 1.86682e+09 1.86728e+09 1 0
152 1 0 1.87658e+09 1.87684e+09 1.87786e+09 1.87803e+09 1 1
153 1 1 1.88104e+09 1.88128e+09 1.8823e+09 1.88538e+09 0 0
154 1 0 1.89274e+09 1.893e+09 1.89402e+09 1.89432e+09 1 1
155 1 1 1.90406e+09 1.90431e+09 1.90533e+09 1.9059e+09 0 0
156 1 0 1.91403e+09 1.91428e+09 1.9153e+09 1.916e+09 1 1
157 2 1 1.92804e+09 1.9283e+09 1.92932e+09 1.93108e+09 0 1
158 1 0 1.95376e+09 1.95402e+09 1.95504e+09 1.95722e+09 0 1
159 1 0 1.97079e+09 1.97104e+09 1.97206e+09 1.97405e+09 0 1
160 1 0 1.97704e+09 1.97729e+09 1.97831e+09 1.97916e+09 0 1
161 1 1 1.98177e+09 1.98202e+09 1.98304e+09 1.98307e+09 0 0
162 1 1 1.9901e+09 1.99035e+09 1.99137e+09 1.99318e+09 1 0
163 1 0 2.00086e+09 2.00112e+09 2.00214e+09 2.00382e+09 1 1
164 1 1 2.00673e+09 2.00699e+09 2.00801e+09 2.0088e+09 0 0
165 1 1 2.01998e+09 2.02024e+09 2.02126e+09 2.02228e+09 1 0
166 1 0 2.03016e+09 2.03042e+09 2.03144e+09 2.03153e+09 1 1
167 1 1 2.03423e+09 2.03449e+09 2.03551e+09 2.0356e+09 0 0
168 1 1 2.04341e+09 2.04367e+09 2.04469e+09 2.04483e+09 1 0
169 1 0 2.0548e+09 2.05506e+09 2.05608e+09 2.05711e+09 1 1
170 2 0 2.05962e+09 2.05987e+09 2.06089e+09 2.06106e+09 0 0
171 2 0 2.07655e+09 2.07681e+09 2.07783e+09 2.07881e+09 1 0
172 2 0 2.08638e+09 2.08663e+09 2.08765e+09 2.08809e+09 1 0
173 2 0 2.09553e+09 2.09579e+09 2.09681e+09 2.0981e+09 1 0
174 1 1 2.1068e+09 2.10706e+09 2.10808e+09 2.10823e+09 0 0
175 2 0 2.11643e+09 2.11669e+09 2.11771e+09 2.11773e+09 0 0
176 1 1 2.12493e+09 2.1252e+09 2.12622e+09 2.14018e+09 0 0
177 1 0 2.15227e+09 2.15252e+09 2.15354e+09 2.15752e+09 0 1
178 2 1 2.16962e+09 2.16987e+09 2.17089e+09 2.17378e+09 0 1
179 1 1 2.18732e+09 2.18757e+09 2.18859e+09 2.18891e+09 0 0
180 1 0 2.19842e+09 2.19868e+09 2.1997e+09 2.20137e+09 1 1
181 2 1 2.20424e+09 2.20449e+09 2.20551e+09 2.20574e+09 0 1
182 2 0 2.21498e+09 2.21523e+09 2.21624e+09 2.21651e+09 0 0
183 2 0 2.22383e+09 2.22409e+09 2.22511e+09 2.22848e+09 1 0
184 2 0 2.23556e+09 2.23582e+09 2.23684e+09 2.23758e+09 1 0
185 2 1 2.24486e+09 2.2451e+09 2.24612e+09 2.24633e+09 1 1
186 1 0 2.25568e+09 2.25594e+09 2.25696e+09 2.2572e+09 0 1
187 2 1 2.26413e+09 2.26439e+09 2.26541e+09 2.26977e+09 0 1
188 1 1 2.27692e+09 2.27718e+09 2.2782e+09 2.28017e+09 0 0
189 1 1 2.28895e+09 2.28921e+09 2.29023e+09 2.29049e+09 1 0
190 1 0 2.29876e+09 2.29902e+09 2.30004e+09 2.30314e+09 1 1
191 1 0 2.30576e+09 2.30601e+09 2.30703e+09 2.30931e+09 0 1
192 1 1 2.31906e+09 2.31932e+09 2.32034e+09 2.32054e+09 0 0
193 1 1 2.32918e+09 2.32942e+09 2.33044e+09 2.33066e+09 1 0
194 1 1 2.33934e+09 2.33959e+09 2.34061e+09 2.34341e+09 1 0
195 1 0 2.35058e+09 2.35085e+09 2.35187e+09 2.35236e+09 1 1
196 2 0 2.36197e+09 2.36221e+09 2.36323e+09 2.36336e+09 0 0
197 2 1 2.37044e+09 2.37069e+09 2.37171e+09 2.37176e+09 1 1
198 1 0 2.37424e+09 2.37451e+09 2.37553e+09 2.37565e+09 0 1
199 2 1 2.37832e+09 2.37857e+09 2.37959e+09 2.38061e+09 0 1
200 2 0 2.38353e+09 2.3838e+09 2.38482e+09 2.38482e+09 0 0
201 2 0 2.39664e+09 2.39689e+09 2.39791e+09 2.40043e+09 1 0
202 2 0 2.40777e+09 2.40804e+09 2.40906e+09 2.40924e+09 1 0
203 2 0 2.41673e+09 2.41698e+09 2.418e+09 2.41902e+09 1 0
204 2 0 2.4265e+09 2.42675e+09 2.42777e+09 2.42778e+09 0 0
205 1 0 2.43575e+09 2.43601e+09 2.43703e+09 2.44665e+09 0 1
206 2 1 2.45413e+09 2.45438e+09 2.4554e+09 2.45649e+09 0 1
207 2 0 2.45947e+09 2.45973e+09 2.46075e+09 2.46083e+09 0 0
208 2 1 2.46955e+09 2.4698e+09 2.47082e+09 2.47085e+09 1 1
209 2 1 2.48072e+09 2.48097e+09 2.48199e+09 2.48206e+09 0 1
210 1 1 2.48837e+09 2.48864e+09 2.48966e+09 2.49051e+09 0 0
211 1 0 2.49836e+09 2.49862e+09 2.49964e+09 2.49983e+09 1 1
212 1 1 2.50591e+09 2.50617e+09 2.50719e+09 2.50822e+09 0 0
213 1 0 2.51688e+09 2.51713e+09 2.51815e+09 2.51861e+09 1 1
214 1 1 2.5213e+09 2.52156e+09 2.52258e+09 2.52365e+09 0 0
215 1 0 2.53322e+09 2.53348e+09 2.5345e+09 2.53528e+09 1 1
216 2 1 2.54312e+09 2.54338e+09 2.5444e+09 2.54443e+09 0 1
217 2 0 2.5472e+09 2.54745e+09 2.54847e+09 2.54863e+09 0 0
218 2 0 2.55946e+09 2.5597e+09 2.56072e+09 2.56193e+09 1 0
219 2 0 2.56923e+09 2.56948e+09 2.5705e+09 2.57077e+09 1 0
220 2 0 2.57842e+09 2.57869e+09 2.57971e+09 2.58114e+09 1 0
221 2 1 2.58858e+09 2.58884e+09 2.58986e+09 2.58988e+09 0 1
222 1 1 2.59576e+09 2.59602e+09 2.59704e+09 2.59856e+09 0 0
223 1 0 2.60865e+09 2.60891e+09 2.60993e+09 2.62053e+09 1 1
224 1 0 2.62605e+09 2.6263e+09 2.62732e+09 2.62799e+09 0 1
225 1 0 2.63076e+09 2.63103e+09 2.63205e+09 2.63209e+09 0 1
226 2 1 2.635e+09 2.63526e+09 2.63628e+09 2.63629e+09 0 1
227 2 1 2.64768e+09 2.64793e+09 2.64895e+09 2.65095e+09 0 1
228 1 1 2.65535e+09 2.6556e+09 2.65662e+09 2.65793e+09 0 0
229 1 0 2.66502e+09 2.66528e+09 2.6663e+09 2.66747e+09 1 1
230 2 1 2.67284e+09 2.67311e+09 2.67413e+09 2.67457e+09 0 1
231 1 1 2.67743e+09 2.67768e+09 2.6787e+09 2.67922e+09 0 0
232 1 1 2.68729e+09 2.68755e+09 2.68857e+09 2.68888e+09 1 0
233 1 0 2.69615e+09 2.69641e+09 2.69743e+09 2.69796e+09 1 1
234 1 1 2.70838e+09 2.70863e+09 2.70965e+09 2.71133e+09 0 0
235 1 0 2.7192e+09 2.71947e+09 2.72049e+09 2.72061e+09 1 1
236 2 0 2.72697e+09 2.72723e+09 2.72825e+09 2.72832e+09 0 0
237 2 0 2.73808e+09 2.73833e+09 2.73935e+09 2.73952e+09 1 0
238 2 0 2.74856e+09 2.74881e+09 2.74982e+09 2.75129e+09 1 0
239 2 0 2.75852e+09 2.75878e+09 2.75979e+09 2.7617e+09 1 0
240 2 1 2.76957e+09 2.76982e+09 2.77084e+09 2.77274e+09 0 1
241 2 0 2.77927e+09 2.77953e+09 2.78054e+09 2.78109e+09 0 0
242 2 0 2.79032e+09 2.79058e+09 2.7916e+09 2.79372e+09 1 0
243 2 1 2.80111e+09 2.80137e+09 2.80239e+09 2.80639e+09 1 1
244 1 0 2.81065e+09 2.81091e+09 2.81193e+09 2.81196e+09 0 1
245 2 1 2.82533e+09 2.82559e+09 2.82661e+09 2.82815e+09 0 1
246 1 1 2.8318e+09 2.83205e+09 2.83307e+09 2.83555e+09 0 0
247 1 1 2.84332e+09 2.84359e+09 2.84461e+09 2.84513e+09 1 0
248 1 1 2.85259e+09 2.85284e+09 2.85386e+09 2.85658e+09 1 0
249 1 1 2.86485e+09 2.86511e+09 2.86613e+09 2.8672e+09 1 0
250 2 0 2.87728e+09 2.87754e+09 2.87856e+09 2.94017e+09 0 0
251 1 0 2.94761e+09 2.94787e+09 2.94889e+09 2.9495e+09 0 1
252 1 0 2.9564e+09 2.95665e+09 2.95767e+09 2.96669e+09 0 1
253 2 0 2.97255e+09 2.97281e+09 2.97383e+09 2.9739e+09 0 0
254 2 1 2.98144e+09 2.98169e+09 2.98271e+09 2.98485e+09 1 1
255 2 0 2.99514e+09 2.9954e+09 2.99641e+09 2.9972e+09 0 0
256 2 0 3.00458e+09 3.00483e+09 3.00585e+09 3.00933e+09 1 0
257 2 1 3.01656e+09 3.01682e+09 3.01784e+09 3.02501e+09 1 1
258 1 0 3.03087e+09 3.03113e+09 3.03215e+09 3.03267e+09 0 1
259 1 1 3.03643e+09 3.03669e+09 3.03771e+09 3.03853e+09 0 0
260 1 1 3.046e+09 3.04625e+09 3.04727e+09 3.04763e+09 1 0
261 1 1 3.05756e+09 3.05782e+09 3.05884e+09 3.05948e+09 1 0
262 1 0 3.06679e+09 3.06704e+09 3.06806e+09 3.06823e+09 1 1
263 1 0 3.07693e+09 3.07719e+09 3.07821e+09 3.07898e+09 0 1
264 1 0 3.08326e+09 3.08353e+09 3.08454e+09 3.09399e+09 0 1
265 2 1 3.09692e+09 3.09717e+09 3.09819e+09 3.10305e+09 0 1
266 2 0 3.10576e+09 3.106e+09 3.10702e+09 3.10708e+09 0 0
267 2 0 3.11416e+09 3.11442e+09 3.11544e+09 3.11905e+09 1 0
268 2 0 3.12779e+09 3.12804e+09 3.12906e+09 3.12914e+09 1 0
269 2 0 3.13641e+09 3.13667e+09 3.13769e+09 3.15146e+09 1 0
270 2 1 3.15859e+09 3.15884e+09 3.15986e+09 3.16565e+09 0 1
271 2 1 3.1692e+09 3.16944e+09 3.17046e+09 3.17095e+09 0 1
272 1 0 3.17579e+09 3.17605e+09 3.17707e+09 3.1781e+09 0 1
273 1 1 3.18078e+09 3.18102e+09 3.18204e+09 3.19838e+09 0 0
274 1 0 3.20567e+09 3.20593e+09 3.20695e+09 3.21048e+09 1 1
275 2 1 3.22111e+09 3.22136e+09 3.22238e+09 3.22436e+09 0 1
276 1 0 3.22694e+09 3.22719e+09 3.22821e+09 3.22892e+09 0 1
277 2 0 3.23483e+09 3.23509e+09 3.2361e+09 3.27845e+09 0 0
278 2 1 3.28569e+09 3.28594e+09 3.28696e+09 3.28708e+09 1 1
279 1 0 3.29295e+09 3.2932e+09 3.29422e+09 3.30744e+09 0 1
280 2 0 3.31529e+09 3.31554e+09 3.31656e+09 3.35932e+09 0 0
281 2 1 3.3672e+09 3.36746e+09 3.36848e+09 3.36929e+09 1 1
282 1 0 3.37528e+09 3.37554e+09 3.37656e+09 3.37991e+09 0 1
283 2 0 3.38482e+09 3.38508e+09 3.3861e+09 3.38826e+09 0 0
284 2 0 3.3956e+09 3.39585e+09 3.39687e+09 3.3991e+09 1 0
285 2 0 3.40614e+09 3.40638e+09 3.4074e+09 3.41135e+09 1 0
286 2 0 3.41876e+09 3.41901e+09 3.42003e+09 3.42347e+09 1 0
287 1 0 3.4308e+09 3.43104e+09 3.43206e+09 3.45823e+09 0 1
288 1 0 3.4608e+09 3.46105e+09 3.46207e+09 3.4642e+09 0 1
289 1 0 3.4683e+09 3.46856e+09 3.46958e+09 3.48822e+09 0 1
290 1 0 3.49632e+09 3.49658e+09 3.49759e+09 3.51435e+09 0 1
291 2 1 3.51776e+09 3.51801e+09 3.51903e+09 3.54301e+09 0 1
292 1 0 3.54562e+09 3.54587e+09 3.54689e+09 3.54881e+09 0 1
293 2 0 3.55137e+09 3.55162e+09 3.55264e+09 3.60501e+09 0 0
294 2 0 3.61962e+09 3.61987e+09 3.62089e+09 3.62585e+09 1 0
295 2 0 3.63562e+09 3.63589e+09 3.63691e+09 3.64428e+09 1 0
296 2 0 3.65142e+09 3.65167e+09 3.65269e+09 3.6886e+09 1 0
297 1 0 3.69597e+09 3.69623e+09 3.69725e+09 3.69899e+09 0 1
298 2 0 3.70479e+09 3.70506e+09 3.70608e+09 3.71211e+09 0 0
299 2 0 3.72342e+09 3.72367e+09 3.72469e+09 3.73976e+09 1 0
300 2 0 3.74696e+09 3.74722e+09 3.74824e+09 3.75645e+09 1 0
301 2 1 3.76354e+09 3.7638e+09 3.76482e+09 3.78144e+09 1 1
302 1 0 3.78419e+09 3.78444e+09 3.78546e+09 3.81548e+09 0 1
303 1 0 3.82178e+09 3.82203e+09 3.82305e+09 3.87069e+09 0 1
304 1 0 3.87355e+09 3.87381e+09 3.87483e+09 3.89198e+09 0 1
305 1 0 3.89488e+09 3.89514e+09 3.89616e+09 3.8964e+09 0 1
306 2 0 3.89955e+09 3.89981e+09 3.90083e+09 3.9018e+09 0 0
307 2 1 3.91294e+09 3.9132e+09 3.91422e+09 3.9491e+09 1 1
308 2 0 3.95513e+09 3.95539e+09 3.95641e+09 4.01796e+09 0 0
309 2 0 4.02501e+09 4.02527e+09 4.02629e+09 4.04908e+09 1 0
310 2 1 4.05651e+09 4.05677e+09 4.05779e+09 4.05786e+09 1 1
311 1 0 4.06332e+09 4.06358e+09 4.0646e+09 4.07111e+09 0 1
312 2 0 4.07373e+09 4.07398e+09 4.075e+09 4.11225e+09 0 0
313 2 0 4.11935e+09 4.1196e+09 4.12062e+09 4.13361e+09 1 0
314 2 0 4.14209e+09 4.14234e+09 4.14336e+09 4.14834e+09 1 0
315 2 0 4.15959e+09 4.15984e+09 4.16086e+09 4.16234e+09 1 0
316 2 1 4.16969e+09 4.16995e+09 4.17097e+09 4.18456e+09 0 1
317 1 0 4.18978e+09 4.19003e+09 4.19105e+09 4.19301e+09 0 1
318 2 0 4.19574e+09 4.19599e+09 4.19701e+09 4.20321e+09 0 0
319 2 0 4.21089e+09 4.21115e+09 4.21217e+09 4.22083e+09 1 0
320 2 0 4.22797e+09 4.22822e+09 4.22924e+09 4.23947e+09 1 0
321 2 0 4.24741e+09 4.24767e+09 4.24869e+09 4.25156e+09 1 0
322 1 0 4.25889e+09 4.25915e+09 4.26016e+09 4.26191e+09 0 1
323 1 1 4.26456e+09 4.26481e+09 4.26583e+09 4.27555e+09 0 0
324 1 1 4.28269e+09 4.28294e+09 4.28396e+09 4.28985e+09 1 0
325 1 0 2.12686e+06 2.37566e+06 3.39529e+06 1.88056e+07 1 1
326 1 0 2.25976e+07 2.28446e+07 2.38642e+07 2.42469e+07 0 1
327 2 0 2.68759e+07 2.71276e+07 2.81472e+07 3.78649e+07 0 0
328 2 0 4.50959e+07 4.53529e+07 4.63726e+07 5.90243e+07 1 0
329 2 1 6.69563e+07 6.72154e+07 6.82351e+07 6.88068e+07 1 1
330 2 0 7.24746e+07 7.27398e+07 7.37594e+07 8.81794e+07 0 0
331 2 1 9.97325e+07 9.99954e+07 1.01015e+08 1.01679e+08 1 1
332 1 0 1.0626e+08 1.06517e+08 1.07537e+08 1.09694e+08 0 1
333 2 1 1.12616e+08 1.12872e+08 1.13892e+08 1.28715e+08 0 1
334 2 1 1.33934e+08 1.34186e+08 1.35206e+08 1.50248e+08 0 1
335 2 0 1.53112e+08 1.53358e+08 1.54377e+08 1.56145e+08 0 0
336 2 0 1.63369e+08 1.63621e+08 1.6464e+08 1.65769e+08 1 0
337 2 0 1.73064e+08 1.7331e+08 1.74329e+08 1.7793e+08 1 0
338 2 0 1.85432e+08 1.85689e+08 1.86709e+08 1.9256e+08 1 0
339 2 0 2.00066e+08 2.00321e+08 2.01341e+08 2.10127e+08 0 0
340 1 0 2.1766e+08 2.17919e+08 2.18939e+08 2.24167e+08 0 1
341 2 1 2.27797e+08 2.28054e+08 2.29074e+08 2.39585e+08 0 1
342 2 0 2.42855e+08 2.43104e+08 2.44123e+08 2.46602e+08 0 0
343 2 1 2.54082e+08 2.54344e+08 2.55363e+08 2.69963e+08 1 1
344 1 0 2.73209e+08 2.73461e+08 2.74481e+08 2.80562e+08 0 1
345 2 0 2.83187e+08 2.83444e+08 2.84464e+08 2.85934e+08 0 0
346 2 0 2.93211e+08 2.9346e+08 2.94479e+08 3.03487e+08 1 0
347 2 0 3.10514e+08 3.1077e+08 3.11789e+08 3.20836e+08 1 0
348 2 0 3.29474e+08 3.29721e+08 3.30741e+08 3.44303e+08 1 0
349 2 0 3.5143e+08 3.51683e+08 3.52703e+08 3.55848e+08 0 0
350 1 0 3.63297e+08 3.63544e+08 3.64563e+08 3.69753e+08 0 1
351 2 1 3.72816e+08 3.7308e+08 3.741e+08 3.8541e+08 0 1
352 1 0 3.88827e+08 3.89087e+08 3.90106e+08 4.00936e+08 0 1
353 2 0 4.10158e+08 4.10414e+08 4.11433e+08 4.60998e+08 0 0
354 2 0 4.6839e+08 4.68641e+08 4.6966e+08 4.79635e+08 1 0
355 2 0 4.87013e+08 4.87269e+08 4.88289e+08 5.0453e+08 1 0
356 2 1 5.12037e+08 5.12302e+08 5.13321e+08 5.32771e+08 1 1
357 1 0 5.35905e+08 5.36183e+08 5.37203e+08 5.38312e+08 0 1
358 1 0 5.40907e+08 5.41164e+08 5.42184e+08 5.55963e+08 0 1
359 1 1 5.60668e+08 5.60924e+08 5.61943e+08 5.86742e+08 0 0
360 1 0 5.97332e+08 5.97583e+08 5.98603e+08 6.32283e+08 1 1
361 1 0 6.35196e+08 6.35459e+08 6.36478e+08 6.46905e+08 0 1
362 1 0 6.50515e+08 6.50771e+08 6.51791e+08 6.58414e+08 0 1
363 2 0 6.63449e+08 6.63701e+08 6.64721e+08 6.79156e+08 0 0
364 2 0 6.86336e+08 6.86598e+08 6.87618e+08 6.90934e+08 1 0
365 2 0 6.98394e+08 6.98646e+08 6.99665e+08 6.99732e+08 1 0
366 2 0 7.08255e+08 7.08503e+08 7.09522e+08 7.09785e+08 1 0
367 2 0 7.17115e+08 7.17358e+08 7.18378e+08 7.21792e+08 0 0
368 2 0 7.29171e+08 7.2943e+08 7.30449e+08 7.40915e+08 0 0
369 1 0 7.48395e+08 7.48653e+08 7.49673e+08 7.65732e+08 0 1
370 2 0 7.72059e+08 7.72317e+08 7.73336e+08 7.74187e+08 0 0
371 2 0 7.81687e+08 7.81953e+08 7.82973e+08 7.83231e+08 1 0
372 2 0 7.90371e+08 7.90618e+08 7.91638e+08 7.94404e+08 1 0
373 2 0 8.01692e+08 8.01946e+08 8.02965e+08 8.04229e+08 1 0
374 2 0 8.11715e+08 8.11959e+08 8.12979e+08 8.29035e+08 0 0
375 1 0 8.36417e+08 8.36673e+08 8.37693e+08 8.38058e+08 0 1
376 2 0 8.44133e+08 8.44389e+08 8.45408e+08 8.58756e+08 0 0
377 2 0 8.662e+08 8.66453e+08 8.67472e+08 8.67825e+08 1 0
378 2 0 8.75326e+08 8.75589e+08 8.76609e+08 8.8065e+08 1 0
379 2 1 8.88838e+08 8.89089e+08 8.90109e+08 8.9282e+08 1 1
380 2 0 8.95465e+08 8.95716e+08 8.96736e+08 9.01215e+08 0 0
381 2 0 9.08728e+08 9.08983e+08 9.10003e+08 9.1449e+08 1 0
382 2 0 9.21747e+08 9.21999e+08 9.23019e+08 9.2622e+08 1 0
383 2 0 9.33862e+08 9.34113e+08 9.35132e+08 9.35813e+08 1 0
384 2 0 9.43322e+08 9.43573e+08 9.44593e+08 9.49818e+08 0 0
385 1 0 9.5735e+08 9.57607e+08 9.58627e+08 9.63634e+08 0 1
386 2 0 9.6664e+08 9.66887e+08 9.67906e+08 9.88421e+08 0 0
387 2 0 9.95939e+08 9.9619e+08 9.9721e+08 1.00281e+09 1 0
388 2 0 1.01085e+09 1.01111e+09 1.01213e+09 1.01466e+09 1 0
389 2 0 1.0221e+09 1.02235e+09 1.02337e+09 1.03813e+09 1 0
390 2 0 1.04559e+09 1.04584e+09 1.04686e+09 1.04939e+09 0 0
391 1 0 1.05651e+09 1.05676e+09 1.05778e+09 1.06407e+09 0 1
392 2 0 1.06685e+09 1.0671e+09 1.06812e+09 1.07337e+09 0 0
393 2 0 1.08042e+09 1.08067e+09 1.08169e+09 1.08287e+09 1 0
394 2 0 1.09008e+09 1.09033e+09 1.09135e+09 1.09159e+09 1 0
395 2 0 1.10186e+09 1.10211e+09 1.10313e+09 1.10709e+09 1 0
396 1 0 1.11598e+09 1.11623e+09 1.11725e+09 1.12665e+09 0 1
397 1 0 1.12945e+09 1.1297e+09 1.13072e+09 1.13348e+09 0 1
398 1 0 1.13637e+09 1.13662e+09 1.13764e+09 1.14024e+09 0 1
399 1 0 1.14311e+09 1.14337e+09 1.14439e+09 1.14744e+09 0 1
400 2 0 1.15147e+09 1.15174e+09 1.15276e+09 1.16222e+09 0 0
401 2 0 1.16984e+09 1.17009e+09 1.17111e+09 1.18189e+09 1 0
402 2 0 1.18896e+09 1.18922e+09 1.19024e+09 1.19152e+09 1 0
403 2 0 1.1988e+09 1.19906e+09 1.20008e+09 1.20045e+09 1 0
404 1 0 1.20781e+09 1.20805e+09 1.20907e+09 1.21692e+09 0 1
405 1 0 1.21974e+09 1.21999e+09 1.22101e+09 1.22146e+09 0 1
406 2 0 1.22434e+09 1.22461e+09 1.22563e+09 1.22608e+09 0 0
407 2 0 1.23719e+09 1.23744e+09 1.23846e+09 1.24298e+09 1 0
408 2 0 1.25049e+09 1.25073e+09 1.25175e+09 1.2551e+09 1 0
409 2 0 1.26217e+09 1.26242e+09 1.26344e+09 1.26711e+09 1 0
410 1 0 1.27442e+09 1.27467e+09 1.27569e+09 1.2801e+09 0 1
411 2 0 1.28277e+09 1.28301e+09 1.28403e+09 1.28994e+09 0 0
412 2 0 1.29744e+09 1.2977e+09 1.29872e+09 1.29874e+09 1 0
413 2 0 1.306e+09 1.30626e+09 1.30728e+09 1.31706e+09 1 0
414 2 0 1.32525e+09 1.3255e+09 1.32652e+09 1.33352e+09 1 0
415 2 0 1.34086e+09 1.34112e+09 1.34214e+09 1.34267e+09 0 0
416 2 1 1.35005e+09 1.3503e+09 1.35132e+09 1.35317e+09 0 1
417 2 0 1.35607e+09 1.35633e+09 1.35735e+09 1.37127e+09 0 0
418 2 0 1.37844e+09 1.37869e+09 1.37971e+09 1.38103e+09 1 0
419 2 0 1.38835e+09 1.3886e+09 1.38962e+09 1.39812e+09 1 0
420 2 0 1.40528e+09 1.40553e+09 1.40655e+09 1.40785e+09 1 0
421 1 0 1.41517e+09 1.41543e+09 1.41645e+09 1.42323e+09 0 1
422 2 0 1.42621e+09 1.42647e+09 1.42749e+09 1.43004e+09 0 0
423 2 0 1.43918e+09 1.43943e+09 1.44045e+09 1.44504e+09 1 0
424 2 0 1.45377e+09 1.45402e+09 1.45504e+09 1.45791e+09 1 0
425 2 0 1.47032e+09 1.47056e+09 1.47158e+09 1.48e+09 1 0
426 2 0 1.48713e+09 1.48738e+09 1.4884e+09 1.48941e+09 0 0
427 1 0 1.4966e+09 1.49685e+09 1.49787e+09 1.4989e+09 0 1
428 1 0 1.50184e+09 1.5021e+09 1.50312e+09 1.50942e+09 0 1
429 2 0 1.51528e+09 1.51553e+09 1.51655e+09 1.52684e+09 0 0
430 2 0 1.53388e+09 1.53413e+09 1.53515e+09 1.54143e+09 1 0
431 2 0 1.54851e+09 1.54876e+09 1.54978e+09 1.55213e+09 1 0
432 2 0 1.55947e+09 1.55972e+09 1.56074e+09 1.5626e+09 1 0
433 1 1 1.5699e+09 1.57015e+09 1.57117e+09 1.57535e+09 0 0
434 2 0 1.5825e+09 1.58275e+09 1.58377e+09 1.58586e+09 0 0
435 2 1 1.59335e+09 1.59361e+09 1.59463e+09 1.59471e+09 0 1
436 1 0 1.59787e+09 1.59812e+09 1.59914e+09 1.60639e+09 0 1
437 2 0 1.60906e+09 1.60931e+09 1.61033e+09 1.61918e+09 0 0
438 2 0 1.62756e+09 1.6278e+09 1.62882e+09 1.63197e+09 1 0
439 2 0 1.63932e+09 1.63957e+09 1.64059e+09 1.6431e+09 1 0
440 2 0 1.65016e+09 1.65042e+09 1.65144e+09 1.65377e+09 1 0
441 2 0 1.6609e+09 1.66115e+09 1.66217e+09 1.6759e+09 0 0
442 1 0 1.68338e+09 1.68363e+09 1.68465e+09 1.68827e+09 0 1
443 1 0 1.69106e+09 1.69131e+09 1.69233e+09 1.69975e+09 0 1
444 2 0 1.70341e+09 1.70366e+09 1.70468e+09 1.71408e+09 0 0
445 2 0 1.72112e+09 1.72139e+09 1.72241e+09 1.72481e+09 1 0
446 2 1 1.73306e+09 1.73332e+09 1.73434e+09 1.74011e+09 1 1
447 2 0 1.74296e+09 1.74322e+09 1.74424e+09 1.74436e+09 0 0
448 2 0 1.75159e+09 1.75184e+09 1.75286e+09 1.75292e+09 1 0
449 2 0 1.7602e+09 1.76046e+09 1.76148e+09 1.76192e+09 1 0
450 2 0 1.76896e+09 1.76922e+09 1.77024e+09 1.77308e+09 1 0
451 1 0 1.78035e+09 1.78061e+09 1.78163e+09 1.78234e+09 0 1
452 2 0 1.78689e+09 1.78715e+09 1.78817e+09 1.79275e+09 0 0
453 2 0 1.80019e+09 1.80044e+09 1.80146e+09 1.80516e+09 1 0
454 2 0 1.8123e+09 1.81255e+09 1.81357e+09 1.81462e+09 1 0
455 2 1 1.8217e+09 1.82197e+09 1.82299e+09 1.82304e+09 1 1
456 2 1 1.82583e+09 1.8261e+09 1.82712e+09 1.83649e+09 0 1
457 1 0 1.83947e+09 1.83972e+09 1.84074e+09 1.85576e+09 0 1
458 2 0 1.85856e+09 1.85881e+09 1.85983e+09 1.86649e+09 0 0
459 2 0 1.87684e+09 1.87709e+09 1.87811e+09 1.88933e+09 1 0
460 2 0 1.89671e+09 1.89698e+09 1.898e+09 1.90357e+09 1 0
461 2 0 1.91312e+09 1.91338e+09 1.9144e+09 1.92468e+09 1 0
462 1 0 1.93191e+09 1.93216e+09 1.93318e+09 1.93658e+09 0 1
463 1 0 1.93951e+09 1.93978e+09 1.9408e+09 1.94284e+09 0 1
464 1 0 1.94801e+09 1.94827e+09 1.94929e+09 1.95523e+09 0 1
465 1 0 1.95806e+09 1.95831e+09 1.95933e+09 1.96366e+09 0 1
466 1 0 1.96629e+09 1.96655e+09 1.96757e+09 1.97669e+09 0 1
467 2 0 1.98077e+09 1.98104e+09 1.98206e+09 1.98539e+09 0 0
468 2 0 1.99452e+09 1.99477e+09 1.99579e+09 2.00097e+09 1 0
469 2 0 2.00996e+09 2.01021e+09 2.01123e+09 2.01787e+09 1 0
470 2 0 2.02504e+09 2.02529e+09 2.02631e+09 2.03266e+09 1 0
471 2 0 2.04103e+09 2.04129e+09 2.04231e+09 2.04932e+09 0 0
472 2 0 2.05642e+09 2.05668e+09 2.0577e+09 2.05834e+09 0 0
473 1 0 2.06578e+09 2.06604e+09 2.06706e+09 2.07346e+09 0 1
474 1 0 2.07653e+09 2.07678e+09 2.0778e+09 2.0911e+09 0 1
475 2 0 2.09581e+09 2.09606e+09 2.09708e+09 2.09933e+09 0 0
476 2 0 2.10683e+09 2.10707e+09 2.10809e+09 2.10839e+09 1 0
477 2 0 2.11587e+09 2.11612e+09 2.11714e+09 2.12189e+09 1 0
478 2 0 2.1293e+09 2.12955e+09 2.13057e+09 2.13832e+09 1 0
479 2 0 2.14564e+09 2.14589e+09 2.14691e+09 2.15287e+09 0 0
480 2 0 2.16089e+09 2.16114e+09 2.16216e+09 2.16571e+09 0 0
481 1 1 2.17411e+09 2.17435e+09 2.17537e+09 2.1757e+09 0 0
482 1 0 2.18285e+09 2.1831e+09 2.18412e+09 2.19124e+09 0 1
483 1 0 2.19406e+09 2.19432e+09 2.19534e+09 2.19852e+09 0 1
484 2 0 2.20147e+09 2.20173e+09 2.20275e+09 2.21024e+09 0 0
485 2 0 2.21753e+09 2.21778e+09 2.2188e+09 2.21928e+09 1 0
486 2 0 2.22651e+09 2.22677e+09 2.22779e+09 2.23444e+09 1 0
487 2 0 2.24296e+09 2.24321e+09 2.24423e+09 2.24797e+09 1 0
488 1 0 2.25542e+09 2.25567e+09 2.25669e+09 2.25993e+09 0 1
489 2 0 2.26322e+09 2.26347e+09 2.26449e+09 2.2711e+09 0 0
490 2 0 2.27848e+09 2.27874e+09 2.27976e+09 2.28078e+09 1 0
491 2 0 2.28822e+09 2.28846e+09 2.28948e+09 2.28975e+09 1 0
492 2 0 2.29688e+09 2.29713e+09 2.29815e+09 2.3054e+09 1 0
493 2 0 2.31271e+09 2.31297e+09 2.31399e+09 2.31438e+09 0 0
494 2 0 2.32159e+09 2.32185e+09 2.32287e+09 2.32854e+09 0 0
495 1 0 2.33572e+09 2.33598e+09 2.337e+09 2.34004e+09 0 1
496 1 0 2.34293e+09 2.34318e+09 2.3442e+09 2.35697e+09 0 1
497 2 0 2.35987e+09 2.36011e+09 2.36113e+09 2.3686e+09 0 0
498 2 0 2.37607e+09 2.37632e+09 2.37734e+09 2.37857e+09 1 0
499 2 0 2.38581e+09 2.38607e+09 2.38709e+09 2.61387e+09 1 0
500 2 1 2.62129e+09 2.62155e+09 2.62257e+09 2.63053e+09 1 1
