trial trialType response stillTime stimOnset stimOffset respTime correctionTrial correct
001 2 1 8.47976e+06 8.80618e+06 9.8258e+06 2.5106e+07 0
001 002 2 1 2.93806e+07 2.96463e+07 3.06659e+07 3.80079e+07 0
001 003 2 1 4.06938e+07 4.09811e+07 4.20007e+07 4.23165e+07 0
001 004 2 0 4.74593e+07 4.77265e+07 4.87461e+07 4.9463e+07 0
000 005 2 1 5.79646e+07 5.82204e+07 5.924e+07 5.92954e+07 1
001 006 2 1 6.81206e+07 6.83718e+07 6.93914e+07 6.94022e+07 0
001 007 2 1 7.20046e+07 7.22656e+07 7.32852e+07 7.99544e+07 0
001 008 1 0 8.38554e+07 8.41191e+07 8.51387e+07 8.56428e+07 0
001 009 2 1 8.86108e+07 8.88733e+07 8.98929e+07 9.11647e+07 0
001 010 1 1 9.39151e+07 9.4168e+07 9.51876e+07 9.6256e+07 0
000 011 1 0 1.04633e+08 1.04885e+08 1.05905e+08 1.07311e+08 1
001 012 1 0 1.10278e+08 1.10539e+08 1.11559e+08 1.13241e+08 0
001 013 2 0 1.16288e+08 1.16546e+08 1.17565e+08 1.1839e+08 0
000 014 2 1 1.25455e+08 1.25717e+08 1.26737e+08 1.28668e+08 1
001 015 1 0 1.32461e+08 1.32716e+08 1.33736e+08 1.3918e+08 0
001 016 1 0 1.43202e+08 1.43461e+08 1.44481e+08 1.4623e+08 0
001 017 2 0 1.50984e+08 1.51246e+08 1.52265e+08 1.53584e+08 0
000 018 2 1 1.61238e+08 1.61498e+08 1.62517e+08 1.62628e+08 1
001 019 1 0 1.65499e+08 1.65766e+08 1.66786e+08 1.69087e+08 0
001 020 1 0 1.7172e+08 1.71989e+08 1.73009e+08 1.73112e+08 0
001 021 1 0 1.75952e+08 1.76215e+08 1.77234e+08 1.84799e+08 0
001 022 1 0 1.87504e+08 1.87754e+08 1.88774e+08 1.91442e+08 0
001 023 1 0 1.95041e+08 1.95285e+08 1.96305e+08 1.96656e+08 0
001 024 1 0 2.01196e+08 2.01456e+08 2.02476e+08 2.02495e+08 0
001 025 2 0 2.05093e+08 2.05347e+08 2.06367e+08 2.06802e+08 0
000 026 2 1 2.14602e+08 2.14846e+08 2.15866e+08 2.17674e+08 1
001 027 2 1 2.20312e+08 2.20569e+08 2.21588e+08 2.2276e+08 0
001 028 1 1 2.28486e+08 2.28734e+08 2.29754e+08 2.31222e+08 0
000 029 1 0 2.41717e+08 2.41969e+08 2.42988e+08 2.44442e+08 1
001 030 1 1 2.50618e+08 2.50861e+08 2.5188e+08 2.51984e+08 0
000 031 1 0 2.60285e+08 2.60532e+08 2.61551e+08 2.65925e+08 1
001 032 1 0 2.71812e+08 2.72076e+08 2.73095e+08 3.10666e+08 0
001 033 1 1 3.15543e+08 3.15812e+08 3.16832e+08 3.19019e+08 0
000 034 1 1 3.28982e+08 3.29232e+08 3.30252e+08 3.30442e+08 1
000 035 1 0 3.39049e+08 3.39309e+08 3.40328e+08 3.41229e+08 1
001 036 1 0 3.47642e+08 3.47894e+08 3.48914e+08 3.49296e+08 0
001 037 1 0 3.56997e+08 3.57244e+08 3.58263e+08 3.60654e+08 0
001 038 1 0 3.65726e+08 3.65987e+08 3.67006e+08 3.67219e+08 0
001 039 1 1 3.69856e+08 3.70111e+08 3.71131e+08 3.71453e+08 0
000 040 1 0 3.79961e+08 3.80217e+08 3.81236e+08 3.82518e+08 1
001 041 2 0 3.85844e+08 3.86104e+08 3.87124e+08 3.8893e+08 0
000 042 2 0 3.96128e+08 3.96378e+08 3.97398e+08 3.97849e+08 1
000 043 2 1 4.07954e+08 4.08204e+08 4.09223e+08 4.09379e+08 1
001 044 1 1 4.13907e+08 4.14161e+08 4.15181e+08 4.15207e+08 0
000 045 1 1 4.30972e+08 4.31231e+08 4.32251e+08 4.33825e+08 1
000 046 1 0 4.41363e+08 4.41611e+08 4.42631e+08 4.42785e+08 1
001 047 2 1 4.45479e+08 4.45739e+08 4.46759e+08 4.47243e+08 0
001 048 2 0 4.49897e+08 4.50156e+08 4.51176e+08 4.55479e+08 0
000 049 2 1 4.62703e+08 4.62956e+08 4.63975e+08 4.64509e+08 1
001 050 2 0 4.67416e+08 4.67671e+08 4.68691e+08 4.76651e+08 0
000 051 2 1 4.83686e+08 4.83939e+08 4.84958e+08 5.15974e+08 1
001 052 1 0 5.186e+08 5.18851e+08 5.19871e+08 5.33675e+08 0
001 053 1 0 5.46314e+08 5.46574e+08 5.47593e+08 5.80851e+08 0
001 054 2 1 5.83766e+08 5.84022e+08 5.85042e+08 5.85478e+08 0
001 055 1 0 5.882e+08 5.88446e+08 5.89466e+08 6.23618e+08 0
001 056 2 0 6.26673e+08 6.26931e+08 6.2795e+08 6.50259e+08 0
000 057 2 0 6.59035e+08 6.59293e+08 6.60312e+08 6.62328e+08 1
000 058 2 0 6.71387e+08 6.71639e+08 6.72659e+08 6.85643e+08 1
000 059 2 0 6.92713e+08 6.92972e+08 6.93991e+08 6.94518e+08 1
000 060 1 1 7.04536e+08 7.04779e+08 7.05799e+08 7.08094e+08 0
000 061 2 1 7.16994e+08 7.17259e+08 7.18278e+08 7.27306e+08 0
001 062 2 0 7.30048e+08 7.303e+08 7.31319e+08 7.3481e+08 0
000 063 2 0 7.43437e+08 7.43694e+08 7.44713e+08 7.44719e+08 1
000 064 2 0 7.51789e+08 7.5205e+08 7.53069e+08 7.67844e+08 1
000 065 2 0 7.76288e+08 7.76535e+08 7.77555e+08 7.77843e+08 1
000 066 2 0 7.88493e+08 7.88747e+08 7.89767e+08 7.91477e+08 0
000 067 1 1 8.02095e+08 8.02341e+08 8.03361e+08 8.03541e+08 0
000 068 2 0 8.19308e+08 8.19563e+08 8.20583e+08 8.21008e+08 0
000 069 1 0 8.29901e+08 8.30169e+08 8.31189e+08 8.32489e+08 0
001 070 2 1 8.35388e+08 8.35644e+08 8.36663e+08 8.36687e+08 0
001 071 2 0 8.39459e+08 8.39722e+08 8.40742e+08 8.41565e+08 0
000 072 2 0 8.49085e+08 8.49337e+08 8.50357e+08 8.59565e+08 1
000 073 2 1 8.6674e+08 8.66986e+08 8.68006e+08 8.80315e+08 1
001 074 2 1 8.82791e+08 8.8305e+08 8.84069e+08 8.95104e+08 0
001 075 1 0 8.98029e+08 8.98294e+08 8.99314e+08 9.47107e+08 0
001 076 1 0 9.49986e+08 9.50241e+08 9.51261e+08 9.61206e+08 0
001 077 2 1 9.63753e+08 9.64e+08 9.6502e+08 9.76658e+08 0
001 078 1 1 9.79179e+08 9.79433e+08 9.80452e+08 1.00465e+09 0
000 079 1 1 1.01357e+09 1.01382e+09 1.01484e+09 1.0208e+09 1
000 080 1 0 1.028e+09 1.02825e+09 1.02927e+09 1.03584e+09 1
001 081 2 0 1.03842e+09 1.03867e+09 1.03969e+09 1.05562e+09 0
000 082 2 0 1.06299e+09 1.06325e+09 1.06427e+09 1.078e+09 1
000 083 2 0 1.08728e+09 1.08754e+09 1.08856e+09 1.09032e+09 1
000 084 2 1 1.10068e+09 1.10093e+09 1.10195e+09 1.10315e+09 1
001 085 2 1 1.11042e+09 1.11067e+09 1.11169e+09 1.14518e+09 0
001 086 1 0 1.14783e+09 1.1481e+09 1.14912e+09 1.18498e+09 0
001 087 1 1 1.18765e+09 1.18791e+09 1.18893e+09 1.19423e+09 0
000 088 1 1 1.20166e+09 1.20192e+09 1.20294e+09 1.20307e+09 1
000 089 1 0 1.21056e+09 1.21082e+09 1.21184e+09 1.21596e+09 1
001 090 2 1 1.22302e+09 1.22328e+09 1.2243e+09 1.22531e+09 0
001 091 1 1 1.23522e+09 1.23548e+09 1.2365e+09 1.23651e+09 0
000 092 1 1 1.24366e+09 1.2439e+09 1.24492e+09 1.24546e+09 1
000 093 1 0 1.2525e+09 1.25274e+09 1.25376e+09 1.27481e+09 1
001 094 2 0 1.27767e+09 1.27793e+09 1.27895e+09 1.31124e+09 0
000 095 2 1 1.31915e+09 1.31941e+09 1.32043e+09 1.32054e+09 1
001 096 1 0 1.32306e+09 1.32333e+09 1.32435e+09 1.32564e+09 0
001 097 2 1 1.32842e+09 1.32868e+09 1.3297e+09 1.32973e+09 0
001 098 1 0 1.33965e+09 1.3399e+09 1.34092e+09 1.34356e+09 0
001 099 1 0 1.34738e+09 1.34763e+09 1.34865e+09 1.36816e+09 0
001 100 2 0 1.37076e+09 1.37101e+09 1.37203e+09 1.37204e+09 0
000 101 2 1 1.37908e+09 1.37934e+09 1.38036e+09 1.40064e+09 1
001 102 2 0 1.4035e+09 1.40375e+09 1.40477e+09 1.40522e+09 0
000 103 2 1 1.41387e+09 1.41413e+09 1.41515e+09 1.41911e+09 1
001 104 2 0 1.42464e+09 1.4249e+09 1.42592e+09 1.42595e+09 0
000 105 2 0 1.43313e+09 1.43338e+09 1.4344e+09 1.4496e+09 1
000 106 2 0 1.45698e+09 1.45723e+09 1.45825e+09 1.49884e+09 1
000 107 2 0 1.50712e+09 1.50737e+09 1.50839e+09 1.51245e+09 1
000 108 2 0 1.52073e+09 1.52099e+09 1.52201e+09 1.52424e+09 0
000 109 2 0 1.53296e+09 1.53321e+09 1.53423e+09 1.53613e+09 0
000 110 1 0 1.54633e+09 1.54658e+09 1.5476e+09 1.54815e+09 0
001 111 1 0 1.55395e+09 1.55421e+09 1.55523e+09 1.58719e+09 0
001 112 2 0 1.5899e+09 1.59016e+09 1.59118e+09 1.59168e+09 0
000 113 2 0 1.59897e+09 1.59921e+09 1.60023e+09 1.60642e+09 1
000 114 2 0 1.61363e+09 1.61389e+09 1.61491e+09 1.62041e+09 1
000 115 2 1 1.62757e+09 1.62783e+09 1.62885e+09 1.62886e+09 1
001 116 1 0 1.63226e+09 1.63252e+09 1.63354e+09 1.63395e+09 0
001 117 2 0 1.63656e+09 1.63683e+09 1.63785e+09 1.64444e+09 0
000 118 2 1 1.65187e+09 1.65213e+09 1.65315e+09 1.65329e+09 1
001 119 1 1 1.65928e+09 1.65953e+09 1.66055e+09 1.66059e+09 0
000 120 1 0 1.66803e+09 1.66828e+09 1.6693e+09 1.68858e+09 1
001 121 1 0 1.6914e+09 1.69165e+09 1.69267e+09 1.69429e+09 0
001 122 1 0 1.69756e+09 1.69781e+09 1.69883e+09 1.72287e+09 0
001 123 1 1 1.72545e+09 1.7257e+09 1.72672e+09 1.72768e+09 0
000 124 1 1 1.73473e+09 1.73498e+09 1.736e+09 1.74608e+09 1
000 125 1 0 1.75352e+09 1.75376e+09 1.75478e+09 1.75998e+09 1
001 126 1 0 1.77043e+09 1.7707e+09 1.77172e+09 1.77321e+09 0
001 127 2 0 1.78012e+09 1.78038e+09 1.7814e+09 1.7814e+09 0
000 128 2 0 1.7888e+09 1.78907e+09 1.79009e+09 1.79016e+09 1
000 129 2 0 1.7972e+09 1.79745e+09 1.79847e+09 1.80216e+09 1
000 130 2 0 1.8111e+09 1.81135e+09 1.81237e+09 1.81733e+09 1
000 131 1 0 1.82727e+09 1.82753e+09 1.82855e+09 1.8301e+09 0
001 132 1 1 1.83294e+09 1.83319e+09 1.83421e+09 1.83495e+09 0
000 133 1 0 1.84336e+09 1.84362e+09 1.84464e+09 1.8448e+09 1
001 134 2 1 1.85019e+09 1.85043e+09 1.85145e+09 1.85174e+09 0
001 135 2 0 1.85448e+09 1.85475e+09 1.85577e+09 1.86289e+09 0
000 136 2 0 1.87025e+09 1.87051e+09 1.87153e+09 1.87401e+09 1
000 137 2 1 1.88124e+09 1.88149e+09 1.88251e+09 1.88276e+09 1
001 138 1 1 1.89257e+09 1.89283e+09 1.89385e+09 1.89407e+09 0
000 139 1 0 1.90128e+09 1.90153e+09 1.90255e+09 1.90256e+09 1
001 140 2 0 1.90543e+09 1.90568e+09 1.9067e+09 1.90699e+09 0
000 141 2 0 1.91813e+09 1.91839e+09 1.91941e+09 1.92113e+09 1
000 142 2 0 1.93145e+09 1.93171e+09 1.93273e+09 1.93372e+09 1
000 143 2 1 1.94161e+09 1.94187e+09 1.94288e+09 1.94533e+09 1
001 144 2 1 1.95127e+09 1.95152e+09 1.95254e+09 1.95416e+09 0
001 145 1 0 1.96162e+09 1.96188e+09 1.9629e+09 1.97146e+09 0
001 146 2 0 1.97423e+09 1.97449e+09 1.97551e+09 1.98091e+09 0
000 147 2 0 1.98962e+09 1.98988e+09 1.9909e+09 1.9926e+09 1
000 148 2 0 2.0001e+09 2.00036e+09 2.00138e+09 2.00535e+09 1
000 149 2 1 2.01272e+09 2.01298e+09 2.014e+09 2.01401e+09 1
001 150 1 0 2.01688e+09 2.01713e+09 2.01815e+09 2.01837e+09 0
001 151 1 1 2.02132e+09 2.02159e+09 2.02261e+09 2.02261e+09 0
000 152 1 0 2.03254e+09 2.03279e+09 2.03381e+09 2.03389e+09 1
001 153 2 1 2.03647e+09 2.03672e+09 2.03774e+09 2.0388e+09 0
001 154 1 1 2.04878e+09 2.04905e+09 2.05006e+09 2.05009e+09 0
000 155 1 0 2.05759e+09 2.05784e+09 2.05886e+09 2.06079e+09 1
001 156 2 1 2.06699e+09 2.06725e+09 2.06827e+09 2.07064e+09 0
001 157 2 1 2.07915e+09 2.07941e+09 2.08043e+09 2.08043e+09 0
001 158 2 1 2.08904e+09 2.0893e+09 2.09032e+09 2.09034e+09 0
001 159 2 0 2.09726e+09 2.09753e+09 2.09855e+09 2.09866e+09 0
000 160 2 1 2.10616e+09 2.10642e+09 2.10744e+09 2.10744e+09 1
001 161 2 0 2.11434e+09 2.1146e+09 2.11562e+09 2.1187e+09 0
000 162 2 0 2.12574e+09 2.12599e+09 2.12701e+09 2.1323e+09 1
000 163 2 0 2.13965e+09 2.13991e+09 2.14093e+09 2.14102e+09 1
000 164 2 0 2.14872e+09 2.14897e+09 2.14999e+09 2.15008e+09 1
000 165 2 1 2.15781e+09 2.15806e+09 2.15908e+09 2.16263e+09 0
001 166 2 0 2.16577e+09 2.16604e+09 2.16706e+09 2.16721e+09 0
000 167 2 1 2.17758e+09 2.17783e+09 2.17885e+09 2.17886e+09 1
001 168 2 0 2.1882e+09 2.18846e+09 2.18948e+09 2.18977e+09 0
000 169 2 1 2.19956e+09 2.19982e+09 2.20084e+09 2.20118e+09 1
001 170 1 0 2.20371e+09 2.20396e+09 2.20498e+09 2.20645e+09 0
001 171 2 1 2.21482e+09 2.21508e+09 2.2161e+09 2.21618e+09 0
001 172 1 1 2.21958e+09 2.21984e+09 2.22086e+09 2.2235e+09 0
000 173 1 1 2.23324e+09 2.2335e+09 2.23452e+09 2.23454e+09 1
000 174 1 0 2.24181e+09 2.24206e+09 2.24308e+09 2.24673e+09 1
001 175 2 0 2.24956e+09 2.24982e+09 2.25084e+09 2.25129e+09 0
000 176 2 0 2.25842e+09 2.25868e+09 2.2597e+09 2.2629e+09 1
000 177 2 0 2.26998e+09 2.27023e+09 2.27125e+09 2.27133e+09 1
000 178 2 0 2.27872e+09 2.27897e+09 2.27999e+09 2.2818e+09 1
000 179 1 1 2.28902e+09 2.28928e+09 2.2903e+09 2.29164e+09 0
000 180 1 0 2.29996e+09 2.30022e+09 2.30124e+09 2.30136e+09 0
001 181 1 1 2.30967e+09 2.30992e+09 2.31094e+09 2.31101e+09 0
000 182 1 1 2.31825e+09 2.31851e+09 2.31953e+09 2.31963e+09 1
000 183 1 0 2.32722e+09 2.32747e+09 2.32849e+09 2.33023e+09 1
001 184 2 1 2.33274e+09 2.33299e+09 2.33401e+09 2.33481e+09 0
001 185 2 1 2.33891e+09 2.33917e+09 2.34019e+09 2.34297e+09 0
001 186 1 0 2.34584e+09 2.3461e+09 2.34712e+09 2.34874e+09 0
001 187 1 1 2.35487e+09 2.35511e+09 2.35613e+09 2.36466e+09 0
000 188 1 0 2.37427e+09 2.37452e+09 2.37554e+09 2.37616e+09 1
001 189 2 0 2.38113e+09 2.38138e+09 2.3824e+09 2.38252e+09 0
000 190 2 0 2.38998e+09 2.39023e+09 2.39125e+09 2.39127e+09 1
000 191 2 1 2.39911e+09 2.39938e+09 2.4004e+09 2.40059e+09 1
001 192 1 0 2.41066e+09 2.41091e+09 2.41193e+09 2.41323e+09 0
001 193 2 0 2.41825e+09 2.4185e+09 2.41952e+09 2.42146e+09 0
000 194 2 1 2.42892e+09 2.42918e+09 2.4302e+09 2.4302e+09 1
001 195 1 0 2.43283e+09 2.43308e+09 2.4341e+09 2.44706e+09 0
001 196 1 0 2.454e+09 2.45425e+09 2.45527e+09 2.45529e+09 0
001 197 2 0 2.4599e+09 2.46016e+09 2.46118e+09 2.46207e+09 0
000 198 2 0 2.47057e+09 2.47082e+09 2.47184e+09 2.47325e+09 1
000 199 2 1 2.48046e+09 2.48072e+09 2.48174e+09 2.48183e+09 1
001 200 1 1 2.487e+09 2.48725e+09 2.48827e+09 2.49077e+09 0
000 201 1 0 2.49805e+09 2.49829e+09 2.49931e+09 2.49987e+09 1
001 202 1 0 2.50783e+09 2.50809e+09 2.50911e+09 2.50921e+09 0
001 203 2 0 2.51757e+09 2.51782e+09 2.51884e+09 2.51891e+09 0
000 204 2 1 2.52634e+09 2.5266e+09 2.52762e+09 2.52762e+09 1
001 205 2 1 2.53344e+09 2.5337e+09 2.53472e+09 2.53475e+09 0
001 206 1 1 2.5388e+09 2.53906e+09 2.54008e+09 2.54047e+09 0
000 207 1 0 2.54799e+09 2.54826e+09 2.54928e+09 2.55296e+09 1
001 208 2 0 2.55549e+09 2.55573e+09 2.55675e+09 2.55688e+09 0
000 209 2 1 2.5654e+09 2.56565e+09 2.56667e+09 2.56676e+09 1
001 210 2 0 2.57442e+09 2.57467e+09 2.57569e+09 2.58116e+09 0
000 211 2 1 2.59108e+09 2.59134e+09 2.59236e+09 2.59257e+09 1
001 212 1 1 2.59513e+09 2.59537e+09 2.59639e+09 2.59765e+09 0
000 213 1 0 2.60585e+09 2.6061e+09 2.60712e+09 2.61216e+09 1
001 214 1 1 2.61485e+09 2.6151e+09 2.61612e+09 2.61639e+09 0
000 215 1 1 2.62483e+09 2.62508e+09 2.6261e+09 2.62693e+09 1
000 216 1 1 2.63538e+09 2.63564e+09 2.63666e+09 2.63666e+09 1
000 217 1 1 2.64565e+09 2.64591e+09 2.64693e+09 2.66244e+09 1
000 218 2 0 2.66991e+09 2.67017e+09 2.67119e+09 2.67128e+09 0
000 219 1 0 2.68028e+09 2.68053e+09 2.68155e+09 2.68245e+09 0
001 220 1 0 2.68507e+09 2.68532e+09 2.68634e+09 2.68648e+09 0
001 221 2 0 2.69077e+09 2.69104e+09 2.69206e+09 2.69245e+09 0
000 222 2 1 2.70175e+09 2.70201e+09 2.70302e+09 2.70314e+09 1
001 223 2 0 2.70614e+09 2.70639e+09 2.70741e+09 2.70741e+09 0
000 224 2 0 2.71506e+09 2.71531e+09 2.71633e+09 2.7219e+09 1
000 225 2 0 2.72919e+09 2.72944e+09 2.73046e+09 2.73051e+09 1
000 226 2 0 2.73798e+09 2.73824e+09 2.73926e+09 2.7431e+09 1
000 227 2 0 2.75058e+09 2.75085e+09 2.75187e+09 2.75216e+09 0
000 228 1 0 2.76479e+09 2.76504e+09 2.76606e+09 2.76645e+09 0
001 229 2 1 2.769e+09 2.76925e+09 2.77027e+09 2.77057e+09 0
001 230 2 0 2.77676e+09 2.77702e+09 2.77804e+09 2.77954e+09 0
000 231 2 1 2.78804e+09 2.7883e+09 2.78932e+09 2.78944e+09 1
001 232 1 1 2.79199e+09 2.79225e+09 2.79327e+09 2.7935e+09 0
000 233 1 0 2.80061e+09 2.80087e+09 2.80189e+09 2.80236e+09 1
001 234 1 0 2.80536e+09 2.80562e+09 2.80664e+09 2.8067e+09 0
001 235 2 0 2.81295e+09 2.8132e+09 2.81422e+09 2.81438e+09 0
000 236 2 0 2.82169e+09 2.82194e+09 2.82296e+09 2.8231e+09 1
000 237 2 1 2.83055e+09 2.83081e+09 2.83183e+09 2.83184e+09 1
001 238 2 1 2.83739e+09 2.83764e+09 2.83866e+09 2.83904e+09 0
001 239 2 0 2.84309e+09 2.84334e+09 2.84436e+09 2.84458e+09 0
000 240 2 1 2.85188e+09 2.85214e+09 2.85316e+09 2.85317e+09 1
001 241 2 0 2.85584e+09 2.85609e+09 2.85711e+09 2.85717e+09 0
000 242 2 0 2.86649e+09 2.86674e+09 2.86776e+09 2.86791e+09 1
000 243 2 0 2.8762e+09 2.87646e+09 2.87748e+09 2.87803e+09 1
000 244 2 1 2.88507e+09 2.88532e+09 2.88634e+09 2.88696e+09 1
001 245 2 0 2.88992e+09 2.89018e+09 2.89119e+09 2.89248e+09 0
000 246 2 0 2.89964e+09 2.8999e+09 2.90092e+09 2.91305e+09 1
000 247 2 0 2.92065e+09 2.9209e+09 2.92192e+09 2.92292e+09 1
000 248 2 0 2.93096e+09 2.93122e+09 2.93224e+09 2.93336e+09 1
000 249 1 0 2.94204e+09 2.94228e+09 2.9433e+09 2.94816e+09 0
001 250 2 0 2.951e+09 2.95124e+09 2.95226e+09 2.95227e+09 0
000 251 2 0 2.95967e+09 2.95993e+09 2.96095e+09 2.96117e+09 1
000 252 2 0 2.96834e+09 2.96859e+09 2.96961e+09 2.97511e+09 1
000 253 2 0 2.98246e+09 2.98271e+09 2.98372e+09 2.98532e+09 1
000 254 2 1 2.99355e+09 2.99381e+09 2.99483e+09 2.99648e+09 0
001 255 1 0 3.00303e+09 3.00328e+09 3.0043e+09 3.00641e+09 0
001 256 1 0 3.00925e+09 3.0095e+09 3.01052e+09 3.01062e+09 0
001 257 2 0 3.0172e+09 3.01745e+09 3.01847e+09 3.021e+09 0
000 258 2 1 3.02879e+09 3.02905e+09 3.03006e+09 3.03533e+09 1
001 259 2 0 3.04e+09 3.04026e+09 3.04128e+09 3.04388e+09 0
000 260 2 1 3.05092e+09 3.05118e+09 3.0522e+09 3.05453e+09 1
001 261 2 0 3.06106e+09 3.06131e+09 3.06233e+09 3.06236e+09 0
000 262 2 0 3.06966e+09 3.06992e+09 3.07094e+09 3.07521e+09 1
000 263 2 0 3.08225e+09 3.0825e+09 3.08352e+09 3.08373e+09 1
000 264 2 0 3.09094e+09 3.0912e+09 3.09222e+09 3.09433e+09 1
000 265 2 1 3.10184e+09 3.10209e+09 3.10311e+09 3.10728e+09 0
001 266 2 1 3.11556e+09 3.11581e+09 3.11683e+09 3.11688e+09 0
001 267 1 0 3.12295e+09 3.1232e+09 3.12422e+09 3.12755e+09 0
001 268 1 0 3.13031e+09 3.13057e+09 3.13158e+09 3.1334e+09 0
001 269 1 1 3.13614e+09 3.13639e+09 3.13741e+09 3.13778e+09 0
000 270 1 0 3.14486e+09 3.14512e+09 3.14614e+09 3.14626e+09 1
001 271 2 1 3.15566e+09 3.15591e+09 3.15693e+09 3.15722e+09 0
001 272 1 0 3.15973e+09 3.16e+09 3.16102e+09 3.16102e+09 0
001 273 1 0 3.16893e+09 3.16918e+09 3.1702e+09 3.17029e+09 0
001 274 1 0 3.17592e+09 3.17619e+09 3.17721e+09 3.17732e+09 0
001 275 2 1 3.18333e+09 3.1836e+09 3.18462e+09 3.1849e+09 0
001 276 1 0 3.18945e+09 3.18971e+09 3.19073e+09 3.19206e+09 0
001 277 1 0 3.19776e+09 3.198e+09 3.19902e+09 3.20079e+09 0
001 278 1 1 3.20735e+09 3.2076e+09 3.20862e+09 3.20867e+09 0
000 279 1 0 3.21576e+09 3.21602e+09 3.21704e+09 3.25109e+09 1
001 280 2 0 3.25375e+09 3.254e+09 3.25502e+09 3.25526e+09 0
000 281 2 1 3.26277e+09 3.26302e+09 3.26404e+09 3.26572e+09 1
001 282 2 0 3.26863e+09 3.26887e+09 3.26989e+09 3.29422e+09 0
000 283 2 0 3.30131e+09 3.30157e+09 3.30259e+09 3.30553e+09 1
000 284 2 0 3.31285e+09 3.31311e+09 3.31413e+09 3.31529e+09 1
000 285 2 0 3.32232e+09 3.32257e+09 3.32359e+09 3.32637e+09 1
000 286 1 0 3.33384e+09 3.33409e+09 3.33511e+09 3.3373e+09 0
001 287 1 1 3.34006e+09 3.34031e+09 3.34133e+09 3.34271e+09 0
000 288 1 0 3.34994e+09 3.35019e+09 3.35121e+09 3.3571e+09 1
001 289 1 0 3.3672e+09 3.36747e+09 3.36849e+09 3.36919e+09 0
001 290 2 1 3.37188e+09 3.37213e+09 3.37314e+09 3.37327e+09 0
001 291 1 0 3.37816e+09 3.37841e+09 3.37943e+09 3.37988e+09 0
001 292 1 0 3.38252e+09 3.38277e+09 3.38379e+09 3.386e+09 0
001 293 1 1 3.3902e+09 3.39046e+09 3.39148e+09 3.39158e+09 0
000 294 1 0 3.40236e+09 3.40261e+09 3.40363e+09 3.40615e+09 1
001 295 2 0 3.4113e+09 3.41156e+09 3.41258e+09 3.41495e+09 0
000 296 2 0 3.4221e+09 3.42236e+09 3.42338e+09 3.4238e+09 1
000 297 2 0 3.43192e+09 3.43217e+09 3.43319e+09 3.43484e+09 1
000 298 2 1 3.44732e+09 3.44758e+09 3.4486e+09 3.4499e+09 1
001 299 2 0 3.45716e+09 3.45741e+09 3.45843e+09 3.45848e+09 0
000 300 2 0 3.4657e+09 3.46595e+09 3.46697e+09 3.46751e+09 1
000 301 2 0 3.47459e+09 3.47485e+09 3.47587e+09 3.48055e+09 1
000 302 2 0 3.48781e+09 3.48806e+09 3.48908e+09 3.49111e+09 1
000 303 1 0 3.49834e+09 3.49859e+09 3.49961e+09 3.50665e+09 0
001 304 2 1 3.50951e+09 3.50977e+09 3.51079e+09 3.5371e+09 0
001 305 2 0 3.54001e+09 3.54026e+09 3.54128e+09 3.5456e+09 0
000 306 2 1 3.55307e+09 3.55333e+09 3.55435e+09 3.55543e+09 1
001 307 1 0 3.56247e+09 3.56272e+09 3.56374e+09 3.56896e+09 0
001 308 2 0 3.57323e+09 3.57348e+09 3.5745e+09 3.58991e+09 0
000 309 2 0 3.59696e+09 3.59722e+09 3.59824e+09 3.61251e+09 1
000 310 2 1 3.61994e+09 3.6202e+09 3.62122e+09 3.62204e+09 1
001 311 1 0 3.62515e+09 3.6254e+09 3.62642e+09 3.65516e+09 0
001 312 1 0 3.6578e+09 3.65806e+09 3.65908e+09 3.67195e+09 0
001 313 1 0 3.67453e+09 3.67478e+09 3.6758e+09 3.6889e+09 0
001 314 1 0 3.6919e+09 3.69215e+09 3.69317e+09 3.69346e+09 0
001 315 2 0 3.69933e+09 3.69958e+09 3.7006e+09 3.71117e+09 0
000 316 2 0 3.71847e+09 3.71872e+09 3.71974e+09 3.73026e+09 1
000 317 2 0 3.73766e+09 3.7379e+09 3.73892e+09 3.74025e+09 1
000 318 2 0 3.7475e+09 3.74775e+09 3.74877e+09 3.75392e+09 1
000 319 2 0 3.76321e+09 3.76347e+09 3.76449e+09 3.78661e+09 0
000 320 1 0 3.79381e+09 3.79406e+09 3.79508e+09 3.79553e+09 0
001 321 1 0 3.79873e+09 3.79898e+09 3.8e+09 3.8038e+09 0
001 322 2 0 3.80768e+09 3.80793e+09 3.80895e+09 3.8112e+09 0
000 323 2 1 3.81835e+09 3.81861e+09 3.81963e+09 3.82502e+09 1
001 324 1 1 3.83042e+09 3.83068e+09 3.8317e+09 3.88021e+09 0
000 325 1 1 3.88747e+09 3.88773e+09 3.88874e+09 3.93394e+09 1
000 326 1 1 3.94124e+09 3.94148e+09 3.9425e+09 3.96255e+09 1
000 327 1 1 3.96973e+09 3.96997e+09 3.97099e+09 4.00115e+09 1
000 328 2 0 4.00846e+09 4.00871e+09 4.00973e+09 4.04353e+09 0
000 329 2 0 4.05065e+09 4.0509e+09 4.05192e+09 4.08279e+09 0
000 330 2 0 4.08998e+09 4.09023e+09 4.09125e+09 4.10373e+09 0
000 331 2 0 4.11215e+09 4.1124e+09 4.11342e+09 4.13054e+09 0
000 332 1 0 4.13801e+09 4.13826e+09 4.13928e+09 4.15024e+09 0
001 333 1 1 4.1536e+09 4.15386e+09 4.15488e+09 4.16021e+09 0
000 334 1 1 4.16754e+09 4.16779e+09 4.16881e+09 4.17106e+09 1
000 335 1 1 4.17846e+09 4.1787e+09 4.17972e+09 4.18231e+09 1
000 336 1 0 4.18954e+09 4.18979e+09 4.19081e+09 4.19698e+09 1
001 337 1 1 4.20024e+09 4.2005e+09 4.20152e+09 4.26758e+09 0
000 338 1 1 4.27508e+09 4.27534e+09 4.27636e+09 4.27639e+09 1
000 339 1 0 4.28385e+09 4.2841e+09 4.28512e+09 6.92024e+06 1
001 340 2 0 1.18917e+07 1.215e+07 1.31696e+07 3.68687e+07 0
000 341 2 0 4.57175e+07 4.5961e+07 4.69806e+07 6.43106e+07 1
000 342 2 1 7.15776e+07 7.18284e+07 7.2848e+07 7.95217e+07 1
001 343 2 0 8.32082e+07 8.34501e+07 8.44697e+07 1.03985e+08 0
000 344 2 0 1.12098e+08 1.12351e+08 1.13371e+08 1.18009e+08 1
000 345 2 0 1.26082e+08 1.26336e+08 1.27355e+08 1.3419e+08 1
000 346 2 0 1.42639e+08 1.42891e+08 1.43911e+08 1.53908e+08 1
000 347 2 0 1.6099e+08 1.6124e+08 1.6226e+08 1.89058e+08 0
000 348 2 0 1.96568e+08 1.96826e+08 1.97845e+08 2.03326e+08 0
000 349 2 1 2.13855e+08 2.14107e+08 2.15126e+08 2.21871e+08 0
001 350 1 1 2.25459e+08 2.25715e+08 2.26735e+08 2.83968e+08 0
000 351 1 0 2.91116e+08 2.91373e+08 2.92393e+08 2.97797e+08 1
001 352 1 0 3.02192e+08 3.02448e+08 3.03468e+08 3.09724e+08 0
001 353 1 0 3.12327e+08 3.12578e+08 3.13598e+08 3.14856e+08 0
001 354 2 1 3.1773e+08 3.17988e+08 3.19008e+08 3.20159e+08 0
001 355 2 0 3.25128e+08 3.25372e+08 3.26391e+08 3.62152e+08 0
000 356 2 0 3.6961e+08 3.69869e+08 3.70889e+08 3.71526e+08 1
000 357 2 0 3.7891e+08 3.79169e+08 3.80189e+08 3.81281e+08 1
000 358 2 0 3.89015e+08 3.89263e+08 3.90283e+08 4.03986e+08 1
000 359 2 0 4.11307e+08 4.11555e+08 4.12575e+08 4.38523e+08 0
000 360 1 0 4.45627e+08 4.45885e+08 4.46905e+08 5.02398e+08 0
001 361 1 0 5.05705e+08 5.05964e+08 5.06984e+08 5.08375e+08 0
001 362 2 1 5.10991e+08 5.11245e+08 5.12265e+08 5.16827e+08 0
001 363 2 1 5.20564e+08 5.20818e+08 5.21837e+08 5.23409e+08 0
001 364 2 0 5.30297e+08 5.30542e+08 5.31562e+08 5.88053e+08 0
000 365 2 0 5.95506e+08 5.95758e+08 5.96778e+08 6.26263e+08 1
000 366 2 1 6.3377e+08 6.34021e+08 6.3504e+08 6.82735e+08 1
001 367 2 1 6.85496e+08 6.85744e+08 6.86764e+08 6.89715e+08 0
001 368 2 1 6.92893e+08 6.93142e+08 6.94161e+08 7.36017e+08 0
001 369 2 1 7.38912e+08 7.39165e+08 7.40185e+08 8.6456e+08 0
001 370 1 0 8.69463e+08 8.69719e+08 8.70739e+08 9.55422e+08 0
001 371 1 0 9.59098e+08 9.59347e+08 9.60367e+08 9.72556e+08 0
001 372 2 0 9.75172e+08 9.75423e+08 9.76443e+08 9.77128e+08 0
000 373 2 0 9.84411e+08 9.84655e+08 9.85674e+08 9.96519e+08 1
000 374 2 0 1.00437e+09 1.00461e+09 1.00563e+09 1.01207e+09 1
000 375 2 0 1.01927e+09 1.01952e+09 1.02054e+09 1.02858e+09 1
000 376 1 1 1.03612e+09 1.03637e+09 1.03739e+09 1.03751e+09 0
000 377 2 0 1.04501e+09 1.04526e+09 1.04628e+09 1.07444e+09 0
000 378 1 1 1.08195e+09 1.0822e+09 1.08322e+09 1.14142e+09 0
000 379 1 1 1.14884e+09 1.1491e+09 1.15012e+09 1.15119e+09 0
000 380 2 1 1.15843e+09 1.15868e+09 1.1597e+09 1.17072e+09 0
001 381 1 0 1.17404e+09 1.17429e+09 1.17531e+09 1.195e+09 0
001 382 2 0 1.19761e+09 1.19787e+09 1.19888e+09 1.20518e+09 0
000 383 2 0 1.2126e+09 1.21285e+09 1.21387e+09 1.21598e+09 1
000 384 2 0 1.22567e+09 1.22593e+09 1.22695e+09 1.2469e+09 1
000 385 2 0 1.25439e+09 1.25465e+09 1.25567e+09 1.25585e+09 1
000 386 2 0 1.26451e+09 1.26476e+09 1.26578e+09 1.279e+09 0
000 387 1 1 1.29034e+09 1.29059e+09 1.29161e+09 1.30292e+09 0
000 388 2 1 1.31023e+09 1.31048e+09 1.3115e+09 1.34513e+09 0
001 389 1 0 1.34804e+09 1.3483e+09 1.34932e+09 1.35328e+09 0
001 390 2 0 1.35581e+09 1.35606e+09 1.35708e+09 1.3606e+09 0
000 391 2 1 1.36767e+09 1.36792e+09 1.36894e+09 1.37606e+09 1
001 392 1 1 1.37983e+09 1.38008e+09 1.3811e+09 1.40252e+09 0
000 393 1 1 1.40955e+09 1.4098e+09 1.41082e+09 1.46296e+09 1
000 394 1 0 1.47016e+09 1.47042e+09 1.47144e+09 1.49324e+09 1
001 395 2 0 1.49657e+09 1.49682e+09 1.49784e+09 1.57976e+09 0
000 396 2 0 1.58723e+09 1.58748e+09 1.5885e+09 1.66233e+09 1
000 