trial trialType response stillTime stimOnset stimOffset respTime correctionTrial correct
001 2 1 3.44168e+06 3.73782e+06 4.75743e+06 2.01315e+07 0 1
002 2 1 2.80126e+07 2.82691e+07 2.92887e+07 2.93076e+07 0 1
003 1 0 3.19253e+07 3.21971e+07 3.32167e+07 3.63386e+07 0 1
004 2 0 3.90666e+07 3.93248e+07 4.03444e+07 4.07e+07 0 0
005 2 1 5.70296e+07 5.729e+07 5.83096e+07 5.86581e+07 1 1
006 2 0 6.16653e+07 6.19246e+07 6.29442e+07 7.01556e+07 0 0
007 2 0 7.82142e+07 7.84642e+07 7.94838e+07 8.13054e+07 1 0
008 2 0 8.87091e+07 8.89683e+07 8.99879e+07 9.17162e+07 1 0
009 2 1 9.94007e+07 9.96623e+07 1.00682e+08 1.01913e+08 1 1
010 2 0 1.07416e+08 1.07691e+08 1.08711e+08 1.10184e+08 0 0
011 2 1 1.19655e+08 1.19922e+08 1.20942e+08 1.20952e+08 1 1
012 2 0 1.23773e+08 1.24038e+08 1.25058e+08 1.25983e+08 0 0
013 2 1 1.33617e+08 1.33873e+08 1.34892e+08 1.34914e+08 1 1
014 1 1 1.38249e+08 1.3851e+08 1.3953e+08 1.42341e+08 0 0
015 1 0 1.50112e+08 1.50377e+08 1.51396e+08 1.52423e+08 1 1
016 2 0 1.58513e+08 1.5878e+08 1.59799e+08 1.6014e+08 0 0
017 2 1 1.72196e+08 1.72452e+08 1.73472e+08 1.73678e+08 1 1
018 1 1 1.84246e+08 1.84508e+08 1.85527e+08 1.85555e+08 0 0
019 1 1 1.95335e+08 1.95592e+08 1.96612e+08 1.97461e+08 1 0
020 1 1 2.05219e+08 2.05473e+08 2.06493e+08 2.08722e+08 1 0
021 1 0 2.16057e+08 2.16313e+08 2.17333e+08 2.33077e+08 1 1
022 1 1 2.35798e+08 2.36065e+08 2.37084e+08 2.37302e+08 0 0
023 1 0 2.44551e+08 2.44812e+08 2.45832e+08 2.56467e+08 1 1
024 2 0 2.60824e+08 2.61087e+08 2.62107e+08 2.67093e+08 0 0
025 2 1 2.74198e+08 2.74463e+08 2.75482e+08 2.76399e+08 1 1
026 1 0 2.79358e+08 2.7962e+08 2.8064e+08 2.82141e+08 0 1
027 2 0 2.86086e+08 2.86339e+08 2.87359e+08 2.87374e+08 0 0
028 2 0 2.99824e+08 3.0009e+08 3.01109e+08 3.02589e+08 1 0
029 2 0 3.15389e+08 3.1565e+08 3.1667e+08 3.17787e+08 1 0
030 2 1 3.26255e+08 3.26518e+08 3.27538e+08 3.28719e+08 1 1
031 2 1 3.32209e+08 3.32466e+08 3.33486e+08 3.33996e+08 0 1
032 1 0 3.46868e+08 3.47119e+08 3.48138e+08 3.48274e+08 0 1
033 1 0 3.51966e+08 3.52238e+08 3.53258e+08 3.53563e+08 0 1
034 1 0 3.592e+08 3.59464e+08 3.60483e+08 3.61353e+08 0 1
035 2 1 3.68425e+08 3.68685e+08 3.69704e+08 3.6971e+08 0 1
036 2 0 3.75545e+08 3.75797e+08 3.76817e+08 3.77288e+08 0 0
037 2 1 3.87496e+08 3.87757e+08 3.88776e+08 3.90854e+08 1 1
038 2 0 3.97955e+08 3.98219e+08 3.99239e+08 3.99767e+08 0 0
039 2 0 4.08755e+08 4.09016e+08 4.10035e+08 4.10583e+08 1 0
040 2 1 4.21271e+08 4.21526e+08 4.22546e+08 4.2395e+08 1 1
041 1 1 4.345e+08 4.34761e+08 4.35781e+08 4.36254e+08 0 0
042 1 0 4.49585e+08 4.49833e+08 4.50852e+08 4.51564e+08 1 1
043 2 1 4.57584e+08 4.57844e+08 4.58863e+08 4.59419e+08 0 1
044 2 0 4.66449e+08 4.66702e+08 4.67722e+08 4.68035e+08 0 0
045 2 1 4.7822e+08 4.78471e+08 4.7949e+08 4.81048e+08 1 1
046 1 1 4.84856e+08 4.85119e+08 4.86138e+08 4.87329e+08 0 0
047 1 1 4.96957e+08 4.97218e+08 4.98238e+08 5.0423e+08 1 0
048 1 1 5.12243e+08 5.12496e+08 5.13516e+08 5.13738e+08 1 0
049 1 0 5.20973e+08 5.21223e+08 5.22243e+08 5.25937e+08 1 1
050 1 1 5.34625e+08 5.34885e+08 5.35905e+08 5.35914e+08 0 0
051 1 1 5.43297e+08 5.43548e+08 5.44568e+08 5.44626e+08 1 0
052 1 0 5.54467e+08 5.54723e+08 5.55742e+08 5.58016e+08 1 1
053 2 1 5.6321e+08 5.63468e+08 5.64487e+08 5.72114e+08 0 1
054 1 0 5.8044e+08 5.80705e+08 5.81724e+08 5.8851e+08 0 1
055 2 0 5.93331e+08 5.93588e+08 5.94608e+08 5.96188e+08 0 0
056 2 0 6.05194e+08 6.05453e+08 6.06473e+08 6.08639e+08 1 0
057 2 0 6.1872e+08 6.1898e+08 6.19999e+08 6.20286e+08 1 0
058 2 1 6.28396e+08 6.28657e+08 6.29676e+08 6.32115e+08 1 1
059 2 1 6.34722e+08 6.34975e+08 6.35994e+08 6.50031e+08 0 1
060 2 1 6.53557e+08 6.53817e+08 6.54837e+08 6.64161e+08 0 1
061 2 1 6.67814e+08 6.68078e+08 6.69098e+08 6.81984e+08 0 1
062 1 1 6.84704e+08 6.8496e+08 6.8598e+08 6.89615e+08 0 0
063 1 0 6.96705e+08 6.96961e+08 6.97981e+08 7.01204e+08 1 1
064 1 1 7.03793e+08 7.04053e+08 7.05073e+08 7.0735e+08 0 0
065 1 1 7.18208e+08 7.1847e+08 7.19489e+08 7.1962e+08 1 0
066 1 1 7.27857e+08 7.28105e+08 7.29124e+08 7.29137e+08 1 0
067 1 1 7.41922e+08 7.42172e+08 7.43192e+08 7.44356e+08 1 0
068 1 1 7.6196e+08 7.62221e+08 7.6324e+08 7.63979e+08 0 0
069 1 1 7.7305e+08 7.73311e+08 7.74331e+08 7.75451e+08 0 0
070 2 0 7.8297e+08 7.83229e+08 7.84249e+08 7.85085e+08 0 0
071 2 0 7.93382e+08 7.93643e+08 7.94663e+08 7.96004e+08 0 0
072 1 0 8.04141e+08 8.04404e+08 8.05424e+08 8.06416e+08 0 1
073 1 1 8.16313e+08 8.16574e+08 8.17594e+08 8.17628e+08 0 0
074 1 0 8.26949e+08 8.2721e+08 8.2823e+08 8.28914e+08 1 1
075 2 0 8.46622e+08 8.46886e+08 8.47906e+08 8.49843e+08 0 0
076 2 0 8.61733e+08 8.61992e+08 8.63012e+08 8.65252e+08 1 0
077 2 0 8.74587e+08 8.74837e+08 8.75856e+08 8.76778e+08 1 0
078 2 1 8.84584e+08 8.84837e+08 8.85857e+08 8.86896e+08 1 1
079 2 0 8.92099e+08 8.92355e+08 8.93374e+08 8.93804e+08 0 0
080 2 1 9.08876e+08 9.0913e+08 9.10149e+08 9.10749e+08 1 1
081 2 0 9.17522e+08 9.17785e+08 9.18804e+08 9.20408e+08 0 0
082 2 0 9.27916e+08 9.2818e+08 9.29199e+08 9.31688e+08 1 0
083 2 1 9.40502e+08 9.40756e+08 9.41776e+08 9.43024e+08 1 1
084 1 1 9.45606e+08 9.45866e+08 9.46886e+08 9.4693e+08 0 0
085 1 0 9.57103e+08 9.5737e+08 9.58389e+08 9.60043e+08 1 1
086 1 0 9.64196e+08 9.6446e+08 9.6548e+08 9.66183e+08 0 1
087 2 1 9.7038e+08 9.7064e+08 9.7166e+08 9.74316e+08 0 1
088 2 0 9.79591e+08 9.79855e+08 9.80875e+08 9.81201e+08 0 0
089 2 1 9.89065e+08 9.89325e+08 9.90344e+08 9.91947e+08 1 1
090 1 0 9.99345e+08 9.99596e+08 1.00062e+09 1.00486e+09 0 1
091 2 1 1.00904e+09 1.00929e+09 1.01031e+09 1.01172e+09 0 1
092 2 0 1.01663e+09 1.01688e+09 1.0179e+09 1.01837e+09 0 0
093 2 1 1.02653e+09 1.02679e+09 1.02781e+09 1.029e+09 1 1
094 1 0 1.03649e+09 1.03675e+09 1.03777e+09 1.0383e+09 0 1
095 2 0 1.04254e+09 1.04279e+09 1.04381e+09 1.04618e+09 0 0
096 2 1 1.05328e+09 1.05353e+09 1.05455e+09 1.05496e+09 1 1
097 2 0 1.05774e+09 1.05799e+09 1.05901e+09 1.06005e+09 0 0
098 2 0 1.06865e+09 1.0689e+09 1.06992e+09 1.0709e+09 1 0
099 2 1 1.08121e+09 1.08148e+09 1.0825e+09 1.08309e+09 1 1
100 2 0 1.08834e+09 1.0886e+09 1.08962e+09 1.09522e+09 0 0
101 2 0 1.1035e+09 1.10377e+09 1.10478e+09 1.10538e+09 1 0
102 2 0 1.11305e+09 1.1133e+09 1.11432e+09 1.11575e+09 1 0
103 2 1 1.12314e+09 1.12341e+09 1.12443e+09 1.12558e+09 1 1
104 1 1 1.13318e+09 1.13345e+09 1.13447e+09 1.13553e+09 0 0
105 1 1 1.14269e+09 1.14294e+09 1.14396e+09 1.14455e+09 1 0
106 1 1 1.15212e+09 1.15237e+09 1.15339e+09 1.15444e+09 1 0
107 1 0 1.16228e+09 1.16254e+09 1.16356e+09 1.16363e+09 1 1
108 2 0 1.16943e+09 1.16968e+09 1.1707e+09 1.17208e+09 0 0
109 2 1 1.18193e+09 1.18219e+09 1.18321e+09 1.18751e+09 1 1
110 1 0 1.19527e+09 1.19552e+09 1.19654e+09 1.19765e+09 0 1
111 2 0 1.20439e+09 1.20465e+09 1.20567e+09 1.20582e+09 0 0
112 2 0 1.21546e+09 1.21572e+09 1.21674e+09 1.21727e+09 1 0
113 2 0 1.22939e+09 1.22965e+09 1.23067e+09 1.23106e+09 1 0
114 2 1 1.24012e+09 1.24037e+09 1.24139e+09 1.24154e+09 1 1
115 2 0 1.24417e+09 1.24442e+09 1.24544e+09 1.24637e+09 0 0
116 2 0 1.25734e+09 1.2576e+09 1.25862e+09 1.25927e+09 1 0
117 2 1 1.27175e+09 1.27201e+09 1.27303e+09 1.27346e+09 1 1
118 1 0 1.28856e+09 1.28882e+09 1.28984e+09 1.28989e+09 0 1
119 1 0 1.30217e+09 1.30245e+09 1.30346e+09 1.30506e+09 0 1
120 1 0 1.30991e+09 1.31018e+09 1.3112e+09 1.3121e+09 0 1
121 1 0 1.32478e+09 1.32503e+09 1.32605e+09 1.32667e+09 0 1
122 1 0 1.33271e+09 1.33296e+09 1.33398e+09 1.33408e+09 0 1
123 1 1 1.34479e+09 1.34504e+09 1.34606e+09 1.3471e+09 0 0
124 1 0 1.35414e+09 1.35441e+09 1.35543e+09 1.35643e+09 1 1
125 1 0 1.36879e+09 1.36904e+09 1.37006e+09 1.37086e+09 0 1
126 1 0 1.39221e+09 1.39246e+09 1.39348e+09 1.39406e+09 0 1
127 1 0 1.40021e+09 1.40046e+09 1.40148e+09 1.40201e+09 0 1
128 1 1 1.40821e+09 1.40847e+09 1.40949e+09 1.40956e+09 0 0
129 1 0 1.42253e+09 1.42279e+09 1.42381e+09 1.42426e+09 1 1
130 2 0 1.43696e+09 1.43721e+09 1.43823e+09 1.43824e+09 0 0
131 2 0 1.44572e+09 1.44596e+09 1.44698e+09 1.44734e+09 1 0
132 2 1 1.45473e+09 1.455e+09 1.45602e+09 1.45839e+09 1 1
133 2 0 1.46996e+09 1.47021e+09 1.47123e+09 1.47146e+09 0 0
134 2 0 1.481e+09 1.48126e+09 1.48228e+09 1.48259e+09 1 0
135 2 1 1.49275e+09 1.493e+09 1.49402e+09 1.49607e+09 1 1
136 1 1 1.50588e+09 1.50613e+09 1.50715e+09 1.50756e+09 0 0
137 1 1 1.51493e+09 1.51518e+09 1.5162e+09 1.51624e+09 1 0
138 1 1 1.52694e+09 1.52719e+09 1.52821e+09 1.5295e+09 1 0
139 1 0 1.53733e+09 1.53758e+09 1.5386e+09 1.54148e+09 1 1
140 2 0 1.54985e+09 1.55011e+09 1.55113e+09 1.552e+09 0 0
141 2 0 1.55913e+09 1.55939e+09 1.56041e+09 1.56463e+09 1 0
142 2 0 1.5734e+09 1.57366e+09 1.57468e+09 1.58586e+09 1 0
143 2 0 1.59345e+09 1.5937e+09 1.59472e+09 1.5993e+09 1 0
144 1 0 1.60658e+09 1.60683e+09 1.60785e+09 1.60951e+09 0 1
145 1 0 1.6184e+09 1.61866e+09 1.61968e+09 1.62001e+09 0 1
146 2 0 1.62862e+09 1.62888e+09 1.6299e+09 1.63028e+09 0 0
147 2 1 1.64325e+09 1.6435e+09 1.64452e+09 1.64546e+09 1 1
148 1 0 1.65317e+09 1.65342e+09 1.65444e+09 1.65469e+09 0 1
149 2 0 1.65928e+09 1.65955e+09 1.66057e+09 1.66067e+09 0 0
150 2 0 1.66771e+09 1.66797e+09 1.66899e+09 1.66924e+09 1 0
151 2 1 1.68247e+09 1.68271e+09 1.68373e+09 1.68374e+09 1 1
152 2 0 1.68782e+09 1.68809e+09 1.68911e+09 1.6898e+09 0 0
153 2 0 1.69914e+09 1.6994e+09 1.70042e+09 1.70118e+09 1 0
154 2 0 1.71038e+09 1.71063e+09 1.71165e+09 1.71183e+09 1 0
155 2 0 1.72023e+09 1.72048e+09 1.7215e+09 1.72197e+09 1 0
156 1 0 1.72979e+09 1.73004e+09 1.73106e+09 1.73112e+09 0 1
157 2 0 1.73683e+09 1.73708e+09 1.7381e+09 1.74028e+09 0 0
158 2 0 1.74758e+09 1.74783e+09 1.74885e+09 1.74919e+09 1 0
159 2 0 1.76186e+09 1.76211e+09 1.76313e+09 1.76429e+09 1 0
160 2 1 1.77144e+09 1.7717e+09 1.77272e+09 1.77463e+09 1 1
161 2 1 1.77838e+09 1.77864e+09 1.77966e+09 1.78017e+09 0 1
162 1 0 1.78496e+09 1.78522e+09 1.78624e+09 1.78628e+09 0 1
163 2 0 1.79371e+09 1.79397e+09 1.79499e+09 1.79723e+09 0 0
164 2 0 1.80494e+09 1.80518e+09 1.8062e+09 1.80678e+09 1 0
165 2 1 1.81721e+09 1.81747e+09 1.81849e+09 1.81852e+09 1 1
166 2 0 1.82419e+09 1.82445e+09 1.82547e+09 1.82566e+09 0 0
167 2 0 1.83853e+09 1.8388e+09 1.83982e+09 1.84441e+09 1 0
168 2 0 1.85674e+09 1.85699e+09 1.85801e+09 1.8594e+09 1 0
169 2 0 1.86836e+09 1.86861e+09 1.86963e+09 1.86979e+09 1 0
170 2 0 1.87819e+09 1.87844e+09 1.87946e+09 1.8795e+09 0 0
171 1 0 1.88821e+09 1.88847e+09 1.88949e+09 1.8902e+09 0 1
172 1 1 1.8988e+09 1.89906e+09 1.90008e+09 1.90267e+09 0 0
173 1 0 1.91067e+09 1.91093e+09 1.91195e+09 1.91375e+09 1 1
174 1 1 1.91647e+09 1.91671e+09 1.91773e+09 1.92232e+09 0 0
175 1 0 1.9297e+09 1.92996e+09 1.93098e+09 1.93191e+09 1 1
176 1 1 1.93634e+09 1.93659e+09 1.93761e+09 1.93875e+09 0 0
177 1 0 1.94708e+09 1.94733e+09 1.94835e+09 1.94852e+09 1 1
178 1 0 1.95404e+09 1.95429e+09 1.95531e+09 1.95534e+09 0 1
179 2 0 1.96149e+09 1.96173e+09 1.96275e+09 1.96332e+09 0 0
180 2 0 1.97448e+09 1.97474e+09 1.97576e+09 1.97591e+09 1 0
181 2 0 1.99013e+09 1.99038e+09 1.9914e+09 1.99221e+09 1 0
182 2 0 2.00318e+09 2.00343e+09 2.00445e+09 2.00477e+09 1 0
183 2 0 2.01213e+09 2.01239e+09 2.01341e+09 2.01356e+09 0 0
184 1 0 2.02069e+09 2.02095e+09 2.02197e+09 2.02644e+09 0 1
185 1 0 2.0423e+09 2.04255e+09 2.04357e+09 2.04505e+09 0 1
186 2 0 2.04956e+09 2.04983e+09 2.05085e+09 2.05129e+09 0 0
187 2 0 2.05973e+09 2.05998e+09 2.061e+09 2.06196e+09 1 0
188 2 1 2.0699e+09 2.07016e+09 2.07118e+09 2.07119e+09 1 1
189 1 1 2.07926e+09 2.07952e+09 2.08054e+09 2.08177e+09 0 0
190 1 0 2.08921e+09 2.08948e+09 2.09049e+09 2.11783e+09 1 1
191 1 1 2.12244e+09 2.12269e+09 2.12371e+09 2.12576e+09 0 0
192 1 1 2.13741e+09 2.13766e+09 2.13868e+09 2.1387e+09 1 0
193 1 0 2.14835e+09 2.14861e+09 2.14963e+09 2.14992e+09 1 1
194 2 0 2.1607e+09 2.16095e+09 2.16197e+09 2.1621e+09 0 0
195 2 1 2.16965e+09 2.16991e+09 2.17093e+09 2.17236e+09 1 1
196 1 0 2.17488e+09 2.17514e+09 2.17616e+09 2.17622e+09 0 1
197 1 0 2.18173e+09 2.18198e+09 2.183e+09 2.18333e+09 0 1
198 1 0 2.18709e+09 2.18735e+09 2.18837e+09 2.18886e+09 0 1
199 2 0 2.19662e+09 2.19687e+09 2.19789e+09 2.19804e+09 0 0
200 2 0 2.20686e+09 2.20711e+09 2.20813e+09 2.209e+09 1 0
201 2 1 2.21677e+09 2.21703e+09 2.21805e+09 2.22272e+09 1 1
202 2 0 2.22834e+09 2.2286e+09 2.22962e+09 2.23143e+09 0 0
203 2 1 2.23879e+09 2.23904e+09 2.24006e+09 2.24207e+09 1 1
204 2 1 2.25013e+09 2.25038e+09 2.2514e+09 2.25308e+09 0 1
205 1 0 2.26271e+09 2.26297e+09 2.26399e+09 2.26401e+09 0 1
206 1 1 2.26992e+09 2.27019e+09 2.27121e+09 2.27121e+09 0 0
207 1 1 2.28488e+09 2.28513e+09 2.28615e+09 2.28729e+09 1 0
208 1 1 2.29537e+09 2.29562e+09 2.29664e+09 2.29683e+09 1 0
209 1 0 2.30983e+09 2.3101e+09 2.31111e+09 2.31112e+09 1 1
210 2 1 2.31912e+09 2.31938e+09 2.3204e+09 2.32074e+09 0 1
211 2 0 2.32639e+09 2.32664e+09 2.32766e+09 2.32767e+09 0 0
212 2 1 2.33697e+09 2.33723e+09 2.33825e+09 2.33887e+09 1 1
213 2 1 2.34527e+09 2.34553e+09 2.34655e+09 2.34656e+09 0 1
214 2 0 2.35179e+09 2.35204e+09 2.35306e+09 2.35431e+09 0 0
215 2 1 2.36158e+09 2.36184e+09 2.36286e+09 2.36329e+09 1 1
216 2 0 2.36952e+09 2.36977e+09 2.37079e+09 2.37121e+09 0 0
217 2 0 2.37854e+09 2.37879e+09 2.37981e+09 2.38009e+09 1 0
218 2 1 2.38974e+09 2.39e+09 2.39102e+09 2.3912e+09 1 1
219 1 1 2.39984e+09 2.40009e+09 2.40111e+09 2.40191e+09 0 0
220 1 1 2.40984e+09 2.4101e+09 2.41112e+09 2.41181e+09 1 0
221 1 1 2.41981e+09 2.42007e+09 2.42109e+09 2.42115e+09 1 0
222 1 0 2.44137e+09 2.44162e+09 2.44264e+09 2.44436e+09 1 1
223 1 0 2.44735e+09 2.44762e+09 2.44864e+09 2.44928e+09 0 1
224 1 0 2.4569e+09 2.45716e+09 2.45818e+09 2.45821e+09 0 1
225 2 0 2.46567e+09 2.46592e+09 2.46694e+09 2.46695e+09 0 0
226 2 0 2.47547e+09 2.47572e+09 2.47674e+09 2.47838e+09 1 0
227 2 1 2.48579e+09 2.48604e+09 2.48706e+09 2.48731e+09 1 1
228 2 0 2.50033e+09 2.50059e+09 2.50161e+09 2.50185e+09 0 0
229 2 1 2.50992e+09 2.51018e+09 2.5112e+09 2.51123e+09 1 1
230 2 0 2.51704e+09 2.5173e+09 2.51832e+09 2.5205e+09 0 0
231 2 1 2.53169e+09 2.53195e+09 2.53297e+09 2.53303e+09 1 1
232 1 1 2.53826e+09 2.53852e+09 2.53954e+09 2.53958e+09 0 0
233 1 0 2.54737e+09 2.54763e+09 2.54865e+09 2.55011e+09 1 1
234 1 1 2.5554e+09 2.55565e+09 2.55667e+09 2.5573e+09 0 0
235 1 0 2.56486e+09 2.56512e+09 2.56614e+09 2.56618e+09 1 1
236 2 0 2.57512e+09 2.57538e+09 2.5764e+09 2.57671e+09 0 0
237 2 0 2.58662e+09 2.58688e+09 2.5879e+09 2.58793e+09 1 0
238 2 0 2.59733e+09 2.59758e+09 2.5986e+09 2.599e+09 1 0
239 2 1 2.60683e+09 2.60707e+09 2.60809e+09 2.61062e+09 1 1
240 1 1 2.6249e+09 2.62515e+09 2.62617e+09 2.62626e+09 0 0
241 1 0 2.63436e+09 2.63463e+09 2.63565e+09 2.63744e+09 1 1
242 2 1 2.64953e+09 2.64978e+09 2.6508e+09 2.65453e+09 0 1
243 1 0 2.661e+09 2.66126e+09 2.66228e+09 2.66228e+09 0 1
244 1 0 2.6648e+09 2.66506e+09 2.66608e+09 2.6661e+09 0 1
245 2 1 2.69055e+09 2.69081e+09 2.69183e+09 2.69418e+09 0 1
246 2 0 2.69859e+09 2.69885e+09 2.69987e+09 2.69997e+09 0 0
247 2 1 2.70871e+09 2.70895e+09 2.70997e+09 2.71016e+09 1 1
248 1 0 2.71788e+09 2.71813e+09 2.71915e+09 2.72464e+09 0 1
249 2 1 2.73862e+09 2.73887e+09 2.73989e+09 2.74e+09 0 1
250 1 0 2.75436e+09 2.75461e+09 2.75563e+09 2.75608e+09 0 1
251 2 1 2.76836e+09 2.76862e+09 2.76964e+09 2.76968e+09 0 1
252 2 0 2.77793e+09 2.77818e+09 2.7792e+09 2.77957e+09 0 0
253 2 1 2.78904e+09 2.78929e+09 2.7903e+09 2.79113e+09 1 1
254 1 1 2.81038e+09 2.81064e+09 2.81166e+09 2.81416e+09 0 0
255 1 0 2.82322e+09 2.82347e+09 2.82449e+09 2.82534e+09 1 1
256 1 0 2.82819e+09 2.82844e+09 2.82946e+09 2.83063e+09 0 1
257 1 1 2.83726e+09 2.83753e+09 2.83855e+09 2.84004e+09 0 0
258 1 0 2.84731e+09 2.84757e+09 2.84859e+09 2.84989e+09 1 1
259 2 0 2.85379e+09 2.85405e+09 2.85507e+09 2.85598e+09 0 0
260 2 1 2.86408e+09 2.86434e+09 2.86536e+09 2.86782e+09 1 1
261 2 1 2.88142e+09 2.88167e+09 2.88269e+09 2.88324e+09 0 1
262 2 0 2.88899e+09 2.88926e+09 2.89028e+09 2.891e+09 0 0
263 2 0 2.89804e+09 2.89829e+09 2.8993e+09 2.90001e+09 1 0
264 2 1 2.90796e+09 2.90822e+09 2.90924e+09 2.90939e+09 1 1
265 1 0 2.91926e+09 2.91951e+09 2.92053e+09 2.92219e+09 0 1
266 2 0 2.92721e+09 2.92748e+09 2.9285e+09 2.92853e+09 0 0
267 2 0 2.93872e+09 2.93898e+09 2.94e+09 2.94113e+09 1 0
268 2 1 2.95654e+09 2.95681e+09 2.95783e+09 2.95861e+09 1 1
269 2 0 2.96243e+09 2.96269e+09 2.96371e+09 2.96408e+09 0 0
270 2 0 2.9726e+09 2.97287e+09 2.97389e+09 2.97543e+09 1 0
271 2 0 2.98321e+09 2.98346e+09 2.98448e+09 2.98456e+09 1 0
272 2 1 2.99257e+09 2.99282e+09 2.99384e+09 2.99527e+09 1 1
273 1 0 2.99971e+09 2.99997e+09 3.00099e+09 3.00184e+09 0 1
274 2 0 3.01094e+09 3.0112e+09 3.01222e+09 3.01439e+09 0 0
275 2 1 3.02731e+09 3.02756e+09 3.02858e+09 3.03103e+09 1 1
276 1 1 3.03363e+09 3.03389e+09 3.03491e+09 3.03882e+09 0 0
277 1 1 3.04601e+09 3.04626e+09 3.04728e+09 3.04746e+09 1 0
278 1 0 3.0547e+09 3.05494e+09 3.05596e+09 3.0575e+09 1 1
279 1 0 3.06086e+09 3.06111e+09 3.06213e+09 3.06571e+09 0 1
280 2 0 3.07062e+09 3.07088e+09 3.0719e+09 3.07369e+09 0 0
281 2 1 3.08134e+09 3.0816e+09 3.08262e+09 3.08399e+09 1 1
282 1 1 3.0875e+09 3.08776e+09 3.08878e+09 3.08881e+09 0 0
283 1 0 3.09588e+09 3.09614e+09 3.09716e+09 3.10169e+09 1 1
284 1 0 3.10563e+09 3.10588e+09 3.1069e+09 3.1069e+09 0 1
285 2 1 3.11111e+09 3.11137e+09 3.11239e+09 3.11411e+09 0 1
286 1 0 3.12259e+09 3.12284e+09 3.12386e+09 3.12546e+09 0 1
287 1 0 3.12822e+09 3.12848e+09 3.1295e+09 3.13007e+09 0 1
288 1 0 3.13476e+09 3.13501e+09 3.13603e+09 3.13688e+09 0 1
289 1 0 3.14295e+09 3.1432e+09 3.14422e+09 3.14497e+09 0 1
290 1 1 3.1491e+09 3.14935e+09 3.15037e+09 3.15072e+09 0 0
291 1 1 3.15879e+09 3.15905e+09 3.16007e+09 3.1601e+09 1 0
292 1 1 3.17036e+09 3.17062e+09 3.17164e+09 3.17205e+09 1 0
293 1 0 3.18154e+09 3.1818e+09 3.18281e+09 3.18287e+09 1 1
294 2 0 3.18587e+09 3.18612e+09 3.18714e+09 3.1877e+09 0 0
295 2 0 3.19862e+09 3.19887e+09 3.19989e+09 3.20042e+09 1 0
296 2 0 3.20757e+09 3.20783e+09 3.20885e+09 3.20893e+09 1 0
297 2 1 3.21737e+09 3.21762e+09 3.21864e+09 3.22059e+09 1 1
298 2 0 3.22567e+09 3.22593e+09 3.22694e+09 3.22785e+09 0 0
299 2 1 3.24088e+09 3.24114e+09 3.24216e+09 3.2431e+09 1 1
300 2 0 3.2487e+09 3.24896e+09 3.24998e+09 3.25074e+09 0 0
301 2 1 3.25933e+09 3.25959e+09 3.26061e+09 3.26063e+09 1 1
302 2 1 3.26525e+09 3.2655e+09 3.26652e+09 3.26653e+09 0 1
303 1 1 3.27493e+09 3.27518e+09 3.2762e+09 3.27626e+09 0 0
304 1 1 3.28365e+09 3.28391e+09 3.28493e+09 3.28792e+09 1 0
305 1 0 3.29536e+09 3.29563e+09 3.29665e+09 3.29791e+09 1 1
306 1 0 3.30884e+09 3.30909e+09 3.31011e+09 3.31015e+09 0 1
307 2 1 3.3164e+09 3.31666e+09 3.31768e+09 3.31776e+09 0 1
308 2 1 3.32648e+09 3.32674e+09 3.32776e+09 3.32897e+09 0 1
309 2 0 3.33268e+09 3.33293e+09 3.33395e+09 3.33534e+09 0 0
310 2 0 3.34627e+09 3.34653e+09 3.34755e+09 3.34842e+09 1 0
311 2 1 3.35599e+09 3.35624e+09 3.35726e+09 3.3576e+09 1 1
312 2 1 3.36063e+09 3.36089e+09 3.36191e+09 3.36193e+09 0 1
313 2 0 3.36788e+09 3.36813e+09 3.36915e+09 3.36982e+09 0 0
314 2 1 3.37852e+09 3.37877e+09 3.37979e+09 3.38071e+09 1 1
315 1 0 3.3868e+09 3.38706e+09 3.38808e+09 3.38942e+09 0 1
316 1 0 3.39394e+09 3.39419e+09 3.39521e+09 3.39656e+09 0 1
317 1 0 3.40039e+09 3.40065e+09 3.40167e+09 3.40181e+09 0 1
318 2 0 3.41025e+09 3.41051e+09 3.41153e+09 3.41416e+09 0 0
319 2 1 3.42202e+09 3.42227e+09 3.42329e+09 3.42477e+09 1 1
320 1 1 3.42876e+09 3.42901e+09 3.43003e+09 3.43007e+09 0 0
321 1 0 3.4382e+09 3.43845e+09 3.43947e+09 3.44033e+09 1 1
322 2 0 3.44488e+09 3.44515e+09 3.44617e+09 3.44808e+09 0 0
323 2 0 3.45524e+09 3.45549e+09 3.45651e+09 3.45679e+09 1 0
324 2 0 3.46426e+09 3.46451e+09 3.46553e+09 3.46685e+09 1 0
325 2 1 3.47497e+09 3.47523e+09 3.47625e+09 3.48009e+09 1 1
326 1 0 3.48461e+09 3.48488e+09 3.4859e+09 3.48653e+09 0 1
327 1 0 3.48917e+09 3.48942e+09 3.49044e+09 3.49116e+09 0 1
328 2 1 3.49753e+09 3.49779e+09 3.49881e+09 3.50007e+09 0 1
329 1 0 3.50297e+09 3.50323e+09 3.50425e+09 3.50436e+09 0 1
330 2 0 3.50838e+09 3.50864e+09 3.50966e+09 3.5127e+09 0 0
331 2 0 3.51982e+09 3.52007e+09 3.52109e+09 3.52222e+09 1 0
332 2 1 3.52979e+09 3.53005e+09 3.53107e+09 3.53326e+09 1 1
333 2 1 3.5401e+09 3.54035e+09 3.54137e+09 3.54498e+09 0 1
334 2 0 3.55159e+09 3.55185e+09 3.55287e+09 3.5572e+09 0 0
335 2 0 3.56567e+09 3.56591e+09 3.56693e+09 3.57052e+09 1 0
336 2 1 3.57921e+09 3.57946e+09 3.58048e+09 3.58156e+09 1 1
337 2 1 3.58444e+09 3.5847e+09 3.58572e+09 3.58888e+09 0 1
338 1 0 3.59184e+09 3.5921e+09 3.59312e+09 3.59353e+09 0 1
339 2 1 3.59871e+09 3.59897e+09 3.59999e+09 3.60048e+09 0 1
340 1 0 3.60726e+09 3.6075e+09 3.60852e+09 3.60907e+09 0 1
341 2 0 3.61774e+09 3.61799e+09 3.61901e+09 3.61973e+09 0 0
342 2 1 3.62759e+09 3.62784e+09 3.62886e+09 3.63055e+09 1 1
343 2 1 3.63687e+09 3.63712e+09 3.63814e+09 3.63911e+09 0 1
344 1 1 3.64208e+09 3.64233e+09 3.64335e+09 3.64613e+09 0 0
345 1 1 3.6539e+09 3.65414e+09 3.65516e+09 3.65542e+09 1 0
346 1 1 3.66421e+09 3.66447e+09 3.66549e+09 3.66833e+09 1 0
347 1 0 3.67537e+09 3.67562e+09 3.67664e+09 3.68329e+09 1 1
348 2 0 3.68691e+09 3.68717e+09 3.68819e+09 3.69791e+09 0 0
349 2 1 3.70497e+09 3.70523e+09 3.70625e+09 3.71408e+09 1 1
350 1 0 3.71696e+09 3.71722e+09 3.71824e+09 3.719e+09 0 1
351 2 0 3.72161e+09 3.72185e+09 3.72287e+09 3.72295e+09 0 0
352 2 0 3.73019e+09 3.73044e+09 3.73146e+09 3.73462e+09 1 0
353 2 1 3.74534e+09 3.74559e+09 3.74661e+09 3.75974e+09 1 1
354 1 0 3.76261e+09 3.76286e+09 3.76388e+09 3.76993e+09 0 1
355 1 0 3.77295e+09 3.77321e+09 3.77423e+09 3.77588e+09 0 1
356 2 0 3.77945e+09 3.77971e+09 3.78073e+09 3.78206e+09 0 0
357 2 1 3.79194e+09 3.79219e+09 3.79321e+09 3.80113e+09 1 1
358 1 0 3.80457e+09 3.80483e+09 3.80585e+09 3.80598e+09 0 1
359 1 1 3.80871e+09 3.80897e+09 3.80999e+09 3.81221e+09 0 0
360 1 0 3.81927e+09 3.81951e+09 3.82053e+09 3.83102e+09 1 1
361 2 0 3.83384e+09 3.8341e+09 3.83512e+09 3.84503e+09 0 0
362 2 0 3.85217e+09 3.85242e+09 3.85344e+09 3.86061e+09 1 0
363 2 0 3.86807e+09 3.86832e+09 3.86934e+09 3.87346e+09 1 0
364 2 0 3.88063e+09 3.88088e+09 3.8819e+09 3.88305e+09 1 0
365 1 0 3.89129e+09 3.89155e+09 3.89257e+09 3.89395e+09 0 1
366 1 0 3.89693e+09 3.89719e+09 3.89821e+09 3.90002e+09 0 1
367 1 0 3.90278e+09 3.90302e+09 3.90404e+09 3.90438e+09 0 1
368 1 0 3.90872e+09 3.90898e+09 3.91e+09 3.91345e+09 0 1
369 1 0 3.91719e+09 3.91744e+09 3.91846e+09 3.92163e+09 0 1
370 2 1 3.92509e+09 3.92534e+09 3.92636e+09 3.92861e+09 0 1
371 1 0 3.93909e+09 3.93934e+09 3.94036e+09 3.9588e+09 0 1
372 1 1 3.96233e+09 3.96257e+09 3.96359e+09 3.9637e+09 0 0
373 1 1 3.97203e+09 3.97229e+09 3.97331e+09 3.97716e+09 1 0
374 1 1 3.98838e+09 3.98864e+09 3.98966e+09 3.99062e+09 1 0
375 1 0 3.99856e+09 3.99881e+09 3.99983e+09 4.0066e+09 1 1
376 1 1 4.01104e+09 4.0113e+09 4.01232e+09 4.02858e+09 0 0
377 1 0 4.03603e+09 4.03629e+09 4.03731e+09 4.03745e+09 1 1
378 2 1 4.04275e+09 4.04301e+09 4.04403e+09 4.04536e+09 0 1
379 2 1 4.04821e+09 4.04845e+09 4.04947e+09 4.06951e+09 0 1
380 2 0 4.0731e+09 4.07334e+09 4.07436e+09 4.09014e+09 0 0
381 2 0 4.09766e+09 4.09791e+09 4.09893e+09 4.10234e+09 1 0
382 2 0 4.10949e+09 4.10975e+09 4.11077e+09 4.11411e+09 1 0
383 2 0 4.12155e+09 4.1218e+09 4.12282e+09 4.13763e+09 1 0
384 2 0 4.14514e+09 4.14539e+09 4.14641e+09 4.14997e+09 0 0
385 2 0 4.15881e+09 4.15907e+09 4.16009e+09 4.16306e+09 0 0
386 1 1 4.17039e+09 4.17065e+09 4.17167e+09 4.17529e+09 0 0
387 2 0 4.18288e+09 4.18313e+09 4.18415e+09 4.18776e+09 0 0
388 1 0 4.19654e+09 4.19679e+09 4.19781e+09 4.20142e+09 0 1
389 1 0 4.20598e+09 4.20624e+09 4.20726e+09 4.20886e+09 0 1
390 2 0 4.2114e+09 4.21165e+09 4.21267e+09 4.21554e+09 0 0
391 2 0 4.22262e+09 4.22287e+09 4.22389e+09 4.22883e+09 1 0
392 2 0 4.2365e+09 4.23675e+09 4.23777e+09 4.23778e+09 1 0
393 2 0 4.24481e+09 4.24506e+09 4.24608e+09 4.24634e+09 1 0
394 1 0 4.25398e+09 4.25423e+09 4.25525e+09 4.27269e+09 0 1
395 1 0 4.27566e+09 4.27591e+09 4.27693e+09 4.28559e+09 0 1
396 1 0 4.28899e+09 4.28924e+09 4.29026e+09 4.29189e+09 0 1
397 2 0 4.29467e+09 4.29492e+09 976508 4.0615e+06 0 0
398 2 0 1.14637e+07 1.17217e+07 1.27413e+07 1.41947e+07 1 0
399 2 0 2.20631e+07 2.23273e+07 2.33469e+07 2.83306e+07 1 0
400 2 1 3.54407e+07 3.57e+07 3.67196e+07 3.96615e+07 1 1
401 1 0 4.22236e+07 4.24715e+07 4.34911e+07 5.75796e+07 0 1
402 2 0 6.0159e+07 6.04195e+07 6.14391e+07 6.46965e+07 0 0
403 2 0 7.19749e+07 7.22189e+07 7.32385e+07 7.85168e+07 1 0
404 2 0 8.94044e+07 8.9649e+07 9.06686e+07 9.61476e+07 1 0
405 2 0 1.03492e+08 1.03743e+08 1.04763e+08 1.08109e+08 1 0
406 1 1 1.15573e+08 1.15828e+08 1.16848e+08 1.17143e+08 0 0
407 2 1 1.27391e+08 1.27642e+08 1.28662e+08 1.28915e+08 0 1
408 1 0 1.319e+08 1.3215e+08 1.33169e+08 1.35591e+08 0 1
409 2 1 1.38141e+08 1.38404e+08 1.39424e+08 1.46802e+08 0 1
410 2 0 1.52581e+08 1.52836e+08 1.53855e+08 1.55801e+08 0 0
411 2 1 1.63707e+08 1.63965e+08 1.64984e+08 1.70836e+08 1 1
412 2 0 1.74495e+08 1.74755e+08 1.75774e+08 1.90568e+08 0 0
413 2 0 1.98405e+08 1.98649e+08 1.99669e+08 2.19344e+08 1 0
414 2 0 2.28767e+08 2.29021e+08 2.30041e+08 2.33803e+08 1 0
415 2 0 2.4108e+08 2.41329e+08 2.42349e+08 2.43676e+08 1 0
416 1 1 2.51063e+08 2.51309e+08 2.52328e+08 2.88336e+08 0 0
417 1 1 2.97418e+08 2.97665e+08 2.98684e+08 3.04028e+08 0 0
418 1 0 3.12315e+08 3.12567e+08 3.13587e+08 3.1661e+08 0 1
419 1 1 3.23986e+08 3.24238e+08 3.25257e+08 3.27129e+08 0 0
420 1 0 3.34793e+08 3.35051e+08 3.36071e+08 3.90709e+08 1 1
421 2 0 3.93465e+08 3.9372e+08 3.94739e+08 4.46573e+08 0 0
422 2 0 4.54055e+08 4.54314e+08 4.55334e+08 4.56738e+08 1 0
423 2 0 4.63975e+08 4.6422e+08 4.65239e+08 4.65366e+08 1 0
424 2 0 4.72677e+08 4.72934e+08 4.73954e+08 4.918e+08 1 0
425 1 0 4.98954e+08 4.99208e+08 5.00228e+08 5.14044e+08 0 1
426 1 1 5.17531e+08 5.17778e+08 5.18797e+08 5.22824e+08 0 0
427 1 0 5.29966e+08 5.30209e+08 5.31229e+08 5.4196e+08 1 1
428 1 0 5.45365e+08 5.4561e+08 5.4663e+08 5.62003e+08 0 1
429 1 0 5.65633e+08 5.65888e+08 5.66908e+08 5.72717e+08 0 1
430 1 1 5.76242e+08 5.76487e+08 5.77507e+08 5.78505e+08 0 0
431 1 0 5.856e+08 5.85848e+08 5.86867e+08 5.96402e+08 1 1
432 2 0 5.99383e+08 5.99628e+08 6.00647e+08 6.06206e+08 0 0
433 2 1 6.13449e+08 6.13698e+08 6.14718e+08 6.20021e+08 1 1
434 2 0 6.2341e+08 6.23657e+08 6.24677e+08 6.32175e+08 0 0
435 2 0 6.41668e+08 6.41922e+08 6.42941e+08 6.43291e+08 1 0
436 2 0 6.52831e+08 6.5308e+08 6.54099e+08 6.5521e+08 1 0
437 2 0 6.62391e+08 6.62632e+08 6.63652e+08 6.6371e+08 1 0
438 1 0 6.72394e+08 6.72643e+08 6.73663e+08 6.95972e+08 0 1
439 2 1 6.98802e+08 6.99045e+08 7.00065e+08 7.04488e+08 0 1
440 2 0 7.07034e+08 7.07281e+08 7.08301e+08 7.18726e+08 0 0
441 2 0 7.25949e+08 7.26205e+08 7.27225e+08 7.30164e+08 1 0
442 2 1 7.37468e+08 7.37735e+08 7.38755e+08 7.44877e+08 1 1
443 2 1 7.49139e+08 7.49389e+08 7.50409e+08 7.56038e+08 0 1
444 1 0 7.596e+08 7.59861e+08 7.60881e+08 7.64003e+08 0 1
445 1 1 7.66643e+08 7.669e+08 7.6792e+08 7.90987e+08 0 0
446 1 1 7.98545e+08 7.98791e+08 7.99811e+08 8.66512e+08 1 0
447 1 0 8.73862e+08 8.74111e+08 8.75131e+08 8.77696e+08 1 1
448 1 0 8.83397e+08 8.83648e+08 8.84668e+08 8.87731e+08 0 1
449 2 0 8.90526e+08 8.90783e+08 8.91803e+08 8.96959e+08 0 0
450 2 0 9.0401e+08 9.04257e+08 9.05277e+08 9.1904e+08 1 0
451 2 0 9.26266e+08 9.26526e+08 9.27545e+08 9.3535e+08 1 0
452 2 0 9.4254e+08 9.42786e+08 9.43806e+08 9.50947e+08 1 0
453 1 0 9.58439e+08 9.58699e+08 9.59718e+08 9.65219e+08 0 1
454 2 1 9.69828e+08 9.70075e+08 9.71095e+08 9.80543e+08 0 1
455 1 0 9.83847e+08 9.84094e+08 9.85113e+08 9.95008e+08 0 1
456 1 0 9.98497e+08 9.98754e+08 9.99773e+08 1.00867e+09 0 1
457 2 0 1.01245e+09 1.01269e+09 1.01371e+09 1.02281e+09 0 0
458 2 0 1.03008e+09 1.03033e+09 1.03135e+09 1.03147e+09 1 0
459 2 1 1.03892e+09 1.03917e+09 1.04019e+09 1.0468e+09 1 1
460 2 0 1.04981e+09 1.05006e+09 1.05108e+09 1.07737e+09 0 0
461 2 0 1.08472e+09 1.08497e+09 1.08599e+09 1.09188e+09 1 0
462 2 0 1.09907e+09 1.09933e+09 1.10035e+09 1.12327e+09 1 0
463 2 0 1.13072e+09 1.13097e+09 1.13199e+09 1.1422e+09 1 0
464 2 0 1.14949e+09 1.14974e+09 1.15076e+09 1.17378e+09 0 0
465 1 1 1.18116e+09 1.1814e+09 1.18242e+09 1.19935e+09 0 0
466 1 0 1.20658e+09 1.20683e+09 1.20785e+09 1.21649e+09 0 1
467 2 0 1.22381e+09 1.22405e+09 1.22507e+09 1.25068e+09 0 0
468 2 0 1.258e+09 1.25824e+09 1.25926e+09 1.27119e+09 1 0
469 2 0 1.27864e+09 1.27889e+09 1.27991e+09 1.28543e+09 1 0
470 2 0 1.2926e+09 1.29286e+09 1.29388e+09 1.31926e+09 1 0
471 1 0 1.32649e+09 1.32675e+09 1.32777e+09 1.32856e+09 0 1
472 2 0 1.3311e+09 1.33134e+09 1.33236e+09 1.33562e+09 0 0
473 2 0 1.34301e+09 1.34326e+09 1.34428e+09 1.35167e+09 1 0
474 2 0 1.36214e+09 1.36238e+09 1.3634e+09 1.37971e+09 1 0
475 2 0 1.38707e+09 1.38732e+09 1.38834e+09 1.40847e+09 1 0
476 1 0 1.41603e+09 1.41628e+09 1.4173e+09 1.44135e+09 0 1
477 2 0 1.44432e+09 1.44457e+09 1.44559e+09 1.44957e+09 0 0
478 2 0 1.45739e+09 1.45764e+09 1.45866e+09 1.46517e+09 1 0
479 2 0 1.47365e+09 1.47391e+09 1.47493e+09 1.49301e+09 1 0
480 2 0 1.5019e+09 1.50214e+09 1.50316e+09 1.51666e+09 1 0
481 2 0 1.52399e+09 1.52424e+09 1.52526e+09 1.52598e+09 0 0
482 1 1 1.5336e+09 1.53386e+09 1.53487e+09 1.54502e+09 0 0
483 2 0 1.55241e+09 1.55266e+09 1.55368e+09 1.55734e+09 0 0
484 2 0 1.56487e+09 1.56513e+09 1.56615e+09 1.57441e+09 0 0
485 2 0 1.58281e+09 1.58305e+09 1.58407e+09 1.59334e+09 0 0
486 1 0 1.6011e+09 1.60135e+09 1.60237e+09 1.60385e+09 0 1
487 2 0 1.60655e+09 1.6068e+09 1.60782e+09 1.61012e+09 0 0
488 2 0 1.6175e+09 1.61775e+09 1.61877e+09 1.62095e+09 1 0
489 2 1 1.62828e+09 1.62854e+09 1.62956e+09 1.64482e+09 1 1
490 1 1 1.64773e+09 1.64797e+09 1.64899e+09 1.65251e+09 0 0
491 1 0 1.66385e+09 1.66411e+09 1.66513e+09 1.68203e+09 1 1
492 1 0 1.68466e+09 1.68491e+09 1.68593e+09 1.69852e+09 0 1
493 2 0 1.70217e+09 1.70242e+09 1.70344e+09 1.71912e+09 0 0
494 2 1 1.72627e+09 1.72652e+09 1.72754e+09 1.73747e+09 1 1
495 1 0 1.74136e+09 1.74161e+09 1.74263e+09 1.74787e+09 0 1
496 2 0 1.75077e+09 1.75102e+09 1.75204e+09 1.75752e+09 0 0
497 2 1 1.76874e+09 1.76898e+09 1.77e+09 1.77624e+09 1 1
498 2 0 1.77966e+09 1.77991e+09 1.78093e+09 1.78771e+09 0 0
499 2 0 1.79493e+09 1.79518e+09 1.7962e+09 1.80048e+09 1 0
500 2 0 1.8079e+09 1.80815e+09 1.80917e+09 1.81212e+09 1 0
501 2 0 1.81946e+09 1.81972e+09 1.82074e+09 1.83363e+09 1 0
502 2 1 1.84084e+09 1.84109e+09 1.84211e+09 1.85327e+09 0 1
503 1 0 1.85619e+09 1.85645e+09 1.85747e+09 1.89398e+09 0 1
504 1 0 1.9001e+09 1.90035e+09 1.90137e+09 1.90472e+09 0 1
505 2 0 1.90749e+09 1.90774e+09 1.90876e+09 1.91061e+09 0 0
506 2 0 1.91875e+09 1.91901e+09 1.92003e+09 1.92228e+09 1 0
507 2 0 1.93073e+09 1.93098e+09 1.932e+09 1.93357e+09 1 0
508 2 1 1.94066e+09 1.9409e+09 1.94192e+09 1.9769e+09 1 1
509 2 0 1.97955e+09 1.9798e+09 1.98082e+09 1.98706e+09 0 0
510 2 0 1.99688e+09 1.99713e+09 1.99815e+09 1.99848e+09 1 0
511 2 0 2.00693e+09 2.00718e+09 2.0082e+09 2.02014e+09 1 0
512 2 0 2.03052e+09 2.03077e+09 2.03179e+09 2.033e+09 1 0
513 2 0 2.04021e+09 2.04047e+09 2.04149e+09 2.04686e+09 0 0
514 2 1 2.0543e+09 2.05455e+09 2.05557e+09 2.05804e+09 0 1
515 2 0 2.06078e+09 2.06103e+09 2.06205e+09 2.07313e+09 0 0
516 2 0 2.08022e+09 2.08048e+09 2.0815e+09 2.08437e+09 1 0
517 2 0 2.09149e+09 2.09175e+09 2.09277e+09 2.09556e+09 1 0
518 2 0 2.10262e+09 2.10287e+09 2.10389e+09 2.11051e+09 1 0
519 2 0 2.11784e+09 2.11809e+09 2.11911e+09 2.1367e+09 0 0
520 2 0 2.14413e+09 2.14438e+09 2.1454e+09 2.14963e+09 0 0
521 2 0 2.15767e+09 2.15792e+09 2.15894e+09 2.17235e+09 0 0
522 1 0 2.17948e+09 2.17973e+09 2.18075e+09 2.18177e+09 0 1
523 1 0 2.18679e+09 2.18703e+09 2.18805e+09 2.1882e+09 0 1
524 2 0 2.1936e+09 2.19385e+09 2.19487e+09 2.20067e+09 0 0
525 2 0 2.20772e+09 2.20797e+09 2.20899e+09 2.21266e+09 1 0
526 2 0 2.22004e+09 2.22029e+09 2.22131e+09 2.22222e+09 1 0
527 2 0 2.22968e+09 2.22994e+09 2.23096e+09 2.23252e+09 1 0
528 1 0 2.23971e+09 2.23995e+09 2.24097e+09 2.24098e+09 0 1
529 1 0 2.24362e+09 2.24387e+09 2.24489e+09 2.24994e+09 0 1
530 2 0 2.25451e+09 2.25476e+09 2.25578e+09 2.26888e+09 0 0
531 2 0 2.27602e+09 2.27628e+09 2.2773e+09 2.29098e+09 1 0
532 2 0 2.29834e+09 2.29859e+09 2.29961e+09 2.29964e+09 1 0
533 2 0 2.30794e+09 2.30819e+09 2.30921e+09 2.31601e+09 1 0
534 2 0 2.32354e+09 2.3238e+09 2.32482e+09 2.32522e+09 0 0
535 2 1 2.33309e+09 2.33334e+09 2.33436e+09 2.3376e+09 0 1
536 2 1 2.34015e+09 2.34041e+09 2.34143e+09 2.63954e+09 0 1
