trial trialType response stillTime stimOnset stimOffset respTime correctionTrial correct
001 1 0 7.69026e+06 7.98124e+06 9.00083e+06 1.10492e+07 0 1
002 1 0 2.78211e+07 2.80988e+07 2.91184e+07 3.02326e+07 0 1
003 1 0 3.29175e+07 3.32045e+07 3.42241e+07 3.44046e+07 0 1
004 2 0 4.85724e+07 4.88485e+07 4.98681e+07 4.99298e+07 0 0
005 2 0 6.3574e+07 6.38336e+07 6.48532e+07 6.75491e+07 1 0
006 2 1 9.31236e+07 9.33921e+07 9.44117e+07 9.44838e+07 1 1
007 2 0 9.70906e+07 9.73631e+07 9.83827e+07 9.84007e+07 0 0
008 2 0 1.13339e+08 1.13603e+08 1.14623e+08 1.15058e+08 1 0
009 2 0 1.32807e+08 1.3307e+08 1.3409e+08 1.51413e+08 1 0
010 2 0 1.63095e+08 1.63356e+08 1.64376e+08 1.67546e+08 1 0
011 2 0 2.01605e+08 2.01872e+08 2.02891e+08 2.0347e+08 0 0
012 1 1 2.12781e+08 2.13045e+08 2.14065e+08 2.17917e+08 0 0
013 1 0 2.33368e+08 2.33615e+08 2.34634e+08 2.37357e+08 0 1
014 2 1 2.39953e+08 2.4021e+08 2.41229e+08 2.41305e+08 0 1
015 2 0 2.44435e+08 2.44698e+08 2.45718e+08 2.4577e+08 0 0
016 2 0 2.60112e+08 2.60363e+08 2.61383e+08 2.6219e+08 1 0
017 2 1 2.70097e+08 2.70348e+08 2.71368e+08 2.71393e+08 1 1
018 2 1 2.77434e+08 2.77689e+08 2.78709e+08 2.78905e+08 0 1
019 2 1 2.8181e+08 2.82054e+08 2.83074e+08 2.83186e+08 0 1
020 1 1 2.97471e+08 2.97725e+08 2.98745e+08 3.00003e+08 0 0
021 1 1 3.0982e+08 3.10072e+08 3.11092e+08 3.12543e+08 1 0
022 1 1 3.20283e+08 3.20549e+08 3.21569e+08 3.23087e+08 1 0
023 1 1 3.33165e+08 3.33417e+08 3.34436e+08 3.35936e+08 1 0
024 1 0 3.4582e+08 3.46073e+08 3.47093e+08 3.4833e+08 0 1
025 2 1 3.6538e+08 3.65626e+08 3.66645e+08 3.66746e+08 0 1
026 1 0 3.96876e+08 3.97128e+08 3.98148e+08 3.98406e+08 0 1
027 1 1 4.01053e+08 4.01312e+08 4.02331e+08 4.02503e+08 0 0
028 1 0 4.1955e+08 4.19807e+08 4.20826e+08 4.21222e+08 1 1
029 1 0 4.36837e+08 4.37095e+08 4.38114e+08 4.39249e+08 0 1
030 1 0 4.56832e+08 4.57087e+08 4.58106e+08 4.60139e+08 0 1
031 2 0 4.66322e+08 4.66574e+08 4.67594e+08 4.67646e+08 0 0
032 2 0 4.79828e+08 4.80081e+08 4.81101e+08 4.81124e+08 1 0
033 2 1 4.8889e+08 4.89155e+08 4.90174e+08 4.90435e+08 1 1
034 1 0 4.93184e+08 4.93442e+08 4.94462e+08 4.95423e+08 0 1
035 1 0 5.04906e+08 5.05156e+08 5.06176e+08 5.06524e+08 0 1
036 2 0 5.14108e+08 5.14363e+08 5.15383e+08 5.1616e+08 0 0
037 2 0 5.29304e+08 5.29547e+08 5.30567e+08 5.31133e+08 1 0
038 2 0 5.39916e+08 5.4018e+08 5.41199e+08 5.4205e+08 1 0
039 2 1 5.53131e+08 5.53378e+08 5.54398e+08 5.54699e+08 1 1
040 2 0 5.6076e+08 5.61011e+08 5.62031e+08 5.62586e+08 0 0
041 2 0 5.70094e+08 5.70339e+08 5.71358e+08 5.72327e+08 1 0
042 2 1 5.88536e+08 5.88794e+08 5.89814e+08 5.89844e+08 1 1
043 2 1 5.99178e+08 5.99432e+08 6.00452e+08 6.023e+08 0 1
044 2 1 6.20165e+08 6.20416e+08 6.21436e+08 6.21621e+08 0 1
045 2 0 6.52481e+08 6.52733e+08 6.53753e+08 6.54883e+08 0 0
046 2 0 6.63719e+08 6.63973e+08 6.64992e+08 6.65139e+08 1 0
047 2 0 6.7392e+08 6.74174e+08 6.75193e+08 6.75842e+08 1 0
048 2 1 6.86011e+08 6.86264e+08 6.87284e+08 6.87414e+08 1 1
049 1 0 7.05592e+08 7.0585e+08 7.06869e+08 7.0767e+08 0 1
050 1 0 7.16489e+08 7.1675e+08 7.1777e+08 7.17974e+08 0 1
051 2 0 7.20464e+08 7.20715e+08 7.21734e+08 7.21767e+08 0 0
052 2 0 7.38892e+08 7.39158e+08 7.40178e+08 7.41447e+08 1 0
053 2 0 7.4961e+08 7.49872e+08 7.50892e+08 7.51429e+08 1 0
054 2 1 7.62742e+08 7.62987e+08 7.64006e+08 7.65376e+08 1 1
055 1 1 7.68124e+08 7.68374e+08 7.69394e+08 7.70077e+08 0 0
056 1 0 7.8284e+08 7.83095e+08 7.84115e+08 7.84322e+08 1 1
057 1 0 7.91664e+08 7.9192e+08 7.9294e+08 7.94019e+08 0 1
058 1 0 8.05942e+08 8.06205e+08 8.07225e+08 8.07988e+08 0 1
059 1 0 8.10495e+08 8.10743e+08 8.11763e+08 8.11875e+08 0 1
060 2 0 8.54186e+08 8.54436e+08 8.55456e+08 8.55485e+08 0 0
061 2 1 8.65927e+08 8.66171e+08 8.67191e+08 8.67903e+08 1 1
062 2 1 8.76917e+08 8.77173e+08 8.78193e+08 8.78295e+08 0 1
063 2 1 8.86877e+08 8.87127e+08 8.88147e+08 8.88213e+08 0 1
064 2 1 8.99006e+08 8.99251e+08 9.00271e+08 9.00323e+08 0 1
065 1 0 9.032e+08 9.03445e+08 9.04465e+08 9.05101e+08 0 1
066 2 1 9.15807e+08 9.16053e+08 9.17073e+08 9.18436e+08 0 1
067 1 1 9.24119e+08 9.24376e+08 9.25396e+08 9.26007e+08 0 0
068 1 0 9.33564e+08 9.33828e+08 9.34848e+08 9.36287e+08 1 1
069 1 0 9.39077e+08 9.39323e+08 9.40343e+08 9.4043e+08 0 1
070 2 1 9.4417e+08 9.44431e+08 9.45451e+08 9.45784e+08 0 1
071 2 0 9.48556e+08 9.48804e+08 9.49823e+08 9.58933e+08 0 0
072 2 0 9.66447e+08 9.66701e+08 9.67721e+08 9.78676e+08 1 0
073 2 0 9.85845e+08 9.86098e+08 9.87118e+08 9.9635e+08 1 0
074 2 1 1.00349e+09 1.00375e+09 1.00477e+09 1.00482e+09 1 1
075 2 0 1.02561e+09 1.02586e+09 1.02688e+09 1.02692e+09 0 0
076 2 0 1.04171e+09 1.04196e+09 1.04298e+09 1.04427e+09 1 0
077 2 1 1.05204e+09 1.05229e+09 1.05331e+09 1.05656e+09 1 1
078 2 0 1.05916e+09 1.0594e+09 1.06042e+09 1.06065e+09 0 0
079 2 0 1.08939e+09 1.08964e+09 1.09066e+09 1.09096e+09 1 0
080 2 1 1.09816e+09 1.09842e+09 1.09944e+09 1.09949e+09 1 1
081 2 1 1.10416e+09 1.10443e+09 1.10545e+09 1.1075e+09 0 1
082 2 1 1.11737e+09 1.11761e+09 1.11863e+09 1.11871e+09 0 1
083 1 1 1.14242e+09 1.14268e+09 1.1437e+09 1.14517e+09 0 0
084 1 0 1.15351e+09 1.15376e+09 1.15478e+09 1.15585e+09 1 1
085 1 1 1.16448e+09 1.16474e+09 1.16576e+09 1.16641e+09 0 0
086 1 1 1.18151e+09 1.18177e+09 1.18279e+09 1.18382e+09 1 0
087 1 0 1.19521e+09 1.19547e+09 1.19649e+09 1.19677e+09 1 1
088 1 1 1.22376e+09 1.22401e+09 1.22503e+09 1.22644e+09 0 0
089 1 1 1.24591e+09 1.24616e+09 1.24718e+09 1.25162e+09 1 0
090 1 0 1.25943e+09 1.25968e+09 1.2607e+09 1.26107e+09 1 1
091 1 0 1.26874e+09 1.26899e+09 1.27001e+09 1.27022e+09 0 1
092 2 0 1.28705e+09 1.28731e+09 1.28833e+09 1.28944e+09 0 0
093 2 1 1.29955e+09 1.29981e+09 1.30083e+09 1.30119e+09 1 1
094 2 1 1.31512e+09 1.31537e+09 1.31639e+09 1.31782e+09 0 1
095 1 0 1.32232e+09 1.32258e+09 1.3236e+09 1.32402e+09 0 1
096 1 1 1.34514e+09 1.3454e+09 1.34642e+09 1.34644e+09 0 0
097 1 0 1.35555e+09 1.35581e+09 1.35682e+09 1.35727e+09 1 1
098 2 0 1.36865e+09 1.3689e+09 1.36992e+09 1.37104e+09 0 0
099 2 0 1.37924e+09 1.37951e+09 1.38053e+09 1.38189e+09 1 0
100 2 0 1.39301e+09 1.39326e+09 1.39428e+09 1.39441e+09 1 0
101 2 0 1.40146e+09 1.40172e+09 1.40274e+09 1.40279e+09 1 0
102 2 0 1.41269e+09 1.41294e+09 1.41396e+09 1.41433e+09 0 0
103 1 0 1.43173e+09 1.43197e+09 1.43299e+09 1.4336e+09 0 1
104 1 1 1.44192e+09 1.44218e+09 1.4432e+09 1.44365e+09 0 0
105 1 1 1.45199e+09 1.45224e+09 1.45326e+09 1.45449e+09 1 0
106 1 1 1.46795e+09 1.46821e+09 1.46923e+09 1.46982e+09 1 0
107 1 1 1.47915e+09 1.47941e+09 1.48043e+09 1.48147e+09 1 0
108 2 0 1.49275e+09 1.49301e+09 1.49403e+09 1.49445e+09 0 0
109 2 0 1.50592e+09 1.50618e+09 1.5072e+09 1.50794e+09 0 0
110 1 0 1.5169e+09 1.51716e+09 1.51818e+09 1.5182e+09 0 1
111 1 0 1.5208e+09 1.52104e+09 1.52206e+09 1.52207e+09 0 1
112 2 0 1.53386e+09 1.5341e+09 1.53512e+09 1.5367e+09 0 0
113 2 1 1.54398e+09 1.54423e+09 1.54524e+09 1.54614e+09 1 1
114 1 0 1.55804e+09 1.55829e+09 1.55931e+09 1.55996e+09 0 1
115 2 0 1.56259e+09 1.56285e+09 1.56387e+09 1.5646e+09 0 0
116 2 1 1.57221e+09 1.57247e+09 1.57349e+09 1.57434e+09 1 1
117 1 0 1.58343e+09 1.58368e+09 1.5847e+09 1.58534e+09 0 1
118 1 0 1.58943e+09 1.58968e+09 1.5907e+09 1.59095e+09 0 1
119 1 0 1.59976e+09 1.60002e+09 1.60104e+09 1.60161e+09 0 1
120 2 0 1.61266e+09 1.61291e+09 1.61393e+09 1.61398e+09 0 0
121 2 1 1.62983e+09 1.63008e+09 1.6311e+09 1.63367e+09 1 1
122 2 1 1.6392e+09 1.63945e+09 1.64047e+09 1.641e+09 0 1
123 1 0 1.66116e+09 1.66142e+09 1.66244e+09 1.66283e+09 0 1
124 2 0 1.67045e+09 1.6707e+09 1.67172e+09 1.67231e+09 0 0
125 2 1 1.68577e+09 1.68602e+09 1.68704e+09 1.68881e+09 1 1
126 1 0 1.71613e+09 1.71638e+09 1.7174e+09 1.7185e+09 0 1
127 1 0 1.74014e+09 1.7404e+09 1.74142e+09 1.74291e+09 0 1
128 2 0 1.74751e+09 1.74776e+09 1.74878e+09 1.74903e+09 0 0
129 2 0 1.75712e+09 1.75737e+09 1.75839e+09 1.75912e+09 1 0
130 2 1 1.77608e+09 1.77634e+09 1.77736e+09 1.78055e+09 1 1
131 2 1 1.79675e+09 1.797e+09 1.79802e+09 1.79981e+09 0 1
132 2 0 1.82341e+09 1.82366e+09 1.82468e+09 1.82505e+09 0 0
133 2 1 1.83941e+09 1.83966e+09 1.84068e+09 1.84141e+09 1 1
134 2 0 1.85451e+09 1.85477e+09 1.85579e+09 1.85625e+09 0 0
135 2 0 1.8653e+09 1.86554e+09 1.86656e+09 1.8674e+09 1 0
136 2 0 1.87584e+09 1.8761e+09 1.87712e+09 1.87722e+09 1 0
137 2 1 1.88567e+09 1.88592e+09 1.88694e+09 1.887e+09 1 1
138 2 0 1.89603e+09 1.89628e+09 1.8973e+09 1.89775e+09 0 0
139 2 1 1.91313e+09 1.91337e+09 1.91439e+09 1.91616e+09 1 1
140 1 1 1.92418e+09 1.92444e+09 1.92546e+09 1.92559e+09 0 0
141 1 0 1.9331e+09 1.93334e+09 1.93436e+09 1.93467e+09 1 1
142 1 1 1.94753e+09 1.94777e+09 1.94879e+09 1.95232e+09 0 0
143 1 0 1.96204e+09 1.96229e+09 1.96331e+09 1.96474e+09 1 1
144 2 1 1.97102e+09 1.97128e+09 1.9723e+09 1.97371e+09 0 1
145 1 0 1.97823e+09 1.97848e+09 1.97949e+09 1.98015e+09 0 1
146 2 1 1.99783e+09 1.99808e+09 1.9991e+09 1.99981e+09 0 1
147 2 0 2.01341e+09 2.01366e+09 2.01468e+09 2.01532e+09 0 0
148 2 0 2.02516e+09 2.02541e+09 2.02643e+09 2.02744e+09 1 0
149 2 0 2.03517e+09 2.03543e+09 2.03645e+09 2.03809e+09 1 0
150 2 0 2.04512e+09 2.04537e+09 2.04639e+09 2.0464e+09 1 0
151 1 0 2.05535e+09 2.0556e+09 2.05662e+09 2.05682e+09 0 1
152 2 0 2.0664e+09 2.06666e+09 2.06768e+09 2.06835e+09 0 0
153 2 0 2.07833e+09 2.07859e+09 2.07961e+09 2.08025e+09 1 0
154 2 0 2.0905e+09 2.09075e+09 2.09176e+09 2.09196e+09 1 0
155 2 0 2.09978e+09 2.10003e+09 2.10105e+09 2.10408e+09 1 0
156 2 0 2.11264e+09 2.1129e+09 2.11392e+09 2.11398e+09 0 0
157 1 0 2.12136e+09 2.12162e+09 2.12264e+09 2.1227e+09 0 1
158 1 0 2.12545e+09 2.1257e+09 2.12672e+09 2.1275e+09 0 1
159 1 0 2.13852e+09 2.13877e+09 2.13979e+09 2.14064e+09 0 1
160 1 0 2.14896e+09 2.14921e+09 2.15023e+09 2.15029e+09 0 1
161 1 0 2.16218e+09 2.16243e+09 2.16345e+09 2.16382e+09 0 1
162 1 0 2.16832e+09 2.16857e+09 2.16959e+09 2.17015e+09 0 1
163 2 0 2.19691e+09 2.19717e+09 2.19819e+09 2.19874e+09 0 0
164 2 0 2.20882e+09 2.20907e+09 2.21009e+09 2.21767e+09 1 0
165 2 1 2.22552e+09 2.22578e+09 2.2268e+09 2.22765e+09 1 1
166 1 0 2.23027e+09 2.23054e+09 2.23156e+09 2.23246e+09 0 1
167 2 1 2.23902e+09 2.23929e+09 2.24031e+09 2.24212e+09 0 1
168 2 1 2.24495e+09 2.24521e+09 2.24623e+09 2.24694e+09 0 1
169 2 0 2.24981e+09 2.25007e+09 2.25109e+09 2.25146e+09 0 0
170 2 0 2.27236e+09 2.27261e+09 2.27363e+09 2.27429e+09 1 0
171 2 1 2.28424e+09 2.28449e+09 2.28551e+09 2.28557e+09 1 1
172 1 0 2.30234e+09 2.3026e+09 2.30362e+09 2.30382e+09 0 1
173 1 0 2.31726e+09 2.31751e+09 2.31853e+09 2.31872e+09 0 1
174 2 0 2.33346e+09 2.33371e+09 2.33472e+09 2.33644e+09 0 0
175 2 1 2.34546e+09 2.3457e+09 2.34672e+09 2.34744e+09 1 1
176 1 0 2.36457e+09 2.36483e+09 2.36585e+09 2.36636e+09 0 1
177 1 0 2.37619e+09 2.37645e+09 2.37747e+09 2.37759e+09 0 1
178 2 1 2.38024e+09 2.3805e+09 2.38152e+09 2.38158e+09 0 1
179 2 1 2.38882e+09 2.38907e+09 2.39009e+09 2.39015e+09 0 1
180 2 0 2.41415e+09 2.4144e+09 2.41542e+09 2.41675e+09 0 0
181 2 0 2.43952e+09 2.43977e+09 2.44079e+09 2.44087e+09 1 0
182 2 0 2.45026e+09 2.45052e+09 2.45154e+09 2.45157e+09 1 0
183 2 0 2.46108e+09 2.46134e+09 2.46236e+09 2.46243e+09 1 0
184 2 1 2.47016e+09 2.47041e+09 2.47143e+09 2.47152e+09 0 1
185 2 1 2.49429e+09 2.49455e+09 2.49557e+09 2.49602e+09 0 1
186 1 0 2.51719e+09 2.51744e+09 2.51845e+09 2.51911e+09 0 1
187 1 1 2.54265e+09 2.5429e+09 2.54392e+09 2.54543e+09 0 0
188 1 1 2.55709e+09 2.55734e+09 2.55836e+09 2.55946e+09 1 0
189 1 0 2.57537e+09 2.57563e+09 2.57665e+09 2.57833e+09 1 1
190 2 1 2.5928e+09 2.59306e+09 2.59408e+09 2.59709e+09 0 1
191 1 1 2.60205e+09 2.6023e+09 2.60332e+09 2.60376e+09 0 0
192 1 0 2.61127e+09 2.61152e+09 2.61254e+09 2.61313e+09 1 1
193 1 0 2.62197e+09 2.62222e+09 2.62323e+09 2.62426e+09 0 1
194 2 0 2.63222e+09 2.63247e+09 2.63349e+09 2.63387e+09 0 0
195 2 0 2.64216e+09 2.64241e+09 2.64343e+09 2.64345e+09 1 0
196 2 0 2.65052e+09 2.65078e+09 2.6518e+09 2.65323e+09 1 0
197 2 0 2.66166e+09 2.66191e+09 2.66293e+09 2.66474e+09 1 0
198 1 1 2.67371e+09 2.67397e+09 2.67499e+09 2.67671e+09 0 0
199 2 1 2.69193e+09 2.69218e+09 2.6932e+09 2.69492e+09 0 1
200 1 0 2.70316e+09 2.70341e+09 2.70443e+09 2.7051e+09 0 1
201 2 1 2.71935e+09 2.7196e+09 2.72062e+09 2.72067e+09 0 1
202 1 0 2.73081e+09 2.73107e+09 2.73209e+09 2.73224e+09 0 1
203 2 0 2.73991e+09 2.74017e+09 2.74119e+09 2.74247e+09 0 0
204 2 0 2.75088e+09 2.75112e+09 2.75214e+09 2.75353e+09 1 0
205 2 1 2.76178e+09 2.76203e+09 2.76305e+09 2.77349e+09 1 1
206 2 1 2.78538e+09 2.78563e+09 2.78665e+09 2.78702e+09 0 1
207 2 1 2.80504e+09 2.8053e+09 2.80632e+09 2.80688e+09 0 1
208 1 0 2.81309e+09 2.81334e+09 2.81436e+09 2.81437e+09 0 1
209 1 0 2.83764e+09 2.8379e+09 2.83892e+09 2.84159e+09 0 1
210 1 1 2.852e+09 2.85225e+09 2.85327e+09 2.85371e+09 0 0
211 1 1 2.86124e+09 2.8615e+09 2.86252e+09 2.86317e+09 1 0
212 1 0 2.87259e+09 2.87284e+09 2.87386e+09 2.87399e+09 1 1
213 1 0 2.88548e+09 2.88572e+09 2.88674e+09 2.88726e+09 0 1
214 1 0 2.89358e+09 2.89384e+09 2.89486e+09 2.89488e+09 0 1
215 2 0 2.90162e+09 2.90187e+09 2.90289e+09 2.90375e+09 0 0
216 2 0 2.91587e+09 2.91613e+09 2.91715e+09 2.93119e+09 1 0
217 2 0 2.93852e+09 2.93877e+09 2.93978e+09 2.94384e+09 1 0
218 2 0 2.95126e+09 2.95151e+09 2.95253e+09 2.96423e+09 1 0
219 2 0 2.97198e+09 2.97225e+09 2.97327e+09 2.97367e+09 0 0
220 1 0 2.9809e+09 2.98115e+09 2.98217e+09 2.98356e+09 0 1
221 1 0 2.9944e+09 2.99465e+09 2.99567e+09 2.9977e+09 0 1
222 2 1 3.01275e+09 3.01299e+09 3.01401e+09 3.02058e+09 0 1
223 2 0 3.02355e+09 3.02382e+09 3.02484e+09 3.02486e+09 0 0
224 2 1 3.03398e+09 3.03423e+09 3.03525e+09 3.03531e+09 1 1
225 1 0 3.04318e+09 3.04343e+09 3.04445e+09 3.04496e+09 0 1
226 2 1 3.06727e+09 3.06752e+09 3.06854e+09 3.07086e+09 0 1
227 2 0 3.08398e+09 3.08425e+09 3.08527e+09 3.08574e+09 0 0
228 2 0 3.09895e+09 3.09921e+09 3.10023e+09 3.10031e+09 1 0
229 2 0 3.10929e+09 3.10955e+09 3.11057e+09 3.11071e+09 1 0
230 2 0 3.12068e+09 3.12093e+09 3.12195e+09 3.12596e+09 1 0
231 2 1 3.13341e+09 3.13367e+09 3.13469e+09 3.13707e+09 0 1
232 1 0 3.13964e+09 3.1399e+09 3.14092e+09 3.14116e+09 0 1
233 1 0 3.15172e+09 3.15197e+09 3.15299e+09 3.15309e+09 0 1
234 2 0 3.17616e+09 3.17642e+09 3.17744e+09 3.178e+09 0 0
235 2 1 3.1853e+09 3.18554e+09 3.18656e+09 3.18972e+09 1 1
236 1 0 3.19978e+09 3.20004e+09 3.20106e+09 3.20126e+09 0 1
237 1 1 3.20915e+09 3.2094e+09 3.21042e+09 3.21094e+09 0 0
238 1 1 3.21798e+09 3.21824e+09 3.21926e+09 3.22035e+09 1 0
239 1 1 3.23023e+09 3.23048e+09 3.2315e+09 3.23256e+09 1 0
240 1 1 3.23986e+09 3.24011e+09 3.24113e+09 3.27239e+09 1 0
241 1 0 3.28143e+09 3.28169e+09 3.28271e+09 3.28557e+09 0 1
242 2 0 3.29243e+09 3.29268e+09 3.2937e+09 3.29388e+09 0 0
243 2 0 3.30136e+09 3.3016e+09 3.30262e+09 3.31256e+09 1 0
244 2 0 3.31959e+09 3.31984e+09 3.32086e+09 3.32264e+09 1 0
245 2 0 3.3302e+09 3.33045e+09 3.33147e+09 3.34004e+09 1 0
246 1 0 3.34813e+09 3.34839e+09 3.34941e+09 3.35104e+09 0 1
247 1 0 3.35371e+09 3.35396e+09 3.35498e+09 3.3551e+09 0 1
248 2 1 3.36352e+09 3.36377e+09 3.36479e+09 3.36494e+09 0 1
249 2 0 3.37544e+09 3.37569e+09 3.37671e+09 3.37739e+09 0 0
250 2 0 3.38491e+09 3.38516e+09 3.38618e+09 3.38681e+09 1 0
251 2 1 3.39417e+09 3.39443e+09 3.39545e+09 3.39948e+09 1 1
252 1 1 3.41417e+09 3.41441e+09 3.41543e+09 3.41665e+09 0 0
253 1 1 3.42707e+09 3.42733e+09 3.42834e+09 3.42889e+09 1 0
254 1 1 3.43796e+09 3.43821e+09 3.43923e+09 3.43957e+09 1 0
255 1 1 3.44699e+09 3.44725e+09 3.44827e+09 3.44913e+09 1 0
256 2 0 3.45846e+09 3.45872e+09 3.45974e+09 3.46464e+09 0 0
257 1 0 3.47193e+09 3.47218e+09 3.4732e+09 3.48109e+09 0 1
258 1 1 3.49008e+09 3.49033e+09 3.49135e+09 3.4918e+09 0 0
259 1 0 3.49887e+09 3.49913e+09 3.50015e+09 3.50065e+09 1 1
260 1 1 3.50862e+09 3.50888e+09 3.5099e+09 3.51094e+09 0 0
261 1 0 3.51985e+09 3.5201e+09 3.52112e+09 3.52118e+09 1 1
262 2 1 3.5327e+09 3.53296e+09 3.53398e+09 3.53508e+09 0 1
263 2 0 3.53873e+09 3.53898e+09 3.54e+09 3.54034e+09 0 0
264 2 0 3.55243e+09 3.55269e+09 3.55371e+09 3.55635e+09 1 0
265 2 1 3.56381e+09 3.56407e+09 3.56509e+09 3.56516e+09 1 1
266 2 1 3.57653e+09 3.57679e+09 3.57781e+09 3.57966e+09 0 1
267 2 0 3.58755e+09 3.58781e+09 3.58883e+09 3.58922e+09 0 0
268 2 0 3.5968e+09 3.59705e+09 3.59807e+09 3.63607e+09 1 0
269 2 0 3.64377e+09 3.64402e+09 3.64504e+09 3.64734e+09 1 0
270 2 0 3.65635e+09 3.6566e+09 3.65762e+09 3.65941e+09 1 0
271 2 0 3.66772e+09 3.66797e+09 3.66899e+09 3.66943e+09 0 0
272 2 0 3.6772e+09 3.67746e+09 3.67848e+09 3.68026e+09 0 0
273 1 0 3.68754e+09 3.68781e+09 3.68883e+09 3.68888e+09 0 1
274 2 0 3.69309e+09 3.69334e+09 3.69436e+09 3.69479e+09 0 0
275 2 1 3.70292e+09 3.70317e+09 3.70419e+09 3.70672e+09 1 1
276 1 0 3.71262e+09 3.71287e+09 3.71389e+09 3.71413e+09 0 1
277 1 1 3.7233e+09 3.72355e+09 3.72457e+09 3.72534e+09 0 0
278 1 0 3.73258e+09 3.73283e+09 3.73385e+09 3.7341e+09 1 1
279 1 1 3.73948e+09 3.73973e+09 3.74075e+09 3.74105e+09 0 0
280 1 0 3.75133e+09 3.75158e+09 3.7526e+09 3.75264e+09 1 1
281 2 0 3.75762e+09 3.75787e+09 3.75889e+09 3.75953e+09 0 0
282 2 1 3.76975e+09 3.77e+09 3.77102e+09 3.77121e+09 1 1
283 1 0 3.77493e+09 3.77517e+09 3.77619e+09 3.77633e+09 0 1
284 1 1 3.78485e+09 3.7851e+09 3.78612e+09 3.78729e+09 0 0
285 1 0 3.79433e+09 3.79459e+09 3.79561e+09 3.7998e+09 1 1
286 2 0 3.80758e+09 3.80783e+09 3.80885e+09 3.80912e+09 0 0
287 2 1 3.81698e+09 3.81723e+09 3.81825e+09 3.82434e+09 1 1
288 2 1 3.82786e+09 3.8281e+09 3.82912e+09 3.82915e+09 0 1
289 1 0 3.83486e+09 3.83511e+09 3.83613e+09 3.83695e+09 0 1
290 2 0 3.84279e+09 3.84305e+09 3.84407e+09 3.84514e+09 0 0
291 2 1 3.85399e+09 3.85425e+09 3.85527e+09 3.85606e+09 1 1
292 1 0 3.85872e+09 3.85898e+09 3.86e+09 3.86055e+09 0 1
293 2 0 3.87097e+09 3.87123e+09 3.87225e+09 3.87284e+09 0 0
294 2 1 3.88059e+09 3.88085e+09 3.88187e+09 3.88214e+09 1 1
295 2 1 3.89201e+09 3.89226e+09 3.89328e+09 3.89334e+09 0 1
296 1 1 3.89903e+09 3.89928e+09 3.9003e+09 3.90063e+09 0 0
297 1 1 3.90795e+09 3.90819e+09 3.90921e+09 3.9095e+09 1 0
298 1 0 3.91686e+09 3.91712e+09 3.91814e+09 3.93761e+09 1 1
299 2 0 3.94426e+09 3.94451e+09 3.94553e+09 3.9458e+09 0 0
300 2 1 3.95301e+09 3.95326e+09 3.95428e+09 3.95747e+09 1 1
301 2 1 3.96279e+09 3.96305e+09 3.96407e+09 3.9681e+09 0 1
302 1 1 3.97242e+09 3.97267e+09 3.97369e+09 3.97396e+09 0 0
303 1 0 3.98113e+09 3.98139e+09 3.98241e+09 3.98288e+09 1 1
304 2 0 3.98576e+09 3.986e+09 3.98702e+09 3.98962e+09 0 0
305 2 1 3.99713e+09 3.99739e+09 3.99841e+09 3.99959e+09 1 1
306 2 1 4.00632e+09 4.00658e+09 4.0076e+09 4.00834e+09 0 1
307 1 0 4.01363e+09 4.01389e+09 4.01491e+09 4.01528e+09 0 1
308 2 0 4.01806e+09 4.01832e+09 4.01934e+09 4.01944e+09 0 0
309 2 0 4.02773e+09 4.02799e+09 4.029e+09 4.05209e+09 1 0
310 2 0 4.05952e+09 4.05978e+09 4.0608e+09 4.08021e+09 1 0
311 2 0 4.08813e+09 4.08838e+09 4.0894e+09 4.08982e+09 1 0
312 2 0 4.09976e+09 4.10001e+09 4.10103e+09 4.10614e+09 0 0
313 2 0 4.11328e+09 4.11353e+09 4.11454e+09 4.12096e+09 0 0
314 1 0 4.12823e+09 4.12849e+09 4.12951e+09 4.14544e+09 0 1
315 1 1 4.15266e+09 4.15291e+09 4.15393e+09 4.15616e+09 0 0
316 1 1 4.16347e+09 4.16372e+09 4.16474e+09 4.1662e+09 1 0
317 1 0 4.17359e+09 4.17385e+09 4.17487e+09 4.20556e+09 1 1
318 2 0 4.21472e+09 4.21497e+09 4.21599e+09 4.22211e+09 0 0
319 2 0 4.23015e+09 4.23041e+09 4.23143e+09 4.23464e+09 1 0
320 2 0 4.24255e+09 4.2428e+09 4.24382e+09 4.24672e+09 1 0
321 2 0 4.25408e+09 4.25433e+09 4.25535e+09 4.26214e+09 1 0
322 1 0 4.2702e+09 4.27046e+09 4.27148e+09 4.27217e+09 0 1
323 2 1 4.27481e+09 4.27507e+09 4.27609e+09 4.27611e+09 0 1
324 2 1 4.27903e+09 4.27928e+09 4.2803e+09 4.28043e+09 0 1
325 1 0 4.28316e+09 4.28341e+09 4.28443e+09 4.28532e+09 0 1
326 1 0 4.28867e+09 4.28892e+09 4.28994e+09 4.28999e+09 0 1
327 1 0 4.29446e+09 4.29472e+09 768820 807244 0 1
328 2 0 5.01761e+06 5.266e+06 6.2856e+06 6.65566e+06 0 0
329 2 1 1.50753e+07 1.53184e+07 1.6338e+07 1.63945e+07 1 1
330 1 0 1.9071e+07 1.93187e+07 2.03383e+07 2.04994e+07 0 1
331 1 1 2.31281e+07 2.33895e+07 2.44091e+07 2.51671e+07 0 0
332 1 1 3.46952e+07 3.49561e+07 3.59757e+07 3.66682e+07 1 0
333 1 0 4.40873e+07 4.43432e+07 4.53628e+07 4.6356e+07 1 1
334 1 1 4.9407e+07 4.9661e+07 5.06806e+07 5.08315e+07 0 0
335 1 1 5.95927e+07 5.98442e+07 6.08638e+07 6.27181e+07 1 0
336 1 0 7.23815e+07 7.26235e+07 7.36431e+07 7.63935e+07 1 1
337 2 0 8.56187e+07 8.58775e+07 8.6897e+07 8.76671e+07 0 0
338 2 1 9.52791e+07 9.5537e+07 9.65566e+07 9.69945e+07 1 1
339 2 0 1.04591e+08 1.04856e+08 1.05875e+08 1.06218e+08 0 0
340 2 0 1.14654e+08 1.14911e+08 1.15931e+08 1.20662e+08 1 0
341 2 0 1.28177e+08 1.28427e+08 1.29447e+08 1.29616e+08 1 0
342 2 0 1.36882e+08 1.37142e+08 1.38161e+08 1.38199e+08 1 0
343 1 1 1.45731e+08 1.45978e+08 1.46998e+08 1.47108e+08 0 0
344 1 0 1.55074e+08 1.55323e+08 1.56342e+08 1.61329e+08 0 1
345 2 0 1.64592e+08 1.64852e+08 1.65872e+08 1.6606e+08 0 0
346 2 0 1.7421e+08 1.7446e+08 1.75479e+08 1.83893e+08 1 0
347 2 0 1.92167e+08 1.92414e+08 1.93434e+08 2.04669e+08 1 0
348 2 0 2.12487e+08 2.12738e+08 2.13758e+08 2.15869e+08 1 0
349 2 0 2.24539e+08 2.24783e+08 2.25802e+08 2.30578e+08 0 0
350 2 0 2.38025e+08 2.38281e+08 2.393e+08 2.39313e+08 0 0
351 1 0 2.47008e+08 2.47272e+08 2.48292e+08 2.48601e+08 0 1
352 1 0 2.52245e+08 2.52488e+08 2.53508e+08 2.54791e+08 0 1
353 2 1 2.57541e+08 2.57802e+08 2.58821e+08 2.59148e+08 0 1
354 2 1 2.67665e+08 2.67929e+08 2.68948e+08 2.69003e+08 0 1
355 1 1 2.77875e+08 2.78127e+08 2.79146e+08 2.79564e+08 0 0
356 1 0 2.87522e+08 2.87775e+08 2.88795e+08 2.88822e+08 1 1
357 2 0 2.92672e+08 2.92922e+08 2.93942e+08 2.94296e+08 0 0
358 2 1 3.01476e+08 3.01739e+08 3.02758e+08 3.03981e+08 1 1
359 2 0 3.09316e+08 3.09569e+08 3.10588e+08 3.11236e+08 0 0
360 2 1 3.20692e+08 3.20947e+08 3.21967e+08 3.22968e+08 1 1
361 1 1 3.26916e+08 3.27167e+08 3.28187e+08 3.28337e+08 0 0
362 1 1 3.36667e+08 3.36923e+08 3.37943e+08 3.42291e+08 1 0
363 1 1 3.53505e+08 3.53765e+08 3.54785e+08 3.54915e+08 1 0
364 1 0 3.62081e+08 3.62335e+08 3.63355e+08 3.655e+08 1 1
365 1 1 3.6845e+08 3.68701e+08 3.6972e+08 3.69765e+08 0 0
366 1 0 3.79613e+08 3.79872e+08 3.80891e+08 3.81666e+08 1 1
367 1 1 3.8455e+08 3.84811e+08 3.85831e+08 3.86007e+08 0 0
368 1 0 3.93304e+08 3.93548e+08 3.94568e+08 3.99418e+08 1 1
369 2 0 4.03712e+08 4.03963e+08 4.04983e+08 4.06975e+08 0 0
370 2 0 4.15502e+08 4.15747e+08 4.16766e+08 4.18084e+08 1 0
371 2 0 4.25591e+08 4.25848e+08 4.26868e+08 4.27016e+08 1 0
372 2 0 4.34159e+08 4.34418e+08 4.35438e+08 4.37893e+08 1 0
373 2 0 4.45218e+08 4.45481e+08 4.46501e+08 4.49469e+08 0 0
374 2 0 4.57957e+08 4.58215e+08 4.59235e+08 4.6769e+08 0 0
375 1 0 4.74953e+08 4.75219e+08 4.76238e+08 4.7718e+08 0 1
376 2 0 4.84237e+08 4.84489e+08 4.85508e+08 4.89342e+08 0 0
377 2 0 4.97769e+08 4.98028e+08 4.99047e+08 5.00454e+08 1 0
378 2 1 5.07919e+08 5.08184e+08 5.09204e+08 5.18866e+08 1 1
379 2 0 5.24032e+08 5.24296e+08 5.25316e+08 5.3017e+08 0 0
380 2 1 5.3734e+08 5.37587e+08 5.38607e+08 5.41502e+08 1 1
381 2 1 5.4451e+08 5.4477e+08 5.45789e+08 5.46042e+08 0 1
382 2 1 5.49503e+08 5.49761e+08 5.5078e+08 5.50884e+08 0 1
383 1 1 5.57228e+08 5.57479e+08 5.58499e+08 5.61151e+08 0 0
384 1 1 5.69327e+08 5.69591e+08 5.70611e+08 5.71489e+08 1 0
385 1 0 5.78966e+08 5.79231e+08 5.8025e+08 5.80446e+08 1 1
386 2 0 5.83207e+08 5.83478e+08 5.84498e+08 5.85995e+08 0 0
387 2 0 5.97248e+08 5.97499e+08 5.98519e+08 6.04853e+08 1 0
388 2 0 6.12082e+08 6.12333e+08 6.13353e+08 6.22339e+08 1 0
389 2 0 6.29774e+08 6.30031e+08 6.3105e+08 6.3506e+08 1 0
390 1 0 6.42162e+08 6.42415e+08 6.43434e+08 6.49413e+08 0 1
391 1 0 6.51952e+08 6.52197e+08 6.53216e+08 6.55694e+08 0 1
392 2 0 6.60734e+08 6.60986e+08 6.62005e+08 6.62064e+08 0 0
393 2 1 6.69103e+08 6.69354e+08 6.70373e+08 6.71135e+08 1 1
394 1 1 6.73834e+08 6.74086e+08 6.75106e+08 6.7962e+08 0 0
395 1 0 6.87309e+08 6.87568e+08 6.88587e+08 6.91286e+08 1 1
396 2 0 6.94229e+08 6.94478e+08 6.95497e+08 6.96767e+08 0 0
397 2 0 7.0409e+08 7.04348e+08 7.05368e+08 7.10483e+08 1 0
398 2 0 7.17893e+08 7.18149e+08 7.19168e+08 7.19739e+08 1 0
399 2 0 7.27104e+08 7.27365e+08 7.28385e+08 7.29772e+08 1 0
400 2 0 7.36936e+08 7.37179e+08 7.38199e+08 7.39869e+08 0 0
401 2 0 7.47006e+08 7.47252e+08 7.48271e+08 7.48291e+08 0 0
402 2 0 7.55433e+08 7.55693e+08 7.56712e+08 7.58919e+08 0 0
403 1 0 7.68185e+08 7.68442e+08 7.69462e+08 7.71869e+08 0 1
404 2 0 7.74662e+08 7.74924e+08 7.75944e+08 7.76785e+08 0 0
405 2 0 7.84125e+08 7.84373e+08 7.85393e+08 7.88623e+08 1 0
406 2 0 7.97281e+08 7.97532e+08 7.98552e+08 8.0502e+08 1 0
407 2 0 8.12546e+08 8.12805e+08 8.13824e+08 8.15288e+08 1 0
408 1 0 8.2591e+08 8.26169e+08 8.27189e+08 8.29436e+08 0 1
409 2 0 8.32005e+08 8.32258e+08 8.33277e+08 8.3817e+08 0 0
410 2 0 8.46044e+08 8.46293e+08 8.47313e+08 8.52969e+08 1 0
411 2 0 8.6016e+08 8.60411e+08 8.61431e+08 8.65924e+08 1 0
412 2 0 8.73692e+08 8.73954e+08 8.74974e+08 8.80625e+08 1 0
413 1 0 8.87932e+08 8.8818e+08 8.89199e+08 8.89389e+08 0 1
414 1 1 8.95049e+08 8.95298e+08 8.96318e+08 8.96485e+08 0 0
415 1 0 9.0376e+08 9.0401e+08 9.05029e+08 9.11445e+08 1 1
416 2 0 9.15714e+08 9.15972e+08 9.16992e+08 9.20447e+08 0 0
417 2 0 9.29259e+08 9.29511e+08 9.3053e+08 9.39431e+08 1 0
418 2 0 9.46592e+08 9.46852e+08 9.47871e+08 9.53862e+08 1 0
419 2 0 9.61178e+08 9.61449e+08 9.62469e+08 9.65589e+08 1 0
420 2 0 9.72801e+08 9.73052e+08 9.74071e+08 9.91032e+08 0 0
421 1 0 9.98367e+08 9.98629e+08 9.99649e+08 1.00107e+09 0 1
422 2 0 1.00447e+09 1.00474e+09 1.00576e+09 1.01298e+09 0 0
423 2 0 1.02099e+09 1.02123e+09 1.02225e+09 1.02624e+09 1 0
424 2 0 1.03355e+09 1.03381e+09 1.03483e+09 1.04013e+09 1 0
425 2 0 1.04722e+09 1.04747e+09 1.04849e+09 1.06897e+09 1 0
426 1 0 1.0761e+09 1.07636e+09 1.07738e+09 1.08101e+09 0 1
427 1 0 1.08476e+09 1.08502e+09 1.08604e+09 1.09728e+09 0 1
428 1 0 1.10135e+09 1.1016e+09 1.10262e+09 1.10557e+09 0 1
429 1 1 1.10966e+09 1.10992e+09 1.11094e+09 1.11167e+09 0 0
430 1 0 1.1187e+09 1.11895e+09 1.11997e+09 1.12018e+09 1 1
431 2 0 1.12303e+09 1.12328e+09 1.1243e+09 1.12461e+09 0 0
432 2 1 1.13195e+09 1.13222e+09 1.13323e+09 1.13441e+09 1 1
433 1 1 1.139e+09 1.13926e+09 1.14028e+09 1.1497e+09 0 0
434 1 0 1.15696e+09 1.1572e+09 1.15822e+09 1.15891e+09 1 1
435 2 0 1.16275e+09 1.16302e+09 1.16404e+09 1.1676e+09 0 0
436 2 0 1.17727e+09 1.17753e+09 1.17855e+09 1.18392e+09 1 0
437 2 0 1.19502e+09 1.19527e+09 1.19629e+09 1.20465e+09 1 0
438 2 0 1.2121e+09 1.21236e+09 1.21338e+09 1.21584e+09 1 0
439 1 0 1.22325e+09 1.22351e+09 1.22453e+09 1.22468e+09 0 1
440 1 1 1.22847e+09 1.22872e+09 1.22974e+09 1.23526e+09 0 0
441 1 1 1.24231e+09 1.24255e+09 1.24357e+09 1.24363e+09 1 0
442 1 0 1.25095e+09 1.2512e+09 1.25222e+09 1.25574e+09 1 1
443 1 1 1.25986e+09 1.26011e+09 1.26113e+09 1.26335e+09 0 0
444 1 0 1.27052e+09 1.27076e+09 1.27178e+09 1.2733e+09 1 1
445 2 0 1.27733e+09 1.27758e+09 1.2786e+09 1.28438e+09 0 0
446 2 0 1.29146e+09 1.29172e+09 1.29273e+09 1.29338e+09 1 0
447 2 0 1.30075e+09 1.301e+09 1.30202e+09 1.31145e+09 1 0
448 2 0 1.32096e+09 1.32122e+09 1.32224e+09 1.32538e+09 1 0
449 2 0 1.33523e+09 1.33549e+09 1.33651e+09 1.33945e+09 0 0
450 1 0 1.34655e+09 1.34681e+09 1.34783e+09 1.35792e+09 0 1
451 1 0 1.36307e+09 1.36332e+09 1.36434e+09 1.3683e+09 0 1
452 1 0 1.37268e+09 1.37295e+09 1.37397e+09 1.38491e+09 0 1
453 2 0 1.39019e+09 1.39044e+09 1.39146e+09 1.39647e+09 0 0
454 2 0 1.4036e+09 1.40386e+09 1.40488e+09 1.40548e+09 1 0
455 2 0 1.41256e+09 1.41281e+09 1.41382e+09 1.41621e+09 1 0
456 2 0 1.42331e+09 1.42355e+09 1.42457e+09 1.43056e+09 1 0
457 2 0 1.4381e+09 1.43835e+09 1.43937e+09 1.44073e+09 0 0
458 1 0 1.44808e+09 1.44832e+09 1.44934e+09 1.47395e+09 0 1
459 2 0 1.47785e+09 1.4781e+09 1.47912e+09 1.48609e+09 0 0
460 2 0 1.49474e+09 1.495e+09 1.49602e+09 1.50321e+09 1 0
461 2 1 1.51208e+09 1.51233e+09 1.51335e+09 1.51613e+09 1 1
462 1 0 1.51907e+09 1.51931e+09 1.52033e+09 1.52927e+09 0 1
463 1 0 1.53222e+09 1.53247e+09 1.53349e+09 1.53761e+09 0 1
464 1 0 1.54163e+09 1.54188e+09 1.5429e+09 1.54371e+09 0 1
465 1 0 1.54654e+09 1.54679e+09 1.54781e+09 1.55073e+09 0 1
466 1 1 1.55456e+09 1.55481e+09 1.55583e+09 1.55618e+09 0 0
467 1 1 1.5634e+09 1.56365e+09 1.56467e+09 1.56563e+09 1 0
468 1 0 1.57294e+09 1.57319e+09 1.57421e+09 1.57843e+09 1 1
469 2 0 1.58216e+09 1.58241e+09 1.58343e+09 1.58823e+09 0 0
470 2 1 1.59539e+09 1.59563e+09 1.59665e+09 1.60013e+09 1 1
471 1 0 1.60281e+09 1.60306e+09 1.60407e+09 1.61513e+09 0 1
472 1 0 1.61868e+09 1.61894e+09 1.61996e+09 1.62549e+09 0 1
473 2 1 1.62837e+09 1.62861e+09 1.62963e+09 1.63841e+09 0 1
474 2 1 1.64128e+09 1.64153e+09 1.64255e+09 1.64581e+09 0 1
475 1 0 1.65018e+09 1.65043e+09 1.65145e+09 1.6585e+09 0 1
476 1 0 1.66255e+09 1.6628e+09 1.66382e+09 1.67071e+09 0 1
477 2 0 1.67475e+09 1.67501e+09 1.67603e+09 1.6768e+09 0 0
478 2 0 1.68421e+09 1.68447e+09 1.68549e+09 1.68566e+09 1 0
479 2 0 1.69291e+09 1.69316e+09 1.69418e+09 1.69452e+09 1 0
480 2 0 1.70386e+09 1.70412e+09 1.70514e+09 1.72888e+09 1 0
481 1 0 1.73625e+09 1.7365e+09 1.73752e+09 1.7397e+09 0 1
482 1 0 1.7423e+09 1.74255e+09 1.74357e+09 1.75648e+09 0 1
483 2 0 1.75931e+09 1.75956e+09 1.76058e+09 1.76439e+09 0 0
484 2 0 1.77186e+09 1.77212e+09 1.77314e+09 1.77653e+09 1 0
485 2 0 1.78382e+09 1.78409e+09 1.78511e+09 1.78671e+09 1 0
486 2 0 1.79393e+09 1.7942e+09 1.79522e+09 1.79538e+09 1 0
487 2 0 1.80264e+09 1.80289e+09 1.80391e+09 1.80854e+09 0 0
488 1 0 1.816e+09 1.81626e+09 1.81728e+09 1.82696e+09 0 1
489 2 0 1.83084e+09 1.83109e+09 1.83211e+09 1.83572e+09 0 0
490 2 0 1.84313e+09 1.84337e+09 1.84439e+09 1.84681e+09 1 0
491 2 0 1.85424e+09 1.85449e+09 1.85551e+09 1.8609e+09 1 0
492 2 0 1.87103e+09 1.87128e+09 1.8723e+09 1.87691e+09 1 0
493 2 1 1.88499e+09 1.88525e+09 1.88627e+09 1.88643e+09 0 1
494 1 0 1.89003e+09 1.8903e+09 1.89131e+09 1.89791e+09 0 1
495 1 1 1.90055e+09 1.9008e+09 1.90181e+09 1.90362e+09 0 0
496 1 1 1.91101e+09 1.91126e+09 1.91228e+09 1.91334e+09 1 0
497 1 1 1.92072e+09 1.92098e+09 1.922e+09 1.92231e+09 1 0
498 1 1 1.92978e+09 1.93003e+09 1.93105e+09 1.93507e+09 1 0
499 2 0 1.94329e+09 1.94355e+09 1.94457e+09 1.95414e+09 0 0
500 2 1 1.96163e+09 1.96189e+09 1.96291e+09 1.96932e+09 0 1
501 1 0 1.97304e+09 1.97329e+09 1.97431e+09 1.9805e+09 0 1
502 2 0 1.98316e+09 1.98342e+09 1.98444e+09 1.98654e+09 0 0
503 2 1 1.99397e+09 1.99423e+09 1.99525e+09 2.00754e+09 1 1
504 2 0 2.01113e+09 2.01139e+09 2.01241e+09 2.01999e+09 0 0
505 2 0 2.02772e+09 2.02797e+09 2.02899e+09 2.03206e+09 1 0
506 2 0 2.03926e+09 2.03953e+09 2.04055e+09 2.04809e+09 1 0
507 2 0 2.05529e+09 2.05555e+09 2.05657e+09 2.07655e+09 1 0
508 2 0 2.08369e+09 2.08395e+09 2.08497e+09 2.0968e+09 0 0
509 1 1 2.10401e+09 2.10426e+09 2.10528e+09 2.10628e+09 0 0
510 2 0 2.11491e+09 2.11517e+09 2.11619e+09 2.12406e+09 0 0
511 1 0 2.13132e+09 2.13158e+09 2.1326e+09 2.14922e+09 0 1
512 1 0 2.15221e+09 2.15246e+09 2.15348e+09 2.20544e+09 0 1
513 2 0 2.20811e+09 2.20837e+09 2.20939e+09 2.2192e+09 0 0
514 2 0 2.22658e+09 2.22684e+09 2.22786e+09 2.34097e+09 1 0
515 2 0 2.34822e+09 2.34847e+09 2.34949e+09 2.36263e+09 1 0
516 2 0 2.36974e+09 2.36999e+09 2.37101e+09 2.40556e+09 1 0
517 1 0 2.41274e+09 2.41299e+09 2.41401e+09 2.42132e+09 0 1
518 1 0 2.42389e+09 2.42414e+09 2.42516e+09 2.43108e+09 0 1
519 2 1 2.43386e+09 2.43412e+09 2.43514e+09 2.44456e+09 0 1
520 1 0 2.44743e+09 2.44769e+09 2.4487e+09 2.45226e+09 0 1
521 1 0 2.4551e+09 2.45537e+09 2.45639e+09 2.46664e+09 0 1
522 1 0 2.46921e+09 2.46946e+09 2.47048e+09 2.47391e+09 0 1
523 2 0 2.4769e+09 2.47715e+09 2.47817e+09 2.47826e+09 0 0
524 2 0 2.48532e+09 2.48557e+09 2.48659e+09 2.48848e+09 1 0
525 2 0 2.49604e+09 2.4963e+09 2.49732e+09 2.50092e+09 1 0
526 2 0 2.50814e+09 2.5084e+09 2.50942e+09 2.51927e+09 1 0
527 2 0 2.5268e+09 2.52705e+09 2.52807e+09 2.52905e+09 0 0
528 1 1 2.53624e+09 2.53649e+09 2.53751e+09 2.54413e+09 0 0
529 1 0 2.55131e+09 2.55156e+09 2.55258e+09 2.55931e+09 0 1
530 1 0 2.56204e+09 2.56228e+09 2.5633e+09 2.56799e+09 0 1
531 2 0 2.57061e+09 2.57087e+09 2.57189e+09 2.57333e+09 0 0
532 2 0 2.58068e+09 2.58093e+09 2.58195e+09 2.58881e+09 1 0
533 2 0 2.59595e+09 2.5962e+09 2.59722e+09 2.60458e+09 1 0
534 2 0 2.61205e+09 2.61231e+09 2.61333e+09 2.61744e+09 1 0
535 1 0 2.62623e+09 2.62649e+09 2.6275e+09 2.63419e+09 0 1
536 2 0 2.63689e+09 2.63714e+09 2.63816e+09 2.64449e+09 0 0
537 2 0 2.6521e+09 2.65236e+09 2.65338e+09 2.65703e+09 1 0
538 2 0 2.66428e+09 2.66453e+09 2.66555e+09 2.67027e+09 1 0
539 2 0 2.67772e+09 2.67798e+09 2.679e+09 2.68357e+09 1 0
540 2 0 2.69114e+09 2.69139e+09 2.69241e+09 2.69835e+09 0 0
541 2 0 2.70572e+09 2.70597e+09 2.70699e+09 2.71065e+09 0 0
542 2 0 2.71797e+09 2.71822e+09 2.71924e+09 2.72123e+09 0 0
543 1 0 2.73033e+09 2.73057e+09 2.73159e+09 2.74892e+09 0 1
544 1 0 2.75163e+09 2.75188e+09 2.7529e+09 2.76192e+09 0 1
545 1 0 2.76483e+09 2.76509e+09 2.7661e+09 2.77027e+09 0 1
546 2 0 2.77317e+09 2.77343e+09 2.77445e+09 2.77893e+09 0 0
547 2 0 2.78718e+09 2.78744e+09 2.78846e+09 2.79756e+09 1 0
548 2 0 2.80482e+09 2.80506e+09 2.80608e+09 2.81247e+09 1 0
549 2 0 2.81963e+09 2.81988e+09 2.8209e+09 2.82224e+09 1 0
550 2 0 2.8297e+09 2.82996e+09 2.83098e+09 2.83396e+09 0 0
551 1 0 2.8427e+09 2.84296e+09 2.84398e+09 2.85424e+09 0 1
552 1 0 2.85722e+09 2.85747e+09 2.85849e+09 2.86239e+09 0 1
553 2 0 2.8654e+09 2.86565e+09 2.86667e+09 2.86809e+09 0 0
554 2 0 2.87518e+09 2.87544e+09 2.87646e+09 2.87875e+09 1 0
555 2 0 2.88587e+09 2.88611e+09 2.88713e+09 2.88719e+09 1 0
556 2 0 2.89458e+09 2.89483e+09 2.89585e+09 2.90424e+09 1 0
557 1 0 2.9118e+09 2.91206e+09 2.91308e+09 2.91356e+09 0 1
558 1 0 2.91607e+09 2.91633e+09 2.91734e+09 2.9281e+09 0 1
559 2 0 2.93229e+09 2.93254e+09 2.93356e+09 2.93981e+09 0 0
560 2 1 2.94734e+09 2.9476e+09 2.94862e+09 2.94967e+09 1 1
561 1 0 2.95241e+09 2.95267e+09 2.95369e+09 2.9627e+09 0 1
562 1 1 2.96951e+09 2.96975e+09 2.97077e+09 2.97084e+09 0 0
563 1 0 2.97914e+09 2.9794e+09 2.98042e+09 3.11508e+09 1 1
