trial trialType response stillTime stimOnset stimOffset respTime correctionTrial correct
001 1 1 2.03172e+07 2.06156e+07 2.16363e+07 2.17139e+07 0 1
002 2 1 2.47358e+07 2.49978e+07 2.60185e+07 3.0159e+07 0 0
003 2 1 3.77262e+07 3.80054e+07 3.90262e+07 4.21624e+07 1 0
004 2 1 5.2692e+07 5.295e+07 5.39707e+07 5.69606e+07 1 0
005 2 1 6.54613e+07 6.5711e+07 6.67318e+07 6.67356e+07 1 0
006 2 0 7.60965e+07 7.63472e+07 7.73679e+07 7.73914e+07 0 1
007 1 1 7.99816e+07 8.024e+07 8.12608e+07 8.14991e+07 0 1
008 2 1 8.62362e+07 8.64901e+07 8.75108e+07 8.76273e+07 0 0
009 2 1 9.54133e+07 9.56662e+07 9.66869e+07 9.88231e+07 1 0
010 2 1 1.06073e+08 1.06328e+08 1.07349e+08 1.17431e+08 1 0
011 2 1 1.27069e+08 1.27334e+08 1.28355e+08 1.28399e+08 1 0
012 1 1 1.39302e+08 1.39566e+08 1.40587e+08 1.44075e+08 0 1
013 2 1 1.47101e+08 1.47362e+08 1.48383e+08 1.58639e+08 0 0
014 2 1 1.65725e+08 1.65971e+08 1.66992e+08 1.69591e+08 1 0
015 2 1 1.77105e+08 1.77363e+08 1.78384e+08 1.82399e+08 1 0
016 2 1 1.90325e+08 1.90571e+08 1.91592e+08 1.94538e+08 1 0
017 1 1 2.01943e+08 2.02195e+08 2.03215e+08 2.07853e+08 0 1
018 1 0 2.10626e+08 2.1088e+08 2.119e+08 2.12253e+08 0 0
019 1 1 2.26968e+08 2.27218e+08 2.28238e+08 2.30079e+08 1 1
020 1 1 2.3274e+08 2.33e+08 2.3402e+08 2.34992e+08 0 1
021 2 0 2.37842e+08 2.38095e+08 2.39116e+08 2.39581e+08 0 1
022 1 0 2.61845e+08 2.621e+08 2.63121e+08 2.63189e+08 0 0
023 1 0 2.72424e+08 2.72681e+08 2.73702e+08 2.74791e+08 1 0
024 1 1 2.85986e+08 2.8624e+08 2.8726e+08 2.8731e+08 1 1
025 1 1 2.89904e+08 2.90158e+08 2.91178e+08 2.91802e+08 0 1
026 1 0 3.25708e+08 3.25963e+08 3.26984e+08 3.27095e+08 0 0
027 1 0 3.37616e+08 3.3787e+08 3.3889e+08 3.40164e+08 1 0
028 1 0 3.49405e+08 3.49656e+08 3.50677e+08 3.51945e+08 1 0
029 1 1 3.64089e+08 3.6434e+08 3.65361e+08 3.6554e+08 1 1
030 2 0 3.68425e+08 3.6869e+08 3.6971e+08 3.69953e+08 0 1
031 2 0 3.84125e+08 3.84371e+08 3.85392e+08 3.85726e+08 0 1
032 1 1 4.03839e+08 4.04086e+08 4.05107e+08 4.05749e+08 0 1
033 2 1 4.08265e+08 4.08531e+08 4.09552e+08 4.09643e+08 0 0
034 2 1 4.19218e+08 4.19484e+08 4.20505e+08 4.20698e+08 1 0
035 2 1 4.28784e+08 4.29043e+08 4.30064e+08 4.3055e+08 1 0
036 2 0 4.40513e+08 4.40761e+08 4.41782e+08 4.41814e+08 1 1
037 2 1 4.44787e+08 4.45042e+08 4.46063e+08 4.46901e+08 0 0
038 2 1 4.54085e+08 4.54338e+08 4.55358e+08 4.56154e+08 1 0
039 2 1 4.73725e+08 4.73972e+08 4.74992e+08 4.75034e+08 1 0
040 2 0 4.84151e+08 4.84406e+08 4.85427e+08 4.85717e+08 1 1
041 2 0 4.89712e+08 4.89957e+08 4.90978e+08 4.96683e+08 0 1
042 1 1 5.00832e+08 5.01092e+08 5.02113e+08 5.038e+08 0 1
043 1 0 5.2011e+08 5.20357e+08 5.21378e+08 5.22974e+08 0 0
044 1 0 5.31106e+08 5.31363e+08 5.32384e+08 5.37574e+08 1 0
045 1 0 5.48082e+08 5.48335e+08 5.49356e+08 5.50283e+08 1 0
046 1 0 5.6169e+08 5.61951e+08 5.62972e+08 5.63824e+08 1 0
047 2 0 5.72255e+08 5.72517e+08 5.73538e+08 5.77001e+08 0 1
048 2 0 5.79674e+08 5.79922e+08 5.80943e+08 5.81288e+08 0 1
049 2 1 5.84114e+08 5.84374e+08 5.85395e+08 5.86275e+08 0 0
050 2 1 5.93849e+08 5.94107e+08 5.95128e+08 5.95379e+08 1 0
051 2 1 6.04618e+08 6.0488e+08 6.05901e+08 6.08385e+08 1 0
052 2 1 6.18341e+08 6.18607e+08 6.19627e+08 6.21242e+08 1 0
053 2 1 6.30717e+08 6.30976e+08 6.31996e+08 6.34824e+08 0 0
054 2 0 6.49446e+08 6.49702e+08 6.50723e+08 6.55459e+08 0 1
055 1 0 6.62418e+08 6.62673e+08 6.63693e+08 6.65242e+08 0 0
056 1 1 6.81339e+08 6.81599e+08 6.8262e+08 6.8291e+08 1 1
057 1 1 6.86689e+08 6.86943e+08 6.87964e+08 6.8807e+08 0 1
058 1 1 6.9679e+08 6.97044e+08 6.98065e+08 6.98351e+08 0 1
059 2 1 7.00945e+08 7.01191e+08 7.02212e+08 7.02606e+08 0 0
060 2 0 7.16447e+08 7.16709e+08 7.17729e+08 7.18981e+08 1 1
061 1 1 7.26743e+08 7.26994e+08 7.28014e+08 7.29154e+08 0 1
062 1 0 7.42462e+08 7.42716e+08 7.43737e+08 7.44073e+08 0 0
063 1 1 7.5549e+08 7.55744e+08 7.56764e+08 7.57376e+08 1 1
064 2 1 7.59881e+08 7.60137e+08 7.61158e+08 7.61502e+08 0 0
065 2 1 7.70593e+08 7.70841e+08 7.71862e+08 7.72161e+08 1 0
066 2 0 7.88335e+08 7.88599e+08 7.89619e+08 7.90599e+08 1 1
067 2 1 7.93654e+08 7.93922e+08 7.94943e+08 7.95016e+08 0 0
068 2 1 8.23981e+08 8.24247e+08 8.25268e+08 8.25853e+08 1 0
069 2 1 8.44994e+08 8.45237e+08 8.46257e+08 8.46508e+08 1 0
070 2 1 8.58283e+08 8.58544e+08 8.59565e+08 8.59577e+08 1 0
071 2 1 8.70369e+08 8.70624e+08 8.71645e+08 8.72982e+08 0 0
072 2 1 8.88357e+08 8.88623e+08 8.89644e+08 8.89752e+08 0 0
073 1 0 8.98258e+08 8.98513e+08 8.99534e+08 8.99583e+08 0 0
074 2 0 9.06831e+08 9.0708e+08 9.08101e+08 9.08944e+08 0 1
075 2 1 9.19561e+08 9.1981e+08 9.2083e+08 9.22733e+08 0 0
076 2 0 9.35618e+08 9.3588e+08 9.36901e+08 9.3889e+08 1 1
077 2 1 9.47142e+08 9.474e+08 9.48421e+08 9.51338e+08 0 0
078 2 0 9.60424e+08 9.60692e+08 9.61713e+08 9.62308e+08 1 1
079 1 1 9.76542e+08 9.76802e+08 9.77823e+08 9.7896e+08 0 1
080 2 1 9.86228e+08 9.86478e+08 9.87498e+08 9.8852e+08 0 0
081 2 0 9.96829e+08 9.9709e+08 9.98111e+08 9.98404e+08 1 1
082 2 1 1.00399e+09 1.00426e+09 1.00528e+09 1.00926e+09 0 0
083 2 1 1.01685e+09 1.01711e+09 1.01813e+09 1.01927e+09 1 0
084 2 0 1.02976e+09 1.03001e+09 1.03103e+09 1.03201e+09 1 1
085 2 0 1.03452e+09 1.03477e+09 1.03579e+09 1.0368e+09 0 1
086 1 1 1.04638e+09 1.04664e+09 1.04767e+09 1.04943e+09 0 1
087 2 1 1.07029e+09 1.07055e+09 1.07157e+09 1.07328e+09 0 0
088 2 1 1.08379e+09 1.08404e+09 1.08507e+09 1.08628e+09 1 0
089 2 0 1.10275e+09 1.10301e+09 1.10403e+09 1.10408e+09 1 1
090 1 0 1.11561e+09 1.11587e+09 1.11689e+09 1.1177e+09 0 0
091 1 1 1.1257e+09 1.12595e+09 1.12697e+09 1.12928e+09 1 1
092 1 1 1.13956e+09 1.13981e+09 1.14083e+09 1.14166e+09 0 1
093 1 0 1.16012e+09 1.16038e+09 1.1614e+09 1.16225e+09 0 0
094 1 1 1.17337e+09 1.17363e+09 1.17465e+09 1.17532e+09 1 1
095 1 1 1.18856e+09 1.18881e+09 1.18983e+09 1.19157e+09 0 1
096 1 1 1.19975e+09 1.20002e+09 1.20104e+09 1.20134e+09 0 1
097 1 0 1.21529e+09 1.21556e+09 1.21658e+09 1.21738e+09 0 0
098 1 1 1.25044e+09 1.2507e+09 1.25172e+09 1.25202e+09 1 1
099 2 1 1.26243e+09 1.26268e+09 1.2637e+09 1.26402e+09 0 0
100 2 0 1.27157e+09 1.27182e+09 1.27284e+09 1.27383e+09 1 1
101 2 0 1.28502e+09 1.28528e+09 1.2863e+09 1.28724e+09 0 1
102 2 1 1.29895e+09 1.29921e+09 1.30023e+09 1.30398e+09 0 0
103 2 1 1.31695e+09 1.31721e+09 1.31823e+09 1.31869e+09 1 0
104 2 1 1.33451e+09 1.33475e+09 1.33577e+09 1.33612e+09 1 0
105 2 0 1.34619e+09 1.34643e+09 1.34746e+09 1.3481e+09 1 1
106 1 0 1.36008e+09 1.36034e+09 1.36136e+09 1.36171e+09 0 0
107 1 1 1.36924e+09 1.3695e+09 1.37052e+09 1.37063e+09 1 1
108 1 1 1.37352e+09 1.37378e+09 1.3748e+09 1.37482e+09 0 1
109 1 1 1.37772e+09 1.37798e+09 1.379e+09 1.37901e+09 0 1
110 2 1 1.3819e+09 1.38215e+09 1.38317e+09 1.38348e+09 0 0
111 2 1 1.40032e+09 1.40057e+09 1.40159e+09 1.40225e+09 1 0
112 2 1 1.42382e+09 1.42408e+09 1.4251e+09 1.426e+09 1 0
113 2 0 1.43354e+09 1.4338e+09 1.43482e+09 1.4361e+09 1 1
114 1 1 1.44647e+09 1.44672e+09 1.44774e+09 1.44862e+09 0 1
115 1 1 1.45172e+09 1.45199e+09 1.45301e+09 1.45321e+09 0 1
116 2 0 1.46872e+09 1.46898e+09 1.47e+09 1.47105e+09 0 1
117 2 1 1.47467e+09 1.47494e+09 1.47596e+09 1.47657e+09 0 0
118 2 1 1.49304e+09 1.49329e+09 1.49431e+09 1.4957e+09 1 0
119 2 1 1.50551e+09 1.50578e+09 1.5068e+09 1.50782e+09 1 0
120 2 0 1.5155e+09 1.51575e+09 1.51677e+09 1.51701e+09 1 1
121 2 1 1.52314e+09 1.5234e+09 1.52442e+09 1.52449e+09 0 0
122 2 1 1.53167e+09 1.53193e+09 1.53295e+09 1.53298e+09 1 0
123 2 1 1.54649e+09 1.54676e+09 1.54778e+09 1.548e+09 1 0
124 2 1 1.55503e+09 1.5553e+09 1.55632e+09 1.55689e+09 1 0
125 1 1 1.56526e+09 1.56551e+09 1.56654e+09 1.56978e+09 0 1
126 2 0 1.58241e+09 1.58266e+09 1.58368e+09 1.5837e+09 0 1
127 2 0 1.5899e+09 1.59015e+09 1.59117e+09 1.59151e+09 0 1
128 1 1 1.596e+09 1.59627e+09 1.59729e+09 1.59768e+09 0 1
129 1 1 1.60343e+09 1.60369e+09 1.60471e+09 1.6065e+09 0 1
130 2 0 1.63613e+09 1.63638e+09 1.6374e+09 1.63789e+09 0 1
131 2 0 1.64334e+09 1.6436e+09 1.64462e+09 1.6486e+09 0 1
132 1 0 1.65335e+09 1.65362e+09 1.65464e+09 1.65498e+09 0 0
133 1 0 1.66585e+09 1.66612e+09 1.66714e+09 1.66843e+09 1 0
134 1 0 1.67621e+09 1.67646e+09 1.67748e+09 1.67927e+09 1 0
135 1 0 1.68658e+09 1.68684e+09 1.68786e+09 1.68796e+09 1 0
136 1 1 1.6954e+09 1.69566e+09 1.69668e+09 1.69713e+09 0 1
137 1 1 1.70325e+09 1.70352e+09 1.70454e+09 1.70758e+09 0 1
138 1 1 1.71155e+09 1.71181e+09 1.71283e+09 1.71319e+09 0 1
139 1 0 1.72386e+09 1.72412e+09 1.72515e+09 1.72607e+09 0 0
140 1 1 1.73351e+09 1.73375e+09 1.73477e+09 1.73719e+09 1 1
141 1 1 1.73975e+09 1.74001e+09 1.74103e+09 1.74128e+09 0 1
142 1 1 1.7573e+09 1.75755e+09 1.75857e+09 1.76115e+09 0 1
143 2 1 1.78336e+09 1.78361e+09 1.78463e+09 1.78533e+09 0 0
144 2 1 1.79489e+09 1.79515e+09 1.79617e+09 1.79819e+09 1 0
145 2 0 1.80533e+09 1.8056e+09 1.80662e+09 1.80875e+09 1 1
146 1 1 1.81152e+09 1.81177e+09 1.81279e+09 1.81403e+09 0 1
147 2 1 1.82515e+09 1.8254e+09 1.82642e+09 1.82762e+09 0 0
148 2 1 1.83669e+09 1.83695e+09 1.83797e+09 1.83865e+09 1 0
149 2 1 1.85658e+09 1.85683e+09 1.85785e+09 1.85944e+09 1 0
150 2 1 1.86764e+09 1.8679e+09 1.86892e+09 1.87177e+09 1 0
151 2 1 1.87997e+09 1.88023e+09 1.88125e+09 1.88217e+09 0 0
152 2 1 1.88935e+09 1.88962e+09 1.89064e+09 1.89382e+09 0 0
153 1 0 1.90356e+09 1.90382e+09 1.90484e+09 1.91113e+09 0 0
154 2 1 1.92218e+09 1.92243e+09 1.92345e+09 1.92428e+09 0 0
155 2 0 1.93904e+09 1.9393e+09 1.94032e+09 1.94042e+09 0 1
156 1 0 1.94444e+09 1.94471e+09 1.94573e+09 1.94615e+09 0 0
157 1 1 1.95348e+09 1.95374e+09 1.95476e+09 1.95758e+09 1 1
158 2 1 1.97145e+09 1.97171e+09 1.97273e+09 1.97658e+09 0 0
159 2 1 1.98526e+09 1.98552e+09 1.98654e+09 1.98734e+09 1 0
160 2 1 1.99647e+09 1.99672e+09 1.99774e+09 1.99897e+09 1 0
161 2 0 2.01524e+09 2.01549e+09 2.01651e+09 2.01991e+09 1 1
162 1 1 2.02958e+09 2.02984e+09 2.03086e+09 2.03638e+09 0 1
163 2 0 2.04381e+09 2.04408e+09 2.0451e+09 2.04711e+09 0 1
164 1 1 2.04987e+09 2.05013e+09 2.05115e+09 2.05222e+09 0 1
165 1 1 2.06145e+09 2.06171e+09 2.06273e+09 2.06319e+09 0 1
166 1 1 2.07286e+09 2.07311e+09 2.07413e+09 2.07535e+09 0 1
167 1 1 2.0806e+09 2.08086e+09 2.08188e+09 2.08214e+09 0 1
168 2 1 2.09099e+09 2.09124e+09 2.09227e+09 2.09291e+09 0 0
169 2 1 2.10168e+09 2.10194e+09 2.10296e+09 2.10919e+09 1 0
170 2 1 2.1171e+09 2.11736e+09 2.11838e+09 2.11907e+09 1 0
171 2 1 2.12633e+09 2.12658e+09 2.1276e+09 2.12798e+09 1 0
172 2 1 2.13665e+09 2.13691e+09 2.13793e+09 2.13887e+09 0 0
173 2 0 2.14819e+09 2.14845e+09 2.14947e+09 2.15135e+09 0 1
174 2 1 2.18182e+09 2.18207e+09 2.18309e+09 2.18799e+09 0 0
175 2 1 2.19536e+09 2.19562e+09 2.19664e+09 2.19836e+09 1 0
176 2 0 2.20549e+09 2.20575e+09 2.20677e+09 2.24099e+09 1 1
177 1 1 2.24667e+09 2.24693e+09 2.24795e+09 2.25363e+09 0 1
178 2 0 2.25629e+09 2.25655e+09 2.25757e+09 2.25857e+09 0 1
179 1 1 2.26215e+09 2.26242e+09 2.26344e+09 2.26618e+09 0 1
180 1 0 2.2748e+09 2.27505e+09 2.27607e+09 2.27635e+09 0 0
181 1 1 2.29227e+09 2.29253e+09 2.29355e+09 2.29868e+09 1 1
182 2 1 2.30195e+09 2.3022e+09 2.30322e+09 2.30323e+09 0 0
183 2 1 2.31143e+09 2.31169e+09 2.31271e+09 2.31294e+09 1 0
184 2 1 2.32421e+09 2.32447e+09 2.32549e+09 2.32564e+09 1 0
185 2 0 2.33508e+09 2.33533e+09 2.33635e+09 2.35805e+09 1 1
186 2 1 2.36094e+09 2.36119e+09 2.36221e+09 2.36504e+09 0 0
187 2 1 2.37337e+09 2.37363e+09 2.37465e+09 2.37592e+09 1 0
188 2 0 2.3871e+09 2.38735e+09 2.38837e+09 2.38957e+09 1 1
189 2 0 2.39544e+09 2.39569e+09 2.39671e+09 2.39848e+09 0 1
190 1 0 2.40711e+09 2.40737e+09 2.40839e+09 2.41018e+09 0 0
191 1 0 2.43085e+09 2.4311e+09 2.43212e+09 2.43227e+09 1 0
192 1 1 2.4478e+09 2.44806e+09 2.44908e+09 2.45049e+09 1 1
193 2 1 2.45924e+09 2.45949e+09 2.46051e+09 2.46081e+09 0 0
194 2 1 2.47315e+09 2.47341e+09 2.47443e+09 2.4745e+09 1 0
195 2 1 2.48262e+09 2.48287e+09 2.48389e+09 2.48523e+09 1 0
196 2 1 2.50016e+09 2.50041e+09 2.50143e+09 2.50289e+09 1 0
197 1 1 2.51975e+09 2.52001e+09 2.52103e+09 2.52115e+09 0 1
198 2 1 2.53357e+09 2.53382e+09 2.53484e+09 2.53516e+09 0 0
199 2 1 2.54273e+09 2.54299e+09 2.54402e+09 2.54504e+09 1 0
200 2 1 2.56169e+09 2.56194e+09 2.56296e+09 2.57909e+09 1 0
201 2 0 2.59149e+09 2.59175e+09 2.59277e+09 2.59533e+09 1 1
202 2 0 2.61272e+09 2.61298e+09 2.614e+09 2.61516e+09 0 1
203 1 0 2.62387e+09 2.62414e+09 2.62516e+09 2.62534e+09 0 0
204 1 0 2.63515e+09 2.6354e+09 2.63642e+09 2.63652e+09 1 0
205 1 0 2.64489e+09 2.64515e+09 2.64617e+09 2.64639e+09 1 0
206 1 1 2.67279e+09 2.67305e+09 2.67407e+09 2.67643e+09 1 1
207 2 0 2.70537e+09 2.70562e+09 2.70664e+09 2.70799e+09 0 1
208 2 1 2.71485e+09 2.71511e+09 2.71613e+09 2.71665e+09 0 0
209 2 0 2.72874e+09 2.729e+09 2.73002e+09 2.73138e+09 1 1
210 2 1 2.75532e+09 2.75558e+09 2.7566e+09 2.7575e+09 0 0
211 2 0 2.76789e+09 2.76816e+09 2.76918e+09 2.76947e+09 1 1
212 1 1 2.77285e+09 2.77311e+09 2.77413e+09 2.77422e+09 0 1
213 1 0 2.78321e+09 2.78347e+09 2.78449e+09 2.78477e+09 0 0
214 1 0 2.79287e+09 2.79312e+09 2.79414e+09 2.79447e+09 1 0
215 1 0 2.804e+09 2.80426e+09 2.80528e+09 2.80532e+09 1 0
216 1 0 2.81566e+09 2.81592e+09 2.81694e+09 2.8173e+09 1 0
217 1 0 2.82628e+09 2.82654e+09 2.82756e+09 2.8276e+09 0 0
218 1 1 2.83509e+09 2.83535e+09 2.83637e+09 2.83752e+09 0 1
219 2 0 2.8457e+09 2.84595e+09 2.84697e+09 2.84749e+09 0 1
220 2 0 2.85838e+09 2.85863e+09 2.85965e+09 2.85998e+09 0 1
221 1 1 2.87378e+09 2.87404e+09 2.87506e+09 2.87587e+09 0 1
222 2 0 2.89293e+09 2.89319e+09 2.89421e+09 2.89435e+09 0 1
223 1 0 2.91688e+09 2.91713e+09 2.91815e+09 2.91906e+09 0 0
224 1 0 2.92982e+09 2.93007e+09 2.9311e+09 2.93146e+09 1 0
225 1 0 2.94051e+09 2.94078e+09 2.9418e+09 2.94206e+09 1 0
226 1 1 2.9778e+09 2.97805e+09 2.97907e+09 2.97917e+09 1 1
227 2 1 2.98303e+09 2.98327e+09 2.98429e+09 2.98507e+09 0 0
228 2 0 3.0049e+09 3.00515e+09 3.00617e+09 3.00684e+09 1 1
229 1 1 3.02048e+09 3.02075e+09 3.02177e+09 3.02215e+09 0 1
230 1 0 3.03553e+09 3.03579e+09 3.03681e+09 3.03687e+09 0 0
231 1 0 3.1298e+09 3.13006e+09 3.13108e+09 3.13153e+09 1 0
232 1 0 3.13889e+09 3.13916e+09 3.14018e+09 3.14094e+09 1 0
233 1 0 3.14807e+09 3.14834e+09 3.14936e+09 3.15092e+09 1 0
234 1 0 3.1585e+09 3.15876e+09 3.15978e+09 3.1646e+09 0 0
235 2 0 3.17383e+09 3.17409e+09 3.17512e+09 3.17789e+09 0 1
236 2 0 3.18773e+09 3.18798e+09 3.189e+09 3.19351e+09 0 1
237 1 1 3.20996e+09 3.21023e+09 3.21125e+09 3.213e+09 0 1
238 1 0 3.29892e+09 3.29918e+09 3.3002e+09 3.30044e+09 0 0
239 1 0 3.31872e+09 3.31897e+09 3.31999e+09 3.32051e+09 1 0
240 1 0 3.34055e+09 3.34081e+09 3.34183e+09 3.34199e+09 1 0
241 1 0 3.35214e+09 3.35239e+09 3.35341e+09 3.35481e+09 1 0
242 1 0 3.36271e+09 3.36296e+09 3.36398e+09 3.36514e+09 0 0
243 1 0 3.37918e+09 3.37944e+09 3.38046e+09 3.38352e+09 0 0
244 1 0 3.39521e+09 3.39547e+09 3.39649e+09 3.40007e+09 0 0
245 1 0 3.40763e+09 3.40788e+09 3.4089e+09 3.40905e+09 0 0
246 2 0 3.42025e+09 3.42049e+09 3.42151e+09 3.42316e+09 0 1
247 2 0 3.44466e+09 3.44493e+09 3.44595e+09 3.44642e+09 0 1
248 1 0 3.4773e+09 3.47756e+09 3.47858e+09 3.4795e+09 0 0
249 1 0 3.48719e+09 3.48745e+09 3.48847e+09 3.48848e+09 1 0
250 1 1 3.50112e+09 3.50138e+09 3.5024e+09 3.50251e+09 1 1
251 2 1 3.53715e+09 3.5374e+09 3.53842e+09 3.5386e+09 0 0
252 2 0 3.5484e+09 3.54865e+09 3.54967e+09 3.55042e+09 1 1
253 1 1 3.56717e+09 3.56743e+09 3.56845e+09 3.57112e+09 0 1
254 2 0 3.59282e+09 3.59309e+09 3.59411e+09 3.59453e+09 0 1
255 1 0 3.59758e+09 3.59784e+09 3.59886e+09 3.60073e+09 0 0
256 1 0 3.61443e+09 3.61468e+09 3.6157e+09 3.61615e+09 1 0
257 1 1 3.63343e+09 3.63369e+09 3.63471e+09 3.63485e+09 1 1
258 2 0 3.64656e+09 3.6468e+09 3.64782e+09 3.64784e+09 0 1
259 1 0 3.66162e+09 3.66188e+09 3.6629e+09 3.66322e+09 0 0
260 1 0 3.67438e+09 3.67463e+09 3.67565e+09 3.67638e+09 1 0
261 1 0 3.70288e+09 3.70314e+09 3.70417e+09 3.70419e+09 1 0
262 1 0 3.7223e+09 3.72256e+09 3.72359e+09 3.72398e+09 1 0
263 2 0 3.73246e+09 3.73272e+09 3.73374e+09 3.73499e+09 0 1
264 1 0 3.74007e+09 3.74032e+09 3.74134e+09 3.74264e+09 0 0
265 1 1 3.75863e+09 3.75889e+09 3.75991e+09 3.75998e+09 1 1
266 2 0 3.77087e+09 3.77113e+09 3.77215e+09 3.77417e+09 0 1
267 1 1 3.77766e+09 3.77792e+09 3.77894e+09 3.77911e+09 0 1
268 2 1 3.79609e+09 3.79635e+09 3.79737e+09 3.79784e+09 0 0
269 2 0 3.82137e+09 3.82161e+09 3.82263e+09 3.82385e+09 1 1
270 2 0 3.85103e+09 3.8513e+09 3.85232e+09 3.85461e+09 0 1
271 1 1 3.88069e+09 3.88095e+09 3.88197e+09 3.88198e+09 0 1
272 2 1 3.88627e+09 3.88653e+09 3.88755e+09 3.88838e+09 0 0
273 2 0 3.90821e+09 3.90847e+09 3.90949e+09 3.91228e+09 1 1
274 2 1 3.92806e+09 3.92832e+09 3.92934e+09 3.93246e+09 0 0
275 2 1 3.94329e+09 3.94355e+09 3.94457e+09 3.94459e+09 1 0
276 2 0 3.95173e+09 3.95199e+09 3.95301e+09 3.95368e+09 1 1
277 1 0 3.9574e+09 3.95764e+09 3.95867e+09 3.95884e+09 0 0
278 1 0 3.96608e+09 3.96634e+09 3.96736e+09 3.96817e+09 1 0
279 1 0 3.97654e+09 3.97679e+09 3.97781e+09 3.97843e+09 1 0
280 1 0 3.98575e+09 3.986e+09 3.98702e+09 3.99057e+09 1 0
281 2 1 4.00742e+09 4.00768e+09 4.0087e+09 4.00877e+09 0 0
282 1 1 4.01791e+09 4.01817e+09 4.01919e+09 4.01975e+09 0 1
283 1 0 4.02523e+09 4.02549e+09 4.02651e+09 4.02821e+09 0 0
284 1 0 4.03555e+09 4.0358e+09 4.03682e+09 4.03696e+09 1 0
285 1 0 4.04401e+09 4.04427e+09 4.04529e+09 4.0467e+09 1 0
286 1 0 4.05563e+09 4.05589e+09 4.05691e+09 4.05758e+09 1 0
287 2 1 4.06589e+09 4.06615e+09 4.06717e+09 4.07368e+09 0 0
288 1 0 4.08118e+09 4.08144e+09 4.08246e+09 4.08443e+09 0 0
289 1 0 4.09613e+09 4.09639e+09 4.09741e+09 4.10653e+09 0 0
290 1 1 4.11494e+09 4.1152e+09 4.11622e+09 4.15045e+09 0 1
291 2 1 4.15684e+09 4.15711e+09 4.15813e+09 4.16695e+09 0 0
292 2 0 4.21174e+09 4.212e+09 4.21302e+09 4.21305e+09 1 1
293 2 0 4.21713e+09 4.21738e+09 4.2184e+09 4.21864e+09 0 1
294 1 0 4.22162e+09 4.22188e+09 4.2229e+09 4.22291e+09 0 0
295 1 0 4.2304e+09 4.23066e+09 4.23168e+09 4.24199e+09 1 0
296 1 0 4.24914e+09 4.2494e+09 4.25042e+09 4.25083e+09 1 0
297 1 0 4.25901e+09 4.25927e+09 4.26029e+09 4.26129e+09 1 0
298 2 0 4.2687e+09 4.26895e+09 4.26997e+09 4.27305e+09 0 1
299 1 0 4.28466e+09 4.28493e+09 4.28595e+09 4.2864e+09 0 0
300 1 1 2.27739e+06 2.53628e+06 3.55702e+06 3.58248e+06 1 1
301 2 0 7.45166e+06 7.7062e+06 8.72695e+06 9.57991e+06 0 1
302 2 1 1.23208e+07 1.25719e+07 1.35927e+07 1.67744e+07 0 0
303 2 0 2.68268e+07 2.70706e+07 2.80913e+07 2.9713e+07 1 1
304 2 0 3.25898e+07 3.28506e+07 3.38713e+07 3.64863e+07 0 1
305 1 1 3.9594e+07 3.98508e+07 4.08715e+07 4.4285e+07 0 1
306 1 0 4.72269e+07 4.74894e+07 4.85102e+07 5.0526e+07 0 0
307 1 0 5.79256e+07 5.81786e+07 5.91994e+07 6.28676e+07 1 0
308 1 0 7.66464e+07 7.68992e+07 7.792e+07 8.07286e+07 1 0
309 1 1 8.79493e+07 8.82e+07 8.92207e+07 9.47338e+07 1 1
310 1 0 9.76548e+07 9.79134e+07 9.89342e+07 1.00994e+08 0 0
311 1 1 1.08671e+08 1.08925e+08 1.09945e+08 1.10029e+08 1 1
312 2 0 1.19992e+08 1.2024e+08 1.21261e+08 1.23964e+08 0 1
313 2 0 1.42814e+08 1.43062e+08 1.44083e+08 1.44102e+08 0 1
314 2 0 1.47041e+08 1.47304e+08 1.48325e+08 1.48359e+08 0 1
315 2 1 1.5121e+08 1.51467e+08 1.52488e+08 1.54579e+08 0 0
316 2 0 1.73593e+08 1.73851e+08 1.74872e+08 1.76475e+08 1 1
317 2 0 1.79338e+08 1.79603e+08 1.80624e+08 1.81202e+08 0 1
318 2 1 1.83918e+08 1.84196e+08 1.85217e+08 1.86229e+08 0 0
319 2 0 1.99176e+08 1.99432e+08 2.00452e+08 2.01675e+08 1 1
320 1 1 2.27956e+08 2.28208e+08 2.29228e+08 2.30619e+08 0 1
321 1 1 2.45209e+08 2.45463e+08 2.46484e+08 2.47525e+08 0 1
322 1 0 2.53727e+08 2.53977e+08 2.54998e+08 2.5718e+08 0 0
323 1 0 2.73896e+08 2.74143e+08 2.75164e+08 2.7574e+08 1 0
324 1 0 2.91262e+08 2.91517e+08 2.92538e+08 2.92994e+08 1 0
325 1 0 3.00259e+08 3.00526e+08 3.01546e+08 3.01696e+08 1 0
326 2 1 3.14702e+08 3.1496e+08 3.15981e+08 3.16104e+08 0 0
327 1 0 3.26317e+08 3.26569e+08 3.2759e+08 3.276e+08 0 0
328 2 1 3.34887e+08 3.35154e+08 3.36175e+08 3.38066e+08 0 0
329 2 1 3.452e+08 3.4545e+08 3.46471e+08 3.47008e+08 0 0
330 1 0 3.58867e+08 3.59133e+08 3.60154e+08 3.6085e+08 0 0
331 1 0 3.68185e+08 3.68439e+08 3.69459e+08 3.70293e+08 0 0
332 2 0 3.81686e+08 3.81942e+08 3.82963e+08 3.84738e+08 0 1
333 2 1 3.95893e+08 3.96142e+08 3.97163e+08 3.97329e+08 0 0
334 2 0 4.08211e+08 4.0847e+08 4.09491e+08 4.11104e+08 1 1
335 2 1 4.15832e+08 4.16094e+08 4.17114e+08 4.18337e+08 0 0
336 2 1 4.29766e+08 4.30012e+08 4.31033e+08 4.38859e+08 1 0
337 2 1 4.46515e+08 4.46775e+08 4.47796e+08 4.56157e+08 1 0
338 2 0 4.63643e+08 4.63896e+08 4.64917e+08 4.64925e+08 1 1
339 2 0 4.67858e+08 4.68106e+08 4.69127e+08 4.78684e+08 0 1
340 1 1 4.81672e+08 4.81919e+08 4.8294e+08 4.87627e+08 0 1
341 2 1 5.06794e+08 5.07048e+08 5.08068e+08 5.09762e+08 0 0
342 2 0 5.17905e+08 5.18159e+08 5.1918e+08 5.19456e+08 1 1
343 1 0 5.22426e+08 5.22681e+08 5.23702e+08 5.23885e+08 0 0
344 1 1 5.32576e+08 5.32836e+08 5.33857e+08 5.3574e+08 1 1
345 1 0 5.38785e+08 5.39037e+08 5.40058e+08 5.40165e+08 0 0
346 1 1 5.48303e+08 5.48564e+08 5.49585e+08 5.496e+08 1 1
347 2 0 5.52124e+08 5.52384e+08 5.53404e+08 5.5381e+08 0 1
348 1 0 5.57245e+08 5.57505e+08 5.58525e+08 5.59266e+08 0 0
349 1 0 5.67671e+08 5.67924e+08 5.68944e+08 5.69608e+08 1 0
350 1 0 5.78423e+08 5.78675e+08 5.79695e+08 5.8265e+08 1 0
351 1 0 5.89794e+08 5.90058e+08 5.91078e+08 5.92323e+08 1 0
352 1 0 5.99638e+08 5.9989e+08 6.00911e+08 6.03361e+08 0 0
353 1 0 6.1137e+08 6.11618e+08 6.12639e+08 6.12899e+08 0 0
354 2 0 6.20988e+08 6.21241e+08 6.22262e+08 6.231e+08 0 1
355 2 1 6.6762e+08 6.67874e+08 6.68895e+08 6.69056e+08 0 0
356 2 1 6.9727e+08 6.97525e+08 6.98545e+08 6.99417e+08 1 0
357 2 0 7.09665e+08 7.09924e+08 7.10945e+08 7.13678e+08 1 1
358 1 0 7.1651e+08 7.16767e+08 7.17788e+08 7.18042e+08 0 0
359 1 0 7.30277e+08 7.30535e+08 7.31555e+08 7.32472e+08 1 0
360 1 1 7.39543e+08 7.39808e+08 7.40829e+08 7.42455e+08 1 1
361 2 0 7.52969e+08 7.5322e+08 7.5424e+08 7.55602e+08 0 1
362 1 0 7.68549e+08 7.68802e+08 7.69822e+08 7.72922e+08 0 0
363 1 1 7.82495e+08 7.82752e+08 7.83773e+08 7.84016e+08 1 1
364 2 1 7.911e+08 7.91358e+08 7.92379e+08 7.952e+08 0 0
365 2 0 8.05914e+08 8.06167e+08 8.07188e+08 8.07832e+08 1 1
366 2 1 8.10823e+08 8.11076e+08 8.12097e+08 8.13501e+08 0 0
367 2 0 8.24e+08 8.24267e+08 8.25288e+08 8.31477e+08 1 1
368 1 0 8.34264e+08 8.34511e+08 8.35532e+08 8.3673e+08 0 0
369 1 1 8.44166e+08 8.44421e+08 8.45442e+08 8.469e+08 1 1
370 2 1 8.49935e+08 8.50184e+08 8.51205e+08 8.51271e+08 0 0
371 2 1 8.62052e+08 8.62308e+08 8.63328e+08 8.64882e+08 1 0
372 2 1 8.72009e+08 8.72266e+08 8.73286e+08 8.7626e+08 1 0
373 2 1 8.86029e+08 8.86283e+08 8.87303e+08 8.88865e+08 1 0
374 1 0 8.97748e+08 8.98013e+08 8.99034e+08 8.99558e+08 0 0
375 1 0 9.06831e+08 9.07096e+08 9.08116e+08 9.10982e+08 0 0
376 1 1 9.18524e+08 9.18783e+08 9.19804e+08 9.26178e+08 0 1
377 1 0 9.30515e+08 9.30771e+08 9.31792e+08 9.31818e+08 0 0
378 1 0 9.42666e+08 9.42918e+08 9.43939e+08 9.44144e+08 1 0
379 1 0 9.5233e+08 9.52591e+08 9.53611e+08 9.55966e+08 1 0
380 1 0 9.63126e+08 9.63388e+08 9.64409e+08 9.64466e+08 1 0
381 1 0 9.74573e+08 9.74839e+08 9.7586e+08 9.77039e+08 0 0
382 2 0 9.85724e+08 9.85986e+08 9.87007e+08 9.98916e+08 0 1
383 2 0 1.00927e+09 1.00953e+09 1.01055e+09 1.01373e+09 0 1
384 1 0 1.01667e+09 1.01693e+09 1.01795e+09 1.02086e+09 0 0
385 1 1 1.0344e+09 1.03466e+09 1.03568e+09 1.04509e+09 1 1
386 2 1 1.05212e+09 1.05238e+09 1.0534e+09 1.05348e+09 0 0
387 2 0 1.06111e+09 1.06137e+09 1.06239e+09 1.06335e+09 1 1
388 2 0 1.06952e+09 1.06978e+09 1.0708e+09 1.08171e+09 0 1
389 2 1 1.08464e+09 1.0849e+09 1.08592e+09 1.10295e+09 0 0
390 2 1 1.11e+09 1.11025e+09 1.11127e+09 1.11207e+09 1 0
391 2 0 1.1204e+09 1.12066e+09 1.12168e+09 1.13196e+09 1 1
392 1 1 1.18809e+09 1.18835e+09 1.18937e+09 1.18972e+09 0 1
393 2 1 1.20275e+09 1.203e+09 1.20402e+09 1.20417e+09 0 0
394 2 0 1.22915e+09 1.2294e+09 1.23042e+09 1.23102e+09 1 1
395 1 0 1.24147e+09 1.24174e+09 1.24276e+09 1.24416e+09 0 0
396 1 0 1.2599e+09 1.26016e+09 1.26118e+09 1.26146e+09 1 0
397 1 1 1.26986e+09 1.27011e+09 1.27113e+09 1.27337e+09 1 1
398 1 0 1.28824e+09 1.2885e+09 1.28952e+09 1.2929e+09 0 0
399 1 1 1.30212e+09 1.30238e+09 1.3034e+09 1.30348e+09 1 1
400 1 0 1.30607e+09 1.30633e+09 1.30735e+09 1.31195e+09 0 0
401 1 1 1.31904e+09 1.3193e+09 1.32032e+09 1.32038e+09 1 1
402 2 0 1.32379e+09 1.32404e+09 1.32506e+09 1.32782e+09 0 1
403 1 1 1.3306e+09 1.33084e+09 1.33186e+09 1.33297e+09 0 1
404 1 0 1.33721e+09 1.33747e+09 1.33849e+09 1.34026e+09 0 0
405 1 0 1.35019e+09 1.35045e+09 1.35147e+09 1.35285e+09 1 0
406 1 0 1.36703e+09 1.36729e+09 1.36831e+09 1.37004e+09 1 0
407 1 1 1.37755e+09 1.37781e+09 1.37883e+09 1.38899e+09 1 1
408 2 0 1.39588e+09 1.39613e+09 1.39715e+09 1.40927e+09 0 1
409 1 0 1.4157e+09 1.41595e+09 1.41697e+09 1.41759e+09 0 0
410 1 0 1.42484e+09 1.4251e+09 1.42612e+09 1.43438e+09 1 0
411 1 1 1.44254e+09 1.44279e+09 1.44381e+09 1.45117e+09 1 1
412 1 1 1.45517e+09 1.45543e+09 1.45645e+09 1.46174e+09 0 1
413 2 0 1.46454e+09 1.4648e+09 1.46582e+09 1.46768e+09 0 1
414 1 0 1.47263e+09 1.4729e+09 1.47392e+09 1.4753e+09 0 0
415 1 1 1.48319e+09 1.48343e+09 1.48446e+09 1.49243e+09 1 1
416 2 0 1.50936e+09 1.50962e+09 1.51065e+09 1.51393e+09 0 1
417 1 0 1.52718e+09 1.52744e+09 1.52846e+09 1.52906e+09 0 0
418 1 0 1.53884e+09 1.5391e+09 1.54012e+09 1.54662e+09 1 0
419 1 0 1.55455e+09 1.5548e+09 1.55582e+09 1.55587e+09 1 0
420 1 0 1.56304e+09 1.56329e+09 1.56431e+09 1.56619e+09 1 0
421 1 0 1.57514e+09 1.5754e+09 1.57642e+09 1.57787e+09 0 0
422 1 0 1.58768e+09 1.58793e+09 1.58895e+09 1.61247e+09 0 0
423 2 0 1.61977e+09 1.62002e+09 1.62105e+09 1.62618e+09 0 1
424 1 1 1.64014e+09 1.6404e+09 1.64142e+09 1.64166e+09 0 1
425 2 0 1.64426e+09 1.64453e+09 1.64555e+09 1.6481e+09 0 1
426 2 0 1.6507e+09 1.65095e+09 1.65197e+09 1.65364e+09 0 1
427 2 0 1.67035e+09 1.67061e+09 1.67163e+09 1.6717e+09 0 1
428 1 1 1.67446e+09 1.67471e+09 1.67573e+09 1.67646e+09 0 1
429 1 1 1.67944e+09 1.67969e+09 1.68071e+09 1.6812e+09 0 1
430 1 0 1.68377e+09 1.68403e+09 1.68505e+09 1.68661e+09 0 0
431 1 0 1.69369e+09 1.69396e+09 1.69498e+09 1.69703e+09 1 0
432 1 0 1.70456e+09 1.70482e+09 1.70584e+09 1.70613e+09 1 0
433 1 1 1.71337e+09 1.71362e+09 1.71464e+09 1.7173e+09 1 1
434 2 1 1.71993e+09 1.72018e+09 1.7212e+09 1.72156e+09 0 0
435 2 0 1.73416e+09 1.73442e+09 1.73544e+09 1.73613e+09 1 1
436 2 0 1.83117e+09 1.83143e+09 1.83245e+09 1.83352e+09 0 1
437 1 0 1.84322e+09 1.84347e+09 1.84449e+09 1.84619e+09 0 0
438 1 0 1.85663e+09 1.85689e+09 1.85791e+09 1.85929e+09 1 0
439 1 1 1.86827e+09 1.86852e+09 1.86954e+09 1.87102e+09 1 1
440 1 1 1.87803e+09 1.87829e+09 1.87931e+09 1.87942e+09 0 1
441 2 0 1.88974e+09 1.89e+09 1.89102e+09 1.89217e+09 0 1
442 1 0 1.9067e+09 1.90695e+09 1.90797e+09 1.90798e+09 0 0
443 1 0 1.93584e+09 1.93609e+09 1.93711e+09 1.93766e+09 1 0
444 1 0 1.94674e+09 1.94698e+09 1.94801e+09 1.95465e+09 1 0
445 1 1 1.96309e+09 1.96334e+09 1.96436e+09 1.96529e+09 1 1
446 1 1 1.96813e+09 1.96839e+09 1.96941e+09 1.97583e+09 0 1
447 2 1 1.97912e+09 1.97937e+09 1.98039e+09 1.98751e+09 0 0
448 2 1 1.9954e+09 1.99565e+09 1.99667e+09 1.99998e+09 1 0
449 2 0 2.00726e+09 2.00752e+09 2.00854e+09 2.02295e+09 1 1
450 1 1 2.02643e+09 2.02669e+09 2.02771e+09 2.02851e+09 0 1
451 1 0 2.03122e+09 2.03147e+09 2.03249e+09 2.03314e+09 0 0
452 1 1 2.04034e+09 2.04059e+09 2.04161e+09 2.04163e+09 1 1
453 1 1 2.0499e+09 2.05016e+09 2.05118e+09 2.05244e+09 0 1
454 1 1 2.05514e+09 2.05539e+09 2.05641e+09 2.05642e+09 0 1
455 1 0 2.0595e+09 2.05975e+09 2.06077e+09 2.07756e+09 0 0
456 1 0 2.08465e+09 2.0849e+09 2.08592e+09 2.10122e+09 1 0
457 1 1 2.10871e+09 2.10897e+09 2.10999e+09 2.11228e+09 1 1
458 1 0 2.11784e+09 2.11809e+09 2.11911e+09 2.12007e+09 0 0
459 1 0 2.13679e+09 2.13706e+09 2.13808e+09 2.14169e+09 1 0
460 1 0 2.14908e+09 2.14933e+09 2.15035e+09 2.15417e+09 1 0
461 1 0 2.17714e+09 2.17739e+09 2.17841e+09 2.20072e+09 1 0
462 2 0 2.21255e+09 2.2128e+09 2.21382e+09 2.21387e+09 0 1
463 1 0 2.22301e+09 2.22327e+09 2.22429e+09 2.22626e+09 0 0
464 1 0 2.24547e+09 2.24572e+09 2.24674e+09 2.25471e+09 1 0
465 1 0 2.26258e+09 2.26283e+09 2.26385e+09 2.26575e+09 1 0
466 1 0 2.27293e+09 2.27318e+09 2.2742e+09 2.31941e+09 1 0
467 2 0 2.32668e+09 2.32693e+09 2.32795e+09 2.3282e+09 0 1
468 2 0 2.33189e+09 2.33215e+09 2.33317e+09 2.33342e+09 0 1
469 1 0 2.33677e+09 2.33704e+09 2.33806e+09 2.34236e+09 0 0
470 1 0 2.34953e+09 2.34979e+09 2.35082e+09 2.35332e+09 1 0
471 1 1 2.36048e+09 2.36074e+09 2.36176e+09 2.36624e+09 1 1
472 2 1 2.37205e+09 2.37231e+09 2.37333e+09 2.37442e+09 0 0
473 2 0 2.38326e+09 2.38352e+09 2.38454e+09 2.38824e+09 1 1
474 2 0 2.39112e+09 2.39138e+09 2.3924e+09 2.39392e+09 0 1
475 1 0 2.42157e+09 2.42182e+09 2.42284e+09 2.42315e+09 0 0
476 1 1 2.43401e+09 2.43426e+09 2.43528e+09 2.43778e+09 1 1
477 2 0 2.44076e+09 2.44101e+09 2.44203e+09 2.44424e+09 0 1
478 1 0 2.44855e+09 2.44881e+09 2.44983e+09 2.45906e+09 0 0
479 1 0 2.46631e+09 2.46656e+09 2.46759e+09 2.47651e+09 1 0
480 1 1 2.48396e+09 2.48421e+09 2.48523e+09 2.48813e+09 1 1
481 2 1 2.4909e+09 2.49115e+09 2.49217e+09 2.82559e+09 0 0
