trial trialType response stillTime stimOnset stimOffset respTime correctionTrial correct
001 1 0 6.79426e+06 7.10141e+06 8.12215e+06 8.79406e+06 0 0
002 1 1 1.68059e+07 1.70798e+07 1.81005e+07 1.82761e+07 1 1
003 2 0 2.09582e+07 2.12374e+07 2.22581e+07 2.27329e+07 0 1
004 2 0 2.78497e+07 2.81054e+07 2.91261e+07 3.2052e+07 0 1
005 1 1 6.20718e+07 6.23178e+07 6.33385e+07 6.3419e+07 0 1
006 2 1 6.62456e+07 6.65078e+07 6.75286e+07 6.7742e+07 0 0
007 2 1 7.6201e+07 7.64552e+07 7.74759e+07 8.1067e+07 1 0
008 2 0 8.89344e+07 8.91971e+07 9.02179e+07 9.79125e+07 1 1
009 1 0 1.07087e+08 1.07335e+08 1.08356e+08 1.08382e+08 0 0
010 1 0 1.16129e+08 1.16388e+08 1.17409e+08 1.18498e+08 1 0
011 1 0 1.27645e+08 1.27899e+08 1.2892e+08 1.36157e+08 1 0
012 1 1 1.43348e+08 1.43599e+08 1.4462e+08 1.49267e+08 1 1
013 1 1 1.54107e+08 1.54359e+08 1.5538e+08 1.58564e+08 0 1
014 1 0 1.61497e+08 1.6175e+08 1.62771e+08 1.6637e+08 0 0
015 1 1 1.74173e+08 1.74437e+08 1.75458e+08 1.76591e+08 1 1
016 1 0 1.79466e+08 1.79733e+08 1.80753e+08 1.81683e+08 0 0
017 1 1 1.89033e+08 1.89288e+08 1.90309e+08 1.90365e+08 1 1
018 2 1 1.93133e+08 1.93397e+08 1.94417e+08 1.9607e+08 0 0
019 2 0 2.06558e+08 2.06814e+08 2.07835e+08 2.08847e+08 1 1
020 2 0 2.11518e+08 2.11769e+08 2.1279e+08 2.13854e+08 0 1
021 2 1 2.18944e+08 2.19196e+08 2.20217e+08 2.22603e+08 0 0
022 2 0 2.31121e+08 2.31381e+08 2.32402e+08 2.33376e+08 1 1
023 2 0 2.38065e+08 2.38322e+08 2.39343e+08 2.41657e+08 0 1
024 1 0 2.44879e+08 2.45141e+08 2.46162e+08 2.47516e+08 0 0
025 1 0 2.54621e+08 2.54875e+08 2.55896e+08 2.58331e+08 1 0
026 1 1 2.71438e+08 2.71692e+08 2.72712e+08 2.7672e+08 1 1
027 1 1 2.81573e+08 2.8183e+08 2.82851e+08 2.84196e+08 0 1
028 2 0 2.89404e+08 2.89662e+08 2.90683e+08 2.91162e+08 0 1
029 2 0 2.97309e+08 2.97575e+08 2.98596e+08 2.99035e+08 0 1
030 1 1 3.15762e+08 3.16017e+08 3.17038e+08 3.1817e+08 0 1
031 2 0 3.20807e+08 3.21054e+08 3.22075e+08 3.2613e+08 0 1
032 2 1 3.3162e+08 3.31882e+08 3.32902e+08 3.37318e+08 0 0
033 2 1 3.4436e+08 3.44628e+08 3.45649e+08 3.48151e+08 1 0
034 2 1 3.55574e+08 3.55824e+08 3.56845e+08 3.62469e+08 1 0
035 2 0 3.70073e+08 3.70338e+08 3.71359e+08 3.71565e+08 1 1
036 2 0 3.74283e+08 3.74546e+08 3.75567e+08 3.91302e+08 0 1
037 2 0 3.9426e+08 3.94529e+08 3.9555e+08 3.96026e+08 0 1
038 2 1 3.98746e+08 3.99011e+08 4.00032e+08 4.02901e+08 0 0
039 2 1 4.12765e+08 4.13018e+08 4.14038e+08 4.14047e+08 1 0
040 2 1 4.21395e+08 4.21655e+08 4.22676e+08 4.23733e+08 1 0
041 2 0 4.3471e+08 4.34972e+08 4.35993e+08 4.40154e+08 1 1
042 2 0 4.42789e+08 4.4304e+08 4.44061e+08 4.48666e+08 0 1
043 1 1 4.51624e+08 4.51908e+08 4.52928e+08 4.54758e+08 0 1
044 1 0 4.57666e+08 4.57924e+08 4.58945e+08 4.62855e+08 0 0
045 1 1 4.74283e+08 4.74539e+08 4.7556e+08 4.79597e+08 1 1
046 2 0 4.83509e+08 4.83764e+08 4.84785e+08 4.89834e+08 0 1
047 2 0 4.95946e+08 4.96212e+08 4.97233e+08 4.97527e+08 0 1
048 1 1 5.00204e+08 5.0045e+08 5.01471e+08 5.01988e+08 0 1
049 2 1 5.09272e+08 5.09534e+08 5.10555e+08 5.13984e+08 0 0
050 2 0 5.22792e+08 5.23043e+08 5.24064e+08 5.24451e+08 1 1
051 2 0 5.29654e+08 5.29905e+08 5.30926e+08 5.32289e+08 0 1
052 2 0 5.36533e+08 5.36788e+08 5.37809e+08 5.37878e+08 0 1
053 1 0 5.43008e+08 5.43271e+08 5.44292e+08 5.44659e+08 0 0
054 1 1 5.52142e+08 5.52408e+08 5.53429e+08 5.54021e+08 1 1
055 2 1 5.57365e+08 5.57631e+08 5.58651e+08 5.59536e+08 0 0
056 2 1 5.67065e+08 5.67326e+08 5.68346e+08 5.69048e+08 1 0
057 2 1 5.79457e+08 5.79714e+08 5.80734e+08 5.83621e+08 1 0
058 2 1 5.95729e+08 5.95984e+08 5.97005e+08 5.97278e+08 1 0
059 2 1 6.12393e+08 6.12649e+08 6.1367e+08 6.1443e+08 0 0
060 1 0 6.25602e+08 6.25856e+08 6.26876e+08 6.26903e+08 0 0
061 1 1 6.53582e+08 6.53839e+08 6.54859e+08 6.55032e+08 0 1
062 2 1 6.61127e+08 6.61387e+08 6.62407e+08 6.64307e+08 0 0
063 2 0 6.73465e+08 6.73719e+08 6.74739e+08 6.75711e+08 1 1
064 1 1 6.78309e+08 6.7857e+08 6.79591e+08 6.82232e+08 0 1
065 1 1 6.85103e+08 6.85361e+08 6.86382e+08 6.86949e+08 0 1
066 2 1 6.89868e+08 6.90132e+08 6.91152e+08 6.98255e+08 0 0
067 2 1 7.05778e+08 7.0603e+08 7.07051e+08 7.0862e+08 1 0
068 2 0 7.17767e+08 7.18031e+08 7.19052e+08 7.21962e+08 1 1
069 1 0 7.24774e+08 7.25025e+08 7.26046e+08 7.30729e+08 0 0
070 1 0 7.4024e+08 7.40507e+08 7.41527e+08 7.48508e+08 1 0
071 1 0 7.56603e+08 7.56864e+08 7.57885e+08 7.6247e+08 1 0
072 1 0 7.71009e+08 7.71275e+08 7.72296e+08 7.75976e+08 1 0
073 1 0 7.83194e+08 7.83466e+08 7.84487e+08 7.84752e+08 0 0
074 1 0 7.91847e+08 7.92114e+08 7.93134e+08 7.93652e+08 0 0
075 1 1 8.01116e+08 8.01376e+08 8.02397e+08 8.10349e+08 0 1
076 2 1 8.13239e+08 8.13497e+08 8.14518e+08 8.16358e+08 0 0
077 2 0 8.23467e+08 8.23733e+08 8.24754e+08 8.30656e+08 1 1
078 2 1 8.3326e+08 8.3352e+08 8.34541e+08 8.37772e+08 0 0
079 2 1 8.45224e+08 8.45479e+08 8.465e+08 8.46961e+08 1 0
080 2 0 8.551e+08 8.55356e+08 8.56376e+08 8.60537e+08 1 1
081 1 0 8.63231e+08 8.63476e+08 8.64496e+08 8.72989e+08 0 0
082 1 1 8.81179e+08 8.81436e+08 8.82457e+08 8.82766e+08 1 1
083 2 1 8.90633e+08 8.90896e+08 8.91917e+08 8.9466e+08 0 0
084 2 1 9.02989e+08 9.03248e+08 9.04269e+08 9.0428e+08 1 0
085 2 0 9.11323e+08 9.11583e+08 9.12604e+08 9.15847e+08 1 1
086 1 1 9.2053e+08 9.20796e+08 9.21817e+08 9.2362e+08 0 1
087 2 0 9.28513e+08 9.28776e+08 9.29796e+08 9.30183e+08 0 1
088 1 1 9.40686e+08 9.40937e+08 9.41958e+08 9.42108e+08 0 1
089 1 1 9.45513e+08 9.45769e+08 9.46789e+08 9.46813e+08 0 1
090 1 1 9.66117e+08 9.6638e+08 9.674e+08 9.71273e+08 0 1
091 1 1 9.75542e+08 9.75804e+08 9.76825e+08 9.78692e+08 0 1
092 1 0 9.81396e+08 9.81656e+08 9.82677e+08 9.84144e+08 0 0
093 1 0 9.92326e+08 9.92595e+08 9.93616e+08 9.93841e+08 1 0
094 1 0 1.00488e+09 1.00514e+09 1.00616e+09 1.00794e+09 1 0
095 1 1 1.0154e+09 1.01566e+09 1.01668e+09 1.01672e+09 1 1
096 2 1 1.01925e+09 1.01952e+09 1.02054e+09 1.02081e+09 0 0
097 2 0 1.02805e+09 1.02832e+09 1.02934e+09 1.03064e+09 1 1
098 2 0 1.04271e+09 1.04296e+09 1.04398e+09 1.0456e+09 0 1
099 1 1 1.05721e+09 1.05748e+09 1.0585e+09 1.06023e+09 0 1
100 1 0 1.06598e+09 1.06624e+09 1.06726e+09 1.07246e+09 0 0
101 1 0 1.08303e+09 1.08329e+09 1.08431e+09 1.08742e+09 1 0
102 1 1 1.09495e+09 1.0952e+09 1.09623e+09 1.10111e+09 1 1
103 1 0 1.10399e+09 1.10425e+09 1.10528e+09 1.10543e+09 0 0
104 1 0 1.11278e+09 1.11305e+09 1.11407e+09 1.1155e+09 1 0
105 1 0 1.12267e+09 1.12293e+09 1.12395e+09 1.12755e+09 1 0
106 1 1 1.13494e+09 1.13519e+09 1.13621e+09 1.13639e+09 1 1
107 1 1 1.1439e+09 1.14416e+09 1.14518e+09 1.14733e+09 0 1
108 1 0 1.1502e+09 1.15045e+09 1.15147e+09 1.15162e+09 0 0
109 1 1 1.15896e+09 1.1592e+09 1.16022e+09 1.1657e+09 1 1
110 1 1 1.16877e+09 1.16904e+09 1.17006e+09 1.17024e+09 0 1
111 2 1 1.17632e+09 1.17657e+09 1.17759e+09 1.17867e+09 0 0
112 2 1 1.191e+09 1.19126e+09 1.19228e+09 1.19607e+09 1 0
113 2 1 1.2059e+09 1.20617e+09 1.20719e+09 1.20836e+09 1 0
114 2 0 1.21556e+09 1.21583e+09 1.21685e+09 1.2229e+09 1 1
115 2 1 1.22832e+09 1.22857e+09 1.22959e+09 1.22965e+09 0 0
116 2 1 1.24519e+09 1.24545e+09 1.24647e+09 1.24684e+09 1 0
117 2 0 1.25419e+09 1.25444e+09 1.25547e+09 1.25576e+09 1 1
118 2 1 1.2652e+09 1.26545e+09 1.26647e+09 1.26656e+09 0 0
119 2 0 1.29566e+09 1.29591e+09 1.29693e+09 1.29838e+09 1 1
120 1 0 1.30137e+09 1.30162e+09 1.30264e+09 1.30318e+09 0 0
121 1 0 1.31048e+09 1.31074e+09 1.31176e+09 1.31193e+09 1 0
122 1 0 1.32021e+09 1.32047e+09 1.32149e+09 1.32248e+09 1 0
123 1 0 1.32961e+09 1.32987e+09 1.33089e+09 1.3426e+09 1 0
124 1 0 1.35262e+09 1.35288e+09 1.3539e+09 1.35551e+09 0 0
125 2 1 1.36462e+09 1.36488e+09 1.3659e+09 1.3665e+09 0 0
126 1 1 1.37641e+09 1.37666e+09 1.37768e+09 1.38351e+09 0 1
127 2 0 1.39031e+09 1.39057e+09 1.39159e+09 1.39162e+09 0 1
128 1 0 1.39414e+09 1.3944e+09 1.39542e+09 1.396e+09 0 0
129 1 1 1.40927e+09 1.40952e+09 1.41054e+09 1.4118e+09 1 1
130 1 0 1.42133e+09 1.42158e+09 1.4226e+09 1.4229e+09 0 0
131 1 0 1.443e+09 1.44326e+09 1.44428e+09 1.4453e+09 1 0
132 1 1 1.45271e+09 1.45297e+09 1.45399e+09 1.4554e+09 1 1
133 1 1 1.45796e+09 1.45821e+09 1.45924e+09 1.45951e+09 0 1
134 2 1 1.46235e+09 1.46262e+09 1.46364e+09 1.46499e+09 0 0
135 2 0 1.47424e+09 1.47449e+09 1.47551e+09 1.47726e+09 1 1
136 2 1 1.4851e+09 1.48535e+09 1.48637e+09 1.48693e+09 0 0
137 2 1 1.50153e+09 1.50179e+09 1.50281e+09 1.50495e+09 1 0
138 2 1 1.51936e+09 1.51963e+09 1.52065e+09 1.53063e+09 1 0
139 2 1 1.5382e+09 1.53846e+09 1.53948e+09 1.5453e+09 1 0
140 2 0 1.55564e+09 1.55589e+09 1.55691e+09 1.56244e+09 0 1
141 1 1 1.57087e+09 1.57113e+09 1.57215e+09 1.5741e+09 0 1
142 1 1 1.58302e+09 1.58328e+09 1.5843e+09 1.58432e+09 0 1
143 2 0 1.58963e+09 1.58989e+09 1.59091e+09 1.59096e+09 0 1
144 1 1 1.59568e+09 1.59593e+09 1.59695e+09 1.59835e+09 0 1
145 1 0 1.60181e+09 1.60208e+09 1.6031e+09 1.60312e+09 0 0
146 1 0 1.62161e+09 1.62186e+09 1.62288e+09 1.62326e+09 1 0
147 1 1 1.63044e+09 1.63074e+09 1.63176e+09 1.63286e+09 1 1
148 1 1 1.66049e+09 1.66075e+09 1.66177e+09 1.6619e+09 0 1
149 2 0 1.66995e+09 1.67022e+09 1.67124e+09 1.67212e+09 0 1
150 1 1 1.68267e+09 1.68293e+09 1.68395e+09 1.68428e+09 0 1
151 1 0 1.70386e+09 1.7041e+09 1.70512e+09 1.70514e+09 0 0
152 1 1 1.71511e+09 1.71537e+09 1.71639e+09 1.71703e+09 1 1
153 2 0 1.74256e+09 1.74282e+09 1.74384e+09 1.74573e+09 0 1
154 2 1 1.74853e+09 1.74879e+09 1.74981e+09 1.74999e+09 0 0
155 2 1 1.76432e+09 1.76457e+09 1.76559e+09 1.76706e+09 1 0
156 2 0 1.78772e+09 1.78798e+09 1.789e+09 1.78908e+09 1 1
157 2 0 1.79187e+09 1.79212e+09 1.79314e+09 1.7939e+09 0 1
158 2 0 1.79665e+09 1.7969e+09 1.79792e+09 1.79795e+09 0 1
159 2 1 1.82116e+09 1.82141e+09 1.82243e+09 1.82419e+09 0 0
160 2 1 1.83312e+09 1.83338e+09 1.8344e+09 1.83466e+09 1 0
161 2 0 1.84276e+09 1.84301e+09 1.84403e+09 1.84422e+09 1 1
162 2 0 1.85246e+09 1.85272e+09 1.85374e+09 1.85445e+09 0 1
163 2 0 1.86726e+09 1.86753e+09 1.86855e+09 1.86965e+09 0 1
164 1 1 1.87361e+09 1.87388e+09 1.8749e+09 1.8762e+09 0 1
165 1 1 1.89003e+09 1.89031e+09 1.89133e+09 1.89142e+09 0 1
166 1 0 1.90474e+09 1.905e+09 1.90602e+09 1.90614e+09 0 0
167 1 1 1.91644e+09 1.91671e+09 1.91773e+09 1.91775e+09 1 1
168 2 0 1.93227e+09 1.93253e+09 1.93355e+09 1.93408e+09 0 1
169 2 1 1.94611e+09 1.94636e+09 1.94738e+09 1.94781e+09 0 0
170 2 0 1.95874e+09 1.959e+09 1.96002e+09 1.9605e+09 1 1
171 2 1 1.96609e+09 1.96636e+09 1.96738e+09 1.96759e+09 0 0
172 2 0 1.98435e+09 1.9846e+09 1.98562e+09 1.98613e+09 1 1
173 2 1 2.00073e+09 2.00098e+09 2.00201e+09 2.00203e+09 0 0
174 2 1 2.00985e+09 2.0101e+09 2.01112e+09 2.01139e+09 1 0
175 2 0 2.02138e+09 2.02163e+09 2.02265e+09 2.02365e+09 1 1
176 1 1 2.02847e+09 2.02872e+09 2.02974e+09 2.02975e+09 0 1
177 1 1 2.03645e+09 2.03671e+09 2.03773e+09 2.03904e+09 0 1
178 1 0 2.05405e+09 2.05432e+09 2.05534e+09 2.05536e+09 0 0
179 1 0 2.06738e+09 2.06763e+09 2.06865e+09 2.06906e+09 1 0
180 1 1 2.08004e+09 2.0803e+09 2.08132e+09 2.08321e+09 1 1
181 2 0 2.09423e+09 2.09449e+09 2.09551e+09 2.09597e+09 0 1
182 1 1 2.09868e+09 2.09894e+09 2.09996e+09 2.10003e+09 0 1
183 2 1 2.11594e+09 2.11619e+09 2.11722e+09 2.11787e+09 0 0
184 2 1 2.13143e+09 2.13168e+09 2.1327e+09 2.13326e+09 1 0
185 2 1 2.14282e+09 2.14307e+09 2.14409e+09 2.14412e+09 1 0
186 2 1 2.15381e+09 2.15407e+09 2.15509e+09 2.15598e+09 1 0
187 2 0 2.17583e+09 2.17609e+09 2.17711e+09 2.17813e+09 0 1
188 1 0 2.18812e+09 2.18838e+09 2.1894e+09 2.18941e+09 0 0
189 1 0 2.19819e+09 2.19844e+09 2.19946e+09 2.19999e+09 1 0
190 1 0 2.21353e+09 2.21378e+09 2.2148e+09 2.21623e+09 1 0
191 1 0 2.22707e+09 2.22731e+09 2.22833e+09 2.22895e+09 1 0
192 1 0 2.23955e+09 2.2398e+09 2.24082e+09 2.24147e+09 0 0
193 2 0 2.24999e+09 2.25025e+09 2.25127e+09 2.2514e+09 0 1
194 1 0 2.25772e+09 2.25797e+09 2.259e+09 2.26138e+09 0 0
195 1 1 2.27501e+09 2.27528e+09 2.2763e+09 2.27643e+09 1 1
196 1 0 2.28194e+09 2.2822e+09 2.28322e+09 2.28344e+09 0 0
197 1 1 2.29665e+09 2.2969e+09 2.29792e+09 2.29794e+09 1 1
198 1 1 2.30259e+09 2.30285e+09 2.30387e+09 2.30522e+09 0 1
199 2 0 2.31536e+09 2.31562e+09 2.31664e+09 2.31888e+09 0 1
200 2 0 2.32438e+09 2.32464e+09 2.32566e+09 2.32572e+09 0 1
201 2 1 2.33271e+09 2.33297e+09 2.334e+09 2.33412e+09 0 0
202 2 0 2.34371e+09 2.34396e+09 2.34498e+09 2.34534e+09 1 1
203 2 1 2.35502e+09 2.35529e+09 2.35631e+09 2.35813e+09 0 0
204 2 1 2.37062e+09 2.37088e+09 2.3719e+09 2.37195e+09 1 0
205 2 0 2.37939e+09 2.37965e+09 2.38067e+09 2.381e+09 1 1
206 2 0 2.38877e+09 2.38903e+09 2.39006e+09 2.39066e+09 0 1
207 2 0 2.39364e+09 2.39391e+09 2.39493e+09 2.39494e+09 0 1
208 2 1 2.40751e+09 2.40776e+09 2.40878e+09 2.40883e+09 0 0
209 2 1 2.41803e+09 2.41829e+09 2.41931e+09 2.4206e+09 1 0
210 2 0 2.42992e+09 2.43017e+09 2.43119e+09 2.43198e+09 1 1
211 2 0 2.43679e+09 2.43705e+09 2.43807e+09 2.43815e+09 0 1
212 1 0 2.4416e+09 2.44185e+09 2.44287e+09 2.4429e+09 0 0
213 1 1 2.45622e+09 2.45647e+09 2.45749e+09 2.45761e+09 1 1
214 2 0 2.47398e+09 2.47423e+09 2.47525e+09 2.47636e+09 0 1
215 1 1 2.48599e+09 2.48626e+09 2.48728e+09 2.49011e+09 0 1
216 1 0 2.5006e+09 2.50086e+09 2.50188e+09 2.5019e+09 0 0
217 1 1 2.50925e+09 2.50951e+09 2.51053e+09 2.51056e+09 1 1
218 1 1 2.53033e+09 2.53059e+09 2.53161e+09 2.53164e+09 0 1
219 1 1 2.5431e+09 2.54337e+09 2.54439e+09 2.54589e+09 0 1
220 1 0 2.56334e+09 2.5636e+09 2.56462e+09 2.56549e+09 0 0
221 1 0 2.57403e+09 2.57428e+09 2.5753e+09 2.57532e+09 1 0
222 1 1 2.59429e+09 2.59455e+09 2.59557e+09 2.59773e+09 1 1
223 2 0 2.60804e+09 2.60829e+09 2.60931e+09 2.61148e+09 0 1
224 2 1 2.63431e+09 2.63457e+09 2.63559e+09 2.63606e+09 0 0
225 2 0 2.64531e+09 2.64557e+09 2.64659e+09 2.64769e+09 1 1
226 1 0 2.65711e+09 2.65737e+09 2.65839e+09 2.65844e+09 0 0
227 1 0 2.6814e+09 2.68167e+09 2.68269e+09 2.68342e+09 1 0
228 1 1 2.69491e+09 2.69516e+09 2.69618e+09 2.6964e+09 1 1
229 2 1 2.70919e+09 2.70944e+09 2.71046e+09 2.71049e+09 0 0
230 2 1 2.74468e+09 2.74494e+09 2.74596e+09 2.74605e+09 1 0
231 2 1 2.76278e+09 2.76304e+09 2.76406e+09 2.7674e+09 1 0
232 2 1 2.77775e+09 2.77801e+09 2.77903e+09 2.77945e+09 1 0
233 2 1 2.7919e+09 2.79216e+09 2.79318e+09 2.79319e+09 0 0
234 1 1 2.80334e+09 2.8036e+09 2.80462e+09 2.8067e+09 0 1
235 2 1 2.81869e+09 2.81896e+09 2.81998e+09 2.82054e+09 0 0
236 2 1 2.83565e+09 2.83589e+09 2.83691e+09 2.83918e+09 1 0
237 2 0 2.85005e+09 2.8503e+09 2.85132e+09 2.85233e+09 1 1
238 1 1 2.85918e+09 2.85945e+09 2.86047e+09 2.86061e+09 0 1
239 1 0 2.88819e+09 2.88846e+09 2.88948e+09 2.8906e+09 0 0
240 1 0 2.89928e+09 2.89953e+09 2.90055e+09 2.90065e+09 1 0
241 1 0 2.91119e+09 2.91144e+09 2.91246e+09 2.9127e+09 1 0
242 1 1 2.92445e+09 2.92472e+09 2.92574e+09 2.92613e+09 1 1
243 1 0 2.9306e+09 2.93087e+09 2.93189e+09 2.93201e+09 0 0
244 1 0 2.93916e+09 2.93942e+09 2.94044e+09 2.9417e+09 1 0
245 1 1 2.96141e+09 2.96167e+09 2.96269e+09 2.96443e+09 1 1
246 1 1 2.97118e+09 2.97144e+09 2.97247e+09 2.97338e+09 0 1
247 1 1 2.97624e+09 2.9765e+09 2.97752e+09 2.97948e+09 0 1
248 2 1 2.99321e+09 2.99346e+09 2.99449e+09 2.99515e+09 0 0
249 2 1 3.01264e+09 3.01289e+09 3.01391e+09 3.01512e+09 1 0
250 2 0 3.02653e+09 3.0268e+09 3.02782e+09 3.02793e+09 1 1
251 1 1 3.03171e+09 3.03197e+09 3.03299e+09 3.03301e+09 0 1
252 2 0 3.04395e+09 3.0442e+09 3.04522e+09 3.04531e+09 0 1
253 2 0 3.06691e+09 3.06716e+09 3.06818e+09 3.07198e+09 0 1
254 1 1 3.08831e+09 3.08858e+09 3.0896e+09 3.09088e+09 0 1
255 1 0 3.09541e+09 3.09567e+09 3.09669e+09 3.09671e+09 0 0
256 1 1 3.1041e+09 3.10437e+09 3.10539e+09 3.10717e+09 1 1
257 2 1 3.11434e+09 3.11459e+09 3.11562e+09 3.11664e+09 0 0
258 2 1 3.12438e+09 3.12463e+09 3.12565e+09 3.12651e+09 1 0
259 2 0 3.13468e+09 3.13493e+09 3.13595e+09 3.13774e+09 1 1
260 1 0 3.14695e+09 3.1472e+09 3.14823e+09 3.1491e+09 0 0
261 1 1 3.16713e+09 3.16739e+09 3.16841e+09 3.16842e+09 1 1
262 1 0 3.17123e+09 3.17149e+09 3.17251e+09 3.17367e+09 0 0
263 1 1 3.18444e+09 3.1847e+09 3.18572e+09 3.18659e+09 1 1
264 1 1 3.19297e+09 3.19322e+09 3.19424e+09 3.19428e+09 0 1
265 2 1 3.20251e+09 3.20277e+09 3.2038e+09 3.2042e+09 0 0
266 2 0 3.21823e+09 3.21849e+09 3.21951e+09 3.2196e+09 1 1
267 2 0 3.23314e+09 3.23339e+09 3.23441e+09 3.23518e+09 0 1
268 2 0 3.24548e+09 3.24575e+09 3.24677e+09 3.24791e+09 0 1
269 1 1 3.25804e+09 3.25829e+09 3.25931e+09 3.25956e+09 0 1
270 2 1 3.26565e+09 3.26591e+09 3.26693e+09 3.26699e+09 0 0
271 2 1 3.29453e+09 3.29478e+09 3.2958e+09 3.29741e+09 1 0
272 2 0 3.30537e+09 3.30563e+09 3.30665e+09 3.30723e+09 1 1
273 2 1 3.30994e+09 3.3102e+09 3.31122e+09 3.31531e+09 0 0
274 2 0 3.33245e+09 3.33271e+09 3.33373e+09 3.33413e+09 1 1
275 2 1 3.34559e+09 3.34585e+09 3.34687e+09 3.34746e+09 0 0
276 2 0 3.36991e+09 3.37016e+09 3.37118e+09 3.37252e+09 1 1
277 1 1 3.37517e+09 3.37542e+09 3.37644e+09 3.37923e+09 0 1
278 1 1 3.38193e+09 3.38219e+09 3.38321e+09 3.38338e+09 0 1
279 2 1 3.38719e+09 3.38744e+09 3.38846e+09 3.39004e+09 0 0
280 2 1 3.39721e+09 3.39747e+09 3.39849e+09 3.39914e+09 1 0
281 2 0 3.41266e+09 3.41292e+09 3.41394e+09 3.4143e+09 1 1
282 2 0 3.42466e+09 3.42492e+09 3.42594e+09 3.43004e+09 0 1
283 1 1 3.4338e+09 3.43407e+09 3.43509e+09 3.43599e+09 0 1
284 2 1 3.45654e+09 3.4568e+09 3.45782e+09 3.45794e+09 0 0
285 2 0 3.46498e+09 3.46524e+09 3.46626e+09 3.47381e+09 1 1
286 1 0 3.48538e+09 3.48563e+09 3.48665e+09 3.48702e+09 0 0
287 1 1 3.49674e+09 3.497e+09 3.49802e+09 3.49806e+09 1 1
288 1 1 3.50064e+09 3.5009e+09 3.50192e+09 3.50202e+09 0 1
289 1 1 3.50953e+09 3.50978e+09 3.5108e+09 3.51083e+09 0 1
290 1 0 3.51383e+09 3.51408e+09 3.5151e+09 3.53798e+09 0 0
291 1 1 3.54521e+09 3.54548e+09 3.5465e+09 3.54822e+09 1 1
292 1 0 3.55085e+09 3.55111e+09 3.55213e+09 3.56371e+09 0 0
293 1 1 3.5708e+09 3.57106e+09 3.57208e+09 3.57992e+09 1 1
294 2 1 3.58291e+09 3.58318e+09 3.5842e+09 3.58432e+09 0 0
295 2 0 3.59583e+09 3.59609e+09 3.59711e+09 3.59918e+09 1 1
296 2 1 3.60896e+09 3.60922e+09 3.61024e+09 3.61115e+09 0 0
297 2 1 3.62388e+09 3.62413e+09 3.62515e+09 3.62527e+09 1 0
298 2 0 3.63846e+09 3.63871e+09 3.63973e+09 3.6427e+09 1 1
299 2 0 3.65334e+09 3.65359e+09 3.65461e+09 3.67489e+09 0 1
300 2 1 3.67975e+09 3.68001e+09 3.68103e+09 3.68123e+09 0 0
301 2 1 3.68831e+09 3.68857e+09 3.68959e+09 3.70661e+09 1 0
302 2 1 3.71387e+09 3.71412e+09 3.71514e+09 3.75362e+09 1 0
303 2 1 3.77196e+09 3.77222e+09 3.77324e+09 3.77326e+09 1 0
304 2 0 3.79379e+09 3.79405e+09 3.79507e+09 3.8021e+09 0 1
305 2 0 3.82034e+09 3.82059e+09 3.82162e+09 3.82515e+09 0 1
306 2 1 3.8415e+09 3.84176e+09 3.84278e+09 3.84416e+09 0 0
307 2 1 3.85481e+09 3.85509e+09 3.85611e+09 3.85652e+09 1 0
308 2 1 3.86559e+09 3.86585e+09 3.86687e+09 3.86689e+09 1 0
309 2 1 3.87581e+09 3.87607e+09 3.87709e+09 3.87808e+09 1 0
310 1 0 3.89303e+09 3.89328e+09 3.89431e+09 3.8949e+09 0 0
311 2 1 3.90393e+09 3.90418e+09 3.9052e+09 3.90554e+09 0 0
312 1 0 3.91278e+09 3.91303e+09 3.91405e+09 3.91494e+09 0 0
313 2 1 3.92409e+09 3.92435e+09 3.92537e+09 3.92553e+09 0 0
314 2 1 3.93624e+09 3.93649e+09 3.93751e+09 3.93925e+09 0 0
315 1 0 3.95157e+09 3.95183e+09 3.95285e+09 3.95299e+09 0 0
316 1 0 3.96433e+09 3.96458e+09 3.9656e+09 3.96619e+09 0 0
317 1 1 3.97363e+09 3.97388e+09 3.9749e+09 3.97525e+09 0 1
318 1 1 3.97821e+09 3.97846e+09 3.97948e+09 3.98552e+09 0 1
319 2 1 3.99235e+09 3.99262e+09 3.99364e+09 3.99651e+09 0 0
320 2 0 4.00617e+09 4.00643e+09 4.00745e+09 4.00836e+09 1 1
321 1 1 4.02481e+09 4.02506e+09 4.02608e+09 4.0267e+09 0 1
322 2 1 4.03685e+09 4.03712e+09 4.03814e+09 4.03972e+09 0 0
323 2 1 4.05075e+09 4.051e+09 4.05202e+09 4.05337e+09 1 0
324 2 1 4.06302e+09 4.06329e+09 4.06431e+09 4.06433e+09 1 0
325 2 1 4.07219e+09 4.07245e+09 4.07347e+09 4.0752e+09 1 0
326 2 0 4.08706e+09 4.08733e+09 4.08835e+09 4.08851e+09 0 1
327 1 1 4.09137e+09 4.09163e+09 4.09265e+09 4.0939e+09 0 1
328 2 1 4.09976e+09 4.10002e+09 4.10104e+09 4.10114e+09 0 0
329 2 0 4.11456e+09 4.11482e+09 4.11584e+09 4.11868e+09 1 1
330 1 0 4.12128e+09 4.12154e+09 4.12256e+09 4.1254e+09 0 0
331 1 1 4.14209e+09 4.14235e+09 4.14337e+09 4.14356e+09 1 1
332 2 1 4.1466e+09 4.14686e+09 4.14788e+09 4.14859e+09 0 0
333 2 1 4.15839e+09 4.15865e+09 4.15967e+09 4.1609e+09 1 0
334 2 1 4.17144e+09 4.17169e+09 4.17271e+09 4.17503e+09 1 0
335 2 1 4.19256e+09 4.19281e+09 4.19383e+09 4.19396e+09 1 0
336 2 1 4.2051e+09 4.20536e+09 4.20638e+09 4.2099e+09 0 0
337 1 1 4.21724e+09 4.21751e+09 4.21853e+09 4.22211e+09 0 1
338 1 1 4.26808e+09 4.26834e+09 4.26936e+09 4.2694e+09 0 1
339 2 1 4.2773e+09 4.27756e+09 4.27858e+09 4.27941e+09 0 0
340 2 1 2.09777e+07 2.12404e+07 2.22611e+07 2.36905e+07 1 0
341 2 1 4.55445e+07 4.58063e+07 4.6827e+07 4.68983e+07 1 0
342 2 1 5.79502e+07 5.82133e+07 5.9234e+07 6.26589e+07 1 0
343 1 1 7.30655e+07 7.33255e+07 7.43463e+07 7.45783e+07 0 1
344 2 1 7.81527e+07 7.84198e+07 7.94405e+07 7.98574e+07 0 0
345 2 1 1.05268e+08 1.05521e+08 1.06542e+08 1.0663e+08 1 0
346 2 1 1.24107e+08 1.24356e+08 1.25376e+08 1.25638e+08 1 0
347 2 0 1.3452e+08 1.3479e+08 1.35811e+08 1.36809e+08 1 1
348 1 1 1.42032e+08 1.42294e+08 1.43315e+08 1.43406e+08 0 1
349 1 1 1.47906e+08 1.48173e+08 1.49194e+08 1.49581e+08 0 1
350 1 1 2.17255e+08 2.17513e+08 2.18534e+08 2.19353e+08 0 1
351 1 1 2.30927e+08 2.31204e+08 2.32224e+08 2.33032e+08 0 1
352 1 1 2.55887e+08 2.56146e+08 2.57167e+08 2.5796e+08 0 1
353 1 1 2.69258e+08 2.6951e+08 2.7053e+08 2.70709e+08 0 1
354 1 1 2.88006e+08 2.88279e+08 2.89299e+08 2.89567e+08 0 1
355 1 1 2.98307e+08 2.98565e+08 2.99585e+08 3.01289e+08 0 1
356 1 1 3.2472e+08 3.24985e+08 3.26006e+08 3.26187e+08 0 1
357 2 1 3.41229e+08 3.41491e+08 3.42512e+08 3.44913e+08 0 0
358 2 1 3.5391e+08 3.5416e+08 3.55181e+08 3.57019e+08 1 0
359 2 1 3.66808e+08 3.67062e+08 3.68083e+08 3.69234e+08 1 0
360 2 0 3.76388e+08 3.7665e+08 3.77671e+08 3.77722e+08 1 1
361 1 1 3.81067e+08 3.81319e+08 3.8234e+08 3.83344e+08 0 1
362 1 0 3.86489e+08 3.86749e+08 3.87769e+08 3.8823e+08 0 0
363 1 1 4.06685e+08 4.06942e+08 4.07963e+08 4.08141e+08 1 1
364 2 0 4.21097e+08 4.21355e+08 4.22376e+08 4.23577e+08 0 1
365 1 1 4.30737e+08 4.3099e+08 4.32011e+08 4.32513e+08 0 1
366 1 1 4.40415e+08 4.40673e+08 4.41694e+08 4.41914e+08 0 1
367 1 0 4.48585e+08 4.48851e+08 4.49872e+08 4.52633e+08 0 0
368 1 1 4.70128e+08 4.70382e+08 4.71403e+08 4.71417e+08 1 1
369 1 1 4.79662e+08 4.79921e+08 4.80942e+08 4.81293e+08 0 1
370 2 0 5.0546e+08 5.05713e+08 5.06733e+08 5.08405e+08 0 1
371 2 1 5.27099e+08 5.27366e+08 5.28387e+08 5.28491e+08 0 0
372 2 1 5.49466e+08 5.49712e+08 5.50733e+08 5.5272e+08 1 0
373 2 1 5.60009e+08 5.60273e+08 5.61293e+08 5.63354e+08 1 0
374 2 1 6.09716e+08 6.09974e+08 6.10995e+08 6.13491e+08 1 0
375 2 1 6.26316e+08 6.26572e+08 6.27593e+08 6.28147e+08 0 0
376 1 1 6.39799e+08 6.40059e+08 6.41079e+08 6.42027e+08 0 1
377 2 1 6.66424e+08 6.66678e+08 6.67699e+08 6.6781e+08 0 0
378 2 0 6.81761e+08 6.82016e+08 6.83036e+08 6.84101e+08 1 1
379 1 1 7.02994e+08 7.0326e+08 7.04281e+08 7.05192e+08 0 1
380 2 1 7.12109e+08 7.12369e+08 7.1339e+08 7.13528e+08 0 0
381 2 1 7.26055e+08 7.26316e+08 7.27336e+08 7.28343e+08 1 0
382 2 0 7.3613e+08 7.36398e+08 7.37419e+08 7.37562e+08 1 1
383 2 1 7.48657e+08 7.4891e+08 7.49931e+08 7.74245e+08 0 0
384 2 1 7.81959e+08 7.82213e+08 7.83233e+08 7.85141e+08 1 0
385 2 0 8.07697e+08 8.07952e+08 8.08973e+08 8.09284e+08 1 1
386 2 1 8.12966e+08 8.13225e+08 8.14246e+08 8.17721e+08 0 0
387 2 1 8.25231e+08 8.25492e+08 8.26513e+08 8.28699e+08 1 0
388 2 1 8.35926e+08 8.36185e+08 8.37205e+08 8.41816e+08 1 0
389 2 1 8.54863e+08 8.55123e+08 8.56144e+08 8.57314e+08 1 0
390 1 1 8.66003e+08 8.66258e+08 8.67279e+08 8.70341e+08 0 1
391 1 0 8.80109e+08 8.80367e+08 8.81388e+08 8.81872e+08 0 0
392 1 1 8.93801e+08 8.94058e+08 8.95079e+08 8.97387e+08 1 1
393 1 1 9.10305e+08 9.10571e+08 9.11592e+08 9.12345e+08 0 1
394 1 0 9.16156e+08 9.16409e+08 9.17429e+08 9.17696e+08 0 0
395 1 0 9.35572e+08 9.35826e+08 9.36847e+08 9.36918e+08 1 0
396 1 0 9.53958e+08 9.5421e+08 9.55231e+08 9.55483e+08 1 0
397 1 1 9.76686e+08 9.76939e+08 9.7796e+08 9.81341e+08 1 1
398 2 0 9.85428e+08 9.8568e+08 9.86701e+08 9.87709e+08 0 1
399 1 1 1.03174e+09 1.03199e+09 1.03301e+09 1.03451e+09 0 1
400 2 0 1.03821e+09 1.03847e+09 1.03949e+09 1.0413e+09 0 1
401 2 0 1.04412e+09 1.04439e+09 1.04541e+09 1.04548e+09 0 1
402 1 1 1.0487e+09 1.04895e+09 1.04997e+09 1.05054e+09 0 1
403 2 0 1.06619e+09 1.06645e+09 1.06747e+09 1.06852e+09 0 1
404 2 1 1.08664e+09 1.0869e+09 1.08792e+09 1.08813e+09 0 0
405 2 1 1.10175e+09 1.102e+09 1.10302e+09 1.10312e+09 1 0
406 2 1 1.11146e+09 1.11172e+09 1.11274e+09 1.11293e+09 1 0
407 2 1 1.12549e+09 1.12575e+09 1.12677e+09 1.12776e+09 1 0
408 2 1 1.14358e+09 1.14384e+09 1.14486e+09 1.14568e+09 0 0
409 2 0 1.15443e+09 1.15468e+09 1.15571e+09 1.15588e+09 0 1
410 2 1 1.17475e+09 1.175e+09 1.17602e+09 1.17822e+09 0 0
411 2 0 1.18851e+09 1.18876e+09 1.18978e+09 1.19154e+09 1 1
412 2 1 1.21608e+09 1.21635e+09 1.21737e+09 1.21813e+09 0 0
413 2 1 1.2375e+09 1.23776e+09 1.23878e+09 1.2391e+09 1 0
414 2 0 1.2563e+09 1.25655e+09 1.25757e+09 1.25782e+09 1 1
415 2 1 1.2732e+09 1.27346e+09 1.27448e+09 1.27614e+09 0 0
416 2 1 1.28694e+09 1.2872e+09 1.28822e+09 1.28875e+09 1 0
417 2 1 1.29869e+09 1.29894e+09 1.29996e+09 1.3013e+09 1 0
418 2 1 1.31057e+09 1.31082e+09 1.31184e+09 1.31619e+09 1 0
419 2 1 1.3421e+09 1.34236e+09 1.34338e+09 1.34451e+09 0 0
420 2 1 1.35211e+09 1.35236e+09 1.35338e+09 1.3557e+09 0 0
421 2 1 1.37144e+09 1.3717e+09 1.37272e+09 1.37497e+09 0 0
422 2 1 1.38778e+09 1.38804e+09 1.38906e+09 1.38912e+09 0 0
423 2 1 1.40115e+09 1.4014e+09 1.40242e+09 1.40291e+09 0 0
424 2 1 1.41095e+09 1.41121e+09 1.41223e+09 1.41308e+09 0 0
425 2 1 1.42797e+09 1.42823e+09 1.42925e+09 1.43189e+09 0 0
426 2 0 1.43976e+09 1.44002e+09 1.44104e+09 1.44292e+09 0 1
427 2 1 1.44602e+09 1.44628e+09 1.4473e+09 1.45594e+09 0 0
428 2 1 1.4642e+09 1.46445e+09 1.46547e+09 1.47e+09 1 0
429 2 1 1.47823e+09 1.47848e+09 1.4795e+09 1.48346e+09 1 0
430 2 1 1.49219e+09 1.49244e+09 1.49346e+09 1.49935e+09 1 0
431 2 1 1.50707e+09 1.50732e+09 1.50834e+09 1.5089e+09 0 0
432 1 1 1.51805e+09 1.5183e+09 1.51932e+09 1.51948e+09 0 1
433 2 0 1.53553e+09 1.53577e+09 1.5368e+09 1.53684e+09 0 1
434 1 1 1.55026e+09 1.55052e+09 1.55154e+09 1.55441e+09 0 1
435 1 1 1.55817e+09 1.55842e+09 1.55944e+09 1.55969e+09 0 1
436 2 1 1.56937e+09 1.56962e+09 1.57064e+09 1.57115e+09 0 0
437 2 0 1.57833e+09 1.57858e+09 1.5796e+09 1.58338e+09 1 1
438 2 1 1.58805e+09 1.5883e+09 1.58932e+09 1.59133e+09 0 0
439 2 1 1.59869e+09 1.59894e+09 1.59996e+09 1.60014e+09 1 0
440 2 0 1.60865e+09 1.60892e+09 1.60994e+09 1.61937e+09 1 1
441 1 1 1.62191e+09 1.62217e+09 1.62319e+09 1.62463e+09 0 1
442 2 1 1.63108e+09 1.63133e+09 1.63235e+09 1.63262e+09 0 0
443 2 0 1.64093e+09 1.64119e+09 1.64221e+09 1.6433e+09 1 1
444 1 1 1.64595e+09 1.64621e+09 1.64723e+09 1.64848e+09 0 1
445 1 1 1.65131e+09 1.65156e+09 1.65259e+09 1.65892e+09 0 1
446 1 1 1.66351e+09 1.66377e+09 1.66479e+09 1.67143e+09 0 1
447 1 1 1.67738e+09 1.67763e+09 1.67865e+09 1.68093e+09 0 1
448 1 0 1.68678e+09 1.68704e+09 1.68806e+09 1.69082e+09 0 0
449 1 1 1.69812e+09 1.69837e+09 1.69939e+09 1.69941e+09 1 1
450 1 1 1.70398e+09 1.70424e+09 1.70526e+09 1.70708e+09 0 1
451 1 1 1.70993e+09 1.71018e+09 1.71121e+09 1.71194e+09 0 1
452 1 0 1.71997e+09 1.72023e+09 1.72125e+09 1.72714e+09 0 0
453 1 1 1.73459e+09 1.73485e+09 1.73587e+09 1.73592e+09 1 1
454 2 1 1.74753e+09 1.74778e+09 1.7488e+09 1.74883e+09 0 0
455 2 0 1.75845e+09 1.75871e+09 1.75974e+09 1.76136e+09 1 1
456 2 1 1.77496e+09 1.77521e+09 1.77623e+09 1.77753e+09 0 0
457 2 1 1.79287e+09 1.79312e+09 1.79414e+09 1.79476e+09 1 0
458 2 1 1.81772e+09 1.81797e+09 1.81899e+09 1.84142e+09 1 0
459 2 1 1.84887e+09 1.84913e+09 1.85015e+09 1.85167e+09 1 0
460 1 1 1.86115e+09 1.86142e+09 1.86244e+09 1.86314e+09 0 1
461 1 1 1.86806e+09 1.86831e+09 1.86933e+09 1.87672e+09 0 1
462 2 0 1.87939e+09 1.87965e+09 1.88067e+09 2.0005e+09 0 1
463 1 0 2.00457e+09 2.00482e+09 2.00584e+09 2.00676e+09 0 0
464 1 1 2.01399e+09 2.01425e+09 2.01527e+09 2.02518e+09 1 1
465 1 1 2.02973e+09 2.02999e+09 2.03101e+09 2.03214e+09 0 1
466 1 1 2.03611e+09 2.03636e+09 2.03738e+09 2.03741e+09 0 1
467 1 1 2.05063e+09 2.05089e+09 2.05191e+09 2.05215e+09 0 1
468 2 0 2.05859e+09 2.05884e+09 2.05986e+09 2.06174e+09 0 1
469 1 0 2.07111e+09 2.07137e+09 2.07239e+09 2.07241e+09 0 0
470 1 1 2.07958e+09 2.07984e+09 2.08086e+09 2.0902e+09 1 1
471 1 0 2.09563e+09 2.09588e+09 2.0969e+09 2.09699e+09 0 0
472 1 0 2.10404e+09 2.1043e+09 2.10532e+09 2.10534e+09 1 0
473 1 1 2.11327e+09 2.11353e+09 2.11455e+09 2.11835e+09 1 1
474 1 1 2.12122e+09 2.12147e+09 2.12249e+09 2.12975e+09 0 1
475 2 1 2.14614e+09 2.14639e+09 2.14741e+09 2.15673e+09 0 0
476 2 1 2.16424e+09 2.1645e+09 2.16553e+09 2.17052e+09 1 0
477 2 0 2.18976e+09 2.19002e+09 2.19104e+09 2.20693e+09 1 1
478 2 1 2.21068e+09 2.21093e+09 2.21195e+09 2.2139e+09 0 0
479 2 0 2.22123e+09 2.22149e+09 2.22251e+09 2.22253e+09 1 1
480 2 1 2.2325e+09 2.23275e+09 2.23377e+09 2.23549e+09 0 0
481 2 1 2.24276e+09 2.24302e+09 2.24404e+09 2.27408e+09 1 0
482 2 1 2.28117e+09 2.28143e+09 2.28245e+09 2.28347e+09 1 0
483 2 1 2.29328e+09 2.29353e+09 2.29455e+09 2.29933e+09 1 0
484 1 1 2.30842e+09 2.30869e+09 2.30971e+09 2.30989e+09 0 1
485 1 1 2.31532e+09 2.31558e+09 2.3166e+09 2.31661e+09 0 1
486 1 1 2.32377e+09 2.32403e+09 2.32506e+09 2.32866e+09 0 1
487 1 0 2.34382e+09 2.34407e+09 2.3451e+09 2.34536e+09 0 0
488 1 1 2.35671e+09 2.35696e+09 2.35798e+09 2.358e+09 1 1
489 2 0 2.36239e+09 2.36263e+09 2.36366e+09 2.36689e+09 0 1
490 2 1 2.37012e+09 2.37038e+09 2.3714e+09 2.37174e+09 0 0
491 2 1 2.38043e+09 2.38068e+09 2.3817e+09 2.38214e+09 1 0
492 2 1 2.39081e+09 2.39107e+09 2.39209e+09 2.3928e+09 1 0
493 2 1 2.40006e+09 2.40031e+09 2.40134e+09 2.42882e+09 1 0
494 2 1 2.43602e+09 2.43627e+09 2.43729e+09 2.43733e+09 0 0
495 1 0 2.44553e+09 2.44579e+09 2.44681e+09 2.44991e+09 0 0
496 2 1 2.46055e+09 2.46081e+09 2.46183e+09 2.46499e+09 0 0
497 2 1 2.47321e+09 2.47347e+09 2.47449e+09 2.4765e+09 0 0
498 2 0 2.48425e+09 2.48451e+09 2.48553e+09 2.48716e+09 0 1
499 2 1 2.4911e+09 2.49136e+09 2.49238e+09 2.49247e+09 0 0
500 2 0 2.50542e+09 2.50568e+09 2.5067e+09 2.50906e+09 1 1
501 2 1 2.51193e+09 2.51219e+09 2.51321e+09 2.51623e+09 0 0
502 2 0 2.52398e+09 2.52425e+09 2.52527e+09 2.52841e+09 1 1
503 2 0 2.53142e+09 2.53168e+09 2.5327e+09 2.53295e+09 0 1
504 2 1 2.53866e+09 2.53892e+09 2.53994e+09 2.54644e+09 0 0
505 2 0 2.55369e+09 2.55394e+09 2.55497e+09 2.55721e+09 1 1
506 1 1 2.55991e+09 2.56017e+09 2.56119e+09 2.56121e+09 0 1
507 1 0 2.56494e+09 2.5652e+09 2.56622e+09 2.57112e+09 0 0
508 1 1 2.57819e+09 2.57844e+09 2.57946e+09 2.58001e+09 1 1
509 2 1 2.59737e+09 2.59762e+09 2.59864e+09 2.59874e+09 0 0
510 2 1 2.60949e+09 2.60974e+09 2.61076e+09 2.61128e+09 1 0
511 2 1 2.61847e+09 2.61872e+09 2.61974e+09 2.63459e+09 1 0
512 2 1 2.64279e+09 2.64304e+09 2.64406e+09 2.64466e+09 1 0
513 2 0 2.65188e+09 2.65214e+09 2.65316e+09 2.65366e+09 0 1
514 1 1 2.65838e+09 2.65864e+09 2.65966e+09 2.66618e+09 0 1
515 2 1 2.67626e+09 2.67652e+09 2.67754e+09 2.67755e+09 0 0
516 2 1 2.68489e+09 2.68514e+09 2.68616e+09 2.68792e+09 1 0
517 2 1 2.69922e+09 2.69947e+09 2.70049e+09 2.70122e+09 1 0
518 2 1 2.70829e+09 2.70855e+09 2.70957e+09 2.71054e+09 1 0
519 1 1 2.7196e+09 2.71986e+09 2.72088e+09 2.74328e+09 0 1
520 1 1 2.74835e+09 2.74861e+09 2.74963e+09 2.74966e+09 0 1
521 2 1 2.75415e+09 2.75442e+09 2.75544e+09 2.75727e+09 0 0
522 2 1 2.76693e+09 2.76718e+09 2.7682e+09 2.77026e+09 1 0
523 2 1 2.77772e+09 2.77798e+09 2.779e+09 2.80865e+09 1 0
524 2 0 2.81569e+09 2.81595e+09 2.81697e+09 2.81745e+09 1 1
525 2 0 2.82093e+09 2.82118e+09 2.82221e+09 2.82275e+09 0 1
526 1 1 2.82661e+09 2.82687e+09 2.82789e+09 2.83345e+09 0 1
527 2 1 2.84146e+09 2.8417e+09 2.84273e+09 2.88805e+09 0 0
528 2 1 2.89966e+09 2.89992e+09 2.90094e+09 2.90302e+09 1 0
529 2 1 2.91214e+09 2.91239e+09 2.91341e+09 2.918e+09 1 0
530 2 1 2.9255e+09 2.92575e+09 2.92677e+09 2.92966e+09 1 0
531 1 0 2.93684e+09 2.9371e+09 2.93812e+09 2.93842e+09 0 0
532 1 0 2.94584e+09 2.94609e+09 2.94711e+09 3.19253e+09 0 0
