trial trialType response stillTime stimOnset stimOffset respTime correctionTrial correct
001 1 0 5.76104e+06 6.05999e+06 7.08072e+06 8.66287e+06 0 0
002 1 1 1.69308e+07 1.72005e+07 1.82212e+07 2.25677e+07 1 1
003 2 1 2.52693e+07 2.55483e+07 2.65691e+07 2.76992e+07 0 0
004 2 1 3.4902e+07 3.51565e+07 3.61773e+07 3.67825e+07 1 0
005 2 1 4.42501e+07 4.45199e+07 4.55406e+07 4.98355e+07 1 0
006 2 0 5.87919e+07 5.90456e+07 6.00663e+07 6.44088e+07 1 1
007 2 1 7.13042e+07 7.15654e+07 7.25861e+07 8.00719e+07 0 0
008 2 0 9.24641e+07 9.27149e+07 9.37356e+07 9.3868e+07 1 1
009 2 1 9.99393e+07 1.00195e+08 1.01215e+08 1.03926e+08 0 0
010 2 1 1.11178e+08 1.11436e+08 1.12457e+08 1.13969e+08 1 0
011 2 1 1.21459e+08 1.21723e+08 1.22744e+08 1.22809e+08 1 0
012 2 0 1.30672e+08 1.30927e+08 1.31948e+08 1.35908e+08 1 1
013 1 1 1.56103e+08 1.56351e+08 1.57372e+08 1.5739e+08 0 1
014 2 1 1.59996e+08 1.60242e+08 1.61263e+08 1.61562e+08 0 0
015 2 0 1.69233e+08 1.69495e+08 1.70516e+08 1.70764e+08 1 1
016 1 1 1.73402e+08 1.73657e+08 1.74678e+08 1.74955e+08 0 1
017 1 0 1.83963e+08 1.84224e+08 1.85245e+08 1.87607e+08 0 0
018 1 1 2.04288e+08 2.04557e+08 2.05578e+08 2.06953e+08 1 1
019 1 1 2.0986e+08 2.10114e+08 2.11135e+08 2.1134e+08 0 1
020 2 1 2.14021e+08 2.14284e+08 2.15305e+08 2.17533e+08 0 0
021 2 1 2.32643e+08 2.32896e+08 2.33916e+08 2.33934e+08 1 0
022 2 0 2.4358e+08 2.4383e+08 2.4485e+08 2.46987e+08 1 1
023 2 0 2.49767e+08 2.50013e+08 2.51033e+08 2.51256e+08 0 1
024 2 1 2.55671e+08 2.55935e+08 2.56956e+08 2.57054e+08 0 0
025 2 0 2.65643e+08 2.6589e+08 2.66911e+08 2.67315e+08 1 1
026 1 1 2.70304e+08 2.70552e+08 2.71573e+08 2.76584e+08 0 1
027 1 0 2.821e+08 2.82354e+08 2.83375e+08 2.85406e+08 0 0
028 1 1 3.00026e+08 3.00286e+08 3.01307e+08 3.02335e+08 1 1
029 2 1 3.05208e+08 3.05461e+08 3.06482e+08 3.0652e+08 0 0
030 2 1 3.16136e+08 3.16403e+08 3.17424e+08 3.18485e+08 1 0
031 2 0 3.41327e+08 3.41588e+08 3.42609e+08 3.43105e+08 1 1
032 2 1 3.46013e+08 3.46266e+08 3.47286e+08 3.47705e+08 0 0
033 2 1 3.57233e+08 3.57494e+08 3.58515e+08 3.60632e+08 1 0
034 2 0 3.79671e+08 3.79924e+08 3.80945e+08 3.82297e+08 1 1
035 1 0 4.09044e+08 4.09303e+08 4.10323e+08 4.15603e+08 0 0
036 1 1 4.23568e+08 4.23826e+08 4.24846e+08 4.27649e+08 1 1
037 1 1 4.44068e+08 4.44322e+08 4.45343e+08 4.4536e+08 0 1
038 2 1 4.48004e+08 4.48252e+08 4.49272e+08 4.52348e+08 0 0
039 2 1 4.59462e+08 4.59722e+08 4.60743e+08 4.60934e+08 1 0
040 2 1 4.99059e+08 4.99309e+08 5.0033e+08 5.00352e+08 1 0
041 2 0 5.08907e+08 5.09159e+08 5.1018e+08 5.11055e+08 1 1
042 2 0 5.13853e+08 5.14127e+08 5.15148e+08 5.16479e+08 0 1
043 1 1 5.19471e+08 5.1973e+08 5.20751e+08 5.2808e+08 0 1
044 2 1 5.36156e+08 5.36419e+08 5.3744e+08 5.45834e+08 0 0
045 2 1 5.53543e+08 5.53801e+08 5.54822e+08 5.56008e+08 1 0
046 2 1 5.7497e+08 5.7522e+08 5.76241e+08 5.77144e+08 1 0
047 2 0 5.84409e+08 5.84658e+08 5.85678e+08 5.85899e+08 1 1
048 2 0 5.88588e+08 5.88837e+08 5.89858e+08 5.94975e+08 0 1
049 1 0 5.97673e+08 5.97943e+08 5.98963e+08 5.99331e+08 0 0
050 1 1 6.13133e+08 6.13394e+08 6.14415e+08 6.14498e+08 1 1
051 2 0 6.22504e+08 6.22764e+08 6.23784e+08 6.24368e+08 0 1
052 1 1 6.7491e+08 6.75163e+08 6.76183e+08 6.76222e+08 0 1
053 1 1 6.78931e+08 6.79192e+08 6.80213e+08 6.8029e+08 0 1
054 2 0 6.83232e+08 6.83496e+08 6.84516e+08 6.85654e+08 0 1
055 1 0 6.997e+08 6.99967e+08 7.00987e+08 7.03144e+08 0 0
056 1 1 7.22806e+08 7.23065e+08 7.24086e+08 7.31461e+08 1 1
057 2 1 7.65755e+08 7.66016e+08 7.67036e+08 7.76356e+08 0 0
058 2 0 7.83588e+08 7.83836e+08 7.84856e+08 7.86566e+08 1 1
059 1 1 7.89912e+08 7.90159e+08 7.9118e+08 7.91425e+08 0 1
060 2 0 7.94436e+08 7.94689e+08 7.9571e+08 7.99728e+08 0 1
061 1 1 8.06228e+08 8.06485e+08 8.07506e+08 8.08446e+08 0 1
062 1 1 8.11134e+08 8.11398e+08 8.12419e+08 8.12527e+08 0 1
063 2 1 8.1518e+08 8.15432e+08 8.16453e+08 8.18346e+08 0 0
064 2 1 8.25406e+08 8.25664e+08 8.26685e+08 8.2831e+08 1 0
065 2 0 8.65025e+08 8.65287e+08 8.66308e+08 8.74973e+08 1 1
066 1 0 8.87912e+08 8.88173e+08 8.89194e+08 8.93137e+08 0 0
067 1 1 9.21726e+08 9.2198e+08 9.23001e+08 9.24151e+08 1 1
068 1 0 9.27062e+08 9.27322e+08 9.28343e+08 9.40208e+08 0 0
069 1 1 9.68119e+08 9.68373e+08 9.69394e+08 9.75984e+08 1 1
070 1 0 9.78939e+08 9.79199e+08 9.8022e+08 9.82038e+08 0 0
071 1 1 1.00377e+09 1.00402e+09 1.00504e+09 1.01323e+09 1 1
072 1 0 1.01623e+09 1.01649e+09 1.01751e+09 1.0211e+09 0 0
073 1 0 1.02826e+09 1.02852e+09 1.02954e+09 1.03942e+09 1 0
074 1 1 1.04764e+09 1.0479e+09 1.04892e+09 1.04969e+09 1 1
075 1 1 1.05257e+09 1.05284e+09 1.05386e+09 1.05484e+09 0 1
076 1 1 1.05775e+09 1.05801e+09 1.05903e+09 1.06294e+09 0 1
077 1 0 1.06561e+09 1.06587e+09 1.06689e+09 1.06928e+09 0 0
078 1 1 1.07635e+09 1.07661e+09 1.07763e+09 1.08547e+09 1 1
079 2 1 1.08841e+09 1.08867e+09 1.08969e+09 1.09773e+09 0 0
080 2 0 1.10569e+09 1.10596e+09 1.10698e+09 1.10982e+09 1 1
081 2 0 1.11243e+09 1.11269e+09 1.11371e+09 1.11467e+09 0 1
082 1 0 1.11728e+09 1.11754e+09 1.11856e+09 1.12032e+09 0 0
083 1 1 1.12748e+09 1.12774e+09 1.12876e+09 1.13252e+09 1 1
084 1 1 1.13503e+09 1.1353e+09 1.13632e+09 1.14556e+09 0 1
085 1 0 1.1481e+09 1.14836e+09 1.14938e+09 1.14964e+09 0 0
086 1 0 1.16082e+09 1.16106e+09 1.16208e+09 1.16214e+09 1 0
087 1 0 1.17002e+09 1.17028e+09 1.17131e+09 1.17964e+09 1 0
088 1 1 1.27402e+09 1.27427e+09 1.27529e+09 1.30499e+09 1 1
089 2 1 1.32069e+09 1.32096e+09 1.32198e+09 1.32268e+09 0 0
090 2 1 1.33093e+09 1.33119e+09 1.33221e+09 1.35184e+09 1 0
091 2 1 1.36522e+09 1.36547e+09 1.36649e+09 1.36666e+09 1 0
092 2 0 1.37381e+09 1.37406e+09 1.37508e+09 1.37894e+09 1 1
093 1 1 1.3824e+09 1.38265e+09 1.38367e+09 1.39691e+09 0 1
094 2 0 1.39979e+09 1.40005e+09 1.40107e+09 1.40121e+09 0 1
095 1 1 1.42434e+09 1.42459e+09 1.42561e+09 1.42562e+09 0 1
096 1 0 1.42819e+09 1.42844e+09 1.42946e+09 1.43382e+09 0 0
097 1 1 1.44678e+09 1.44703e+09 1.44805e+09 1.44811e+09 1 1
098 2 1 1.47118e+09 1.47144e+09 1.47246e+09 1.47296e+09 0 0
099 2 0 1.55218e+09 1.55245e+09 1.55347e+09 1.55426e+09 1 1
100 2 1 1.55785e+09 1.5581e+09 1.55913e+09 1.55932e+09 0 0
101 2 1 1.56636e+09 1.56662e+09 1.56764e+09 1.58686e+09 1 0
102 2 1 1.59429e+09 1.59455e+09 1.59557e+09 1.59572e+09 1 0
103 2 0 1.63925e+09 1.6395e+09 1.64052e+09 1.64418e+09 1 1
104 2 1 1.65081e+09 1.65107e+09 1.65209e+09 1.65249e+09 0 0
105 2 0 1.69377e+09 1.69403e+09 1.69505e+09 1.69742e+09 1 1
106 2 0 1.70537e+09 1.70564e+09 1.70666e+09 1.70682e+09 0 1
107 2 1 1.70952e+09 1.70978e+09 1.7108e+09 1.71164e+09 0 0
108 2 0 1.7644e+09 1.76464e+09 1.76566e+09 1.76581e+09 1 1
109 1 1 1.79993e+09 1.80019e+09 1.80121e+09 1.80201e+09 0 1
110 1 0 1.81589e+09 1.81614e+09 1.81716e+09 1.83341e+09 0 0
111 1 1 1.84099e+09 1.84124e+09 1.84226e+09 1.85038e+09 1 1
112 2 1 1.85312e+09 1.85338e+09 1.8544e+09 1.85597e+09 0 0
113 2 1 1.86324e+09 1.8635e+09 1.86452e+09 1.87113e+09 1 0
114 2 0 1.89696e+09 1.89721e+09 1.89823e+09 1.89997e+09 1 1
115 2 0 1.91977e+09 1.92003e+09 1.92105e+09 1.92164e+09 0 1
116 2 0 1.92465e+09 1.9249e+09 1.92592e+09 1.9264e+09 0 1
117 2 0 1.94585e+09 1.94611e+09 1.94713e+09 1.94843e+09 0 1
118 2 1 1.95134e+09 1.9516e+09 1.95262e+09 1.95817e+09 0 0
119 2 0 1.97455e+09 1.97481e+09 1.97583e+09 1.97588e+09 1 1
120 2 1 2.00231e+09 2.00256e+09 2.00358e+09 2.00503e+09 0 0
121 2 1 2.02661e+09 2.02688e+09 2.0279e+09 2.02863e+09 1 0
122 2 0 2.03572e+09 2.03598e+09 2.037e+09 2.04093e+09 1 1
123 2 0 2.04458e+09 2.04485e+09 2.04587e+09 2.04707e+09 0 1
124 2 1 2.06261e+09 2.06286e+09 2.06388e+09 2.06617e+09 0 0
125 2 0 2.07359e+09 2.07386e+09 2.07488e+09 2.07696e+09 1 1
126 2 1 2.08932e+09 2.08959e+09 2.09061e+09 2.09645e+09 0 0
127 2 1 2.11729e+09 2.11754e+09 2.11856e+09 2.12257e+09 1 0
128 2 0 2.12982e+09 2.13008e+09 2.1311e+09 2.13227e+09 1 1
129 1 1 2.14288e+09 2.14313e+09 2.14415e+09 2.14417e+09 0 1
130 1 0 2.14714e+09 2.1474e+09 2.14842e+09 2.15e+09 0 0
131 1 1 2.17337e+09 2.17362e+09 2.17464e+09 2.17466e+09 1 1
132 1 1 2.17755e+09 2.17781e+09 2.17883e+09 2.17884e+09 0 1
133 1 1 2.18361e+09 2.18387e+09 2.18489e+09 2.18908e+09 0 1
134 1 1 2.19194e+09 2.1922e+09 2.19322e+09 2.19323e+09 0 1
135 1 1 2.19601e+09 2.19628e+09 2.1973e+09 2.19947e+09 0 1
136 1 1 2.20229e+09 2.20254e+09 2.20356e+09 2.20357e+09 0 1
137 2 1 2.25825e+09 2.2585e+09 2.25952e+09 2.25979e+09 0 0
138 2 0 2.26948e+09 2.26974e+09 2.27076e+09 2.27145e+09 1 1
139 2 1 2.28502e+09 2.28528e+09 2.2863e+09 2.29103e+09 0 0
140 2 1 2.3233e+09 2.32355e+09 2.32457e+09 2.32707e+09 1 0
141 2 0 2.33556e+09 2.33582e+09 2.33684e+09 2.33763e+09 1 1
142 1 1 2.34047e+09 2.34074e+09 2.34176e+09 2.34397e+09 0 1
143 2 0 2.35065e+09 2.35091e+09 2.35193e+09 2.35271e+09 0 1
144 2 0 2.3553e+09 2.35556e+09 2.35658e+09 2.36094e+09 0 1
145 1 1 2.36487e+09 2.36513e+09 2.36615e+09 2.36657e+09 0 1
146 2 1 2.38629e+09 2.38655e+09 2.38757e+09 2.3935e+09 0 0
147 2 1 2.40068e+09 2.40094e+09 2.40197e+09 2.4125e+09 1 0
148 2 0 2.42049e+09 2.42075e+09 2.42177e+09 2.42386e+09 1 1
149 1 0 2.4413e+09 2.44155e+09 2.44257e+09 2.4495e+09 0 0
150 1 0 2.46009e+09 2.46034e+09 2.46136e+09 2.46158e+09 1 0
151 1 1 2.48043e+09 2.48069e+09 2.48171e+09 2.48286e+09 1 1
152 1 1 2.49658e+09 2.49685e+09 2.49787e+09 2.49827e+09 0 1
153 2 1 2.50089e+09 2.50114e+09 2.50216e+09 2.50457e+09 0 0
154 2 1 2.52248e+09 2.52274e+09 2.52376e+09 2.52378e+09 1 0
155 2 1 2.58354e+09 2.5838e+09 2.58482e+09 2.58555e+09 1 0
156 2 1 2.64361e+09 2.64386e+09 2.64488e+09 2.64714e+09 1 0
157 1 1 2.66531e+09 2.66556e+09 2.66658e+09 2.66671e+09 0 1
158 2 1 2.66948e+09 2.66973e+09 2.67075e+09 2.67191e+09 0 0
159 2 0 2.67933e+09 2.67959e+09 2.68061e+09 2.68614e+09 1 1
160 1 1 2.68878e+09 2.68903e+09 2.69005e+09 2.701e+09 0 1
161 2 1 2.70363e+09 2.70389e+09 2.70491e+09 2.7067e+09 0 0
162 2 0 2.72474e+09 2.72501e+09 2.72603e+09 2.72688e+09 1 1
163 2 1 2.72972e+09 2.72998e+09 2.731e+09 2.73861e+09 0 0
164 2 1 2.74992e+09 2.75017e+09 2.75119e+09 2.7514e+09 1 0
165 2 0 2.77784e+09 2.77809e+09 2.77911e+09 2.77914e+09 1 1
166 1 1 2.78766e+09 2.78791e+09 2.78893e+09 2.79032e+09 0 1
167 2 1 2.80174e+09 2.802e+09 2.80302e+09 2.80304e+09 0 0
168 2 0 2.81041e+09 2.81067e+09 2.81169e+09 2.82842e+09 1 1
169 1 1 2.8313e+09 2.83155e+09 2.83257e+09 2.84507e+09 0 1
170 1 1 2.84761e+09 2.84786e+09 2.84888e+09 2.85634e+09 0 1
171 1 1 2.85908e+09 2.85934e+09 2.86037e+09 2.86329e+09 0 1
172 2 1 2.87561e+09 2.87585e+09 2.87687e+09 2.89496e+09 0 0
173 2 1 2.9027e+09 2.90296e+09 2.90398e+09 2.9042e+09 1 0
174 2 1 2.91148e+09 2.91173e+09 2.91275e+09 2.9128e+09 1 0
175 2 0 2.92056e+09 2.92081e+09 2.92183e+09 2.93294e+09 1 1
176 1 1 2.95587e+09 2.95611e+09 2.95713e+09 2.96717e+09 0 1
177 2 1 2.98091e+09 2.98117e+09 2.98219e+09 2.98307e+09 0 0
178 2 0 2.99182e+09 2.99208e+09 2.9931e+09 2.99365e+09 1 1
179 2 1 2.99629e+09 2.99654e+09 2.99756e+09 3.00831e+09 0 0
180 2 1 3.03356e+09 3.03382e+09 3.03484e+09 3.03623e+09 1 0
181 2 0 3.05629e+09 3.05654e+09 3.05756e+09 3.05869e+09 1 1
182 2 0 3.12251e+09 3.12277e+09 3.12379e+09 3.12469e+09 0 1
183 1 1 3.14777e+09 3.14802e+09 3.14905e+09 3.15299e+09 0 1
184 2 1 3.15554e+09 3.15579e+09 3.15681e+09 3.15764e+09 0 0
185 2 0 3.16649e+09 3.16674e+09 3.16776e+09 3.17672e+09 1 1
186 2 1 3.18037e+09 3.18063e+09 3.18165e+09 3.18251e+09 0 0
187 2 1 3.19473e+09 3.19499e+09 3.19601e+09 3.19629e+09 1 0
188 2 1 3.21396e+09 3.2142e+09 3.21523e+09 3.2164e+09 1 0
189 2 1 3.22416e+09 3.2244e+09 3.22543e+09 3.22589e+09 1 0
190 2 1 3.25655e+09 3.25681e+09 3.25783e+09 3.25785e+09 0 0
191 2 0 3.26509e+09 3.26536e+09 3.26638e+09 3.27738e+09 0 1
192 2 0 3.33509e+09 3.33534e+09 3.33636e+09 3.33745e+09 0 1
193 1 1 3.35124e+09 3.3515e+09 3.35252e+09 3.35914e+09 0 1
194 1 1 3.38257e+09 3.38282e+09 3.38384e+09 3.38385e+09 0 1
195 1 1 3.40302e+09 3.40328e+09 3.4043e+09 3.40688e+09 0 1
196 2 0 3.40944e+09 3.4097e+09 3.41072e+09 3.41452e+09 0 1
197 1 1 3.42233e+09 3.42258e+09 3.4236e+09 3.4295e+09 0 1
198 2 0 3.43204e+09 3.4323e+09 3.43332e+09 3.43561e+09 0 1
199 2 0 3.43832e+09 3.43858e+09 3.4396e+09 3.44424e+09 0 1
200 1 1 3.44862e+09 3.44887e+09 3.4499e+09 3.45017e+09 0 1
201 2 1 3.45293e+09 3.45319e+09 3.45421e+09 3.45482e+09 0 0
202 2 1 3.4746e+09 3.47485e+09 3.47587e+09 3.48013e+09 1 0
203 2 1 3.48801e+09 3.48827e+09 3.48929e+09 3.49648e+09 1 0
204 2 1 3.50391e+09 3.50417e+09 3.50519e+09 3.50579e+09 1 0
205 2 1 3.52444e+09 3.5247e+09 3.52572e+09 3.53701e+09 0 0
206 2 0 3.55689e+09 3.55715e+09 3.55817e+09 3.55924e+09 0 1
207 1 1 3.57388e+09 3.57414e+09 3.57516e+09 3.58853e+09 0 1
208 1 1 3.60236e+09 3.60261e+09 3.60363e+09 3.60634e+09 0 1
209 2 1 3.6133e+09 3.61356e+09 3.61458e+09 3.6147e+09 0 0
210 2 1 3.63054e+09 3.63079e+09 3.63181e+09 3.63842e+09 1 0
211 2 1 3.6455e+09 3.64577e+09 3.64679e+09 3.64958e+09 1 0
212 2 0 3.65705e+09 3.65729e+09 3.65832e+09 3.6591e+09 1 1
213 2 1 3.66325e+09 3.6635e+09 3.66452e+09 3.66463e+09 0 0
214 2 1 3.7401e+09 3.74035e+09 3.74137e+09 3.74698e+09 1 0
215 2 0 3.75417e+09 3.75442e+09 3.75544e+09 3.75557e+09 1 1
216 2 1 3.76191e+09 3.76216e+09 3.76318e+09 3.77576e+09 0 0
217 2 0 3.8147e+09 3.81496e+09 3.81598e+09 3.8166e+09 1 1
218 1 1 3.8403e+09 3.84056e+09 3.84158e+09 3.84159e+09 0 1
219 1 1 3.84683e+09 3.84709e+09 3.84811e+09 3.852e+09 0 1
220 1 1 3.85467e+09 3.85492e+09 3.85595e+09 3.8576e+09 0 1
221 1 1 3.86047e+09 3.86073e+09 3.86175e+09 3.8624e+09 0 1
222 1 1 3.86936e+09 3.86962e+09 3.87064e+09 3.87101e+09 0 1
223 1 1 3.88219e+09 3.88244e+09 3.88346e+09 3.91061e+09 0 1
224 1 1 3.92215e+09 3.9224e+09 3.92342e+09 3.9251e+09 0 1
225 1 1 3.93822e+09 3.93846e+09 3.93949e+09 3.94153e+09 0 1
226 1 1 3.94448e+09 3.94474e+09 3.94577e+09 3.94588e+09 0 1
227 2 1 3.95708e+09 3.95733e+09 3.95835e+09 3.97524e+09 0 0
228 2 0 3.98691e+09 3.98717e+09 3.98819e+09 3.98843e+09 1 1
229 2 1 4.00209e+09 4.00233e+09 4.00335e+09 4.02311e+09 0 0
230 2 1 4.03045e+09 4.0307e+09 4.03173e+09 4.03217e+09 1 0
231 2 1 4.03957e+09 4.03984e+09 4.04086e+09 4.05148e+09 1 0
232 2 0 4.07838e+09 4.07864e+09 4.07966e+09 4.0799e+09 1 1
233 1 1 4.10884e+09 4.10911e+09 4.11013e+09 4.1199e+09 0 1
234 2 0 4.12314e+09 4.1234e+09 4.12442e+09 4.12546e+09 0 1
235 1 1 4.14137e+09 4.14163e+09 4.14265e+09 4.14351e+09 0 1
236 2 1 4.1486e+09 4.14885e+09 4.14987e+09 4.16065e+09 0 0
237 2 1 4.16808e+09 4.16834e+09 4.16936e+09 4.18797e+09 1 0
238 2 1 4.19502e+09 4.19528e+09 4.1963e+09 4.19638e+09 1 0
239 2 1 4.20434e+09 4.20459e+09 4.20561e+09 4.2081e+09 1 0
240 1 1 4.2268e+09 4.22705e+09 4.22807e+09 4.22844e+09 0 1
241 2 1 4.23337e+09 4.23363e+09 4.23465e+09 4.23468e+09 0 0
242 2 0 4.27246e+09 4.27272e+09 4.27374e+09 4.27394e+09 1 1
243 2 1 4.27804e+09 4.27828e+09 4.27931e+09 4.28269e+09 0 0
244 2 0 3.13038e+06 3.3874e+06 4.40813e+06 4.90187e+06 1 1
245 1 1 1.18631e+07 1.21242e+07 1.31449e+07 2.45934e+07 0 1
246 1 0 3.71374e+07 3.73891e+07 3.84099e+07 5.32553e+07 0 0
247 1 1 7.84937e+07 7.87532e+07 7.9774e+07 8.00974e+07 1 1
248 2 1 8.27341e+07 8.29859e+07 8.40067e+07 8.64716e+07 0 0
249 2 0 9.81596e+07 9.84143e+07 9.9435e+07 1.00512e+08 1 1
250 2 1 1.62577e+08 1.62833e+08 1.63853e+08 1.63937e+08 0 0
251 2 0 1.81492e+08 1.81746e+08 1.82767e+08 1.83208e+08 1 1
252 2 1 2.00974e+08 2.01226e+08 2.02246e+08 2.04518e+08 0 0
253 2 1 2.55191e+08 2.55449e+08 2.5647e+08 2.78258e+08 1 0
254 2 1 2.85789e+08 2.86056e+08 2.87077e+08 2.96307e+08 1 0
255 2 0 3.06725e+08 3.06975e+08 3.07995e+08 3.08855e+08 1 1
256 2 1 3.29643e+08 3.29897e+08 3.30918e+08 3.31405e+08 0 0
257 2 1 3.4099e+08 3.4125e+08 3.42271e+08 3.44484e+08 1 0
258 2 0 3.52817e+08 3.53079e+08 3.541e+08 3.54147e+08 1 1
259 1 0 3.59671e+08 3.59923e+08 3.60944e+08 3.62784e+08 0 0
260 1 1 3.70003e+08 3.70262e+08 3.71283e+08 3.71352e+08 1 1
261 2 0 4.52062e+08 4.52318e+08 4.53339e+08 4.53744e+08 0 1
262 1 1 4.59628e+08 4.5988e+08 4.60901e+08 4.87672e+08 0 1
263 1 0 4.9022e+08 4.90472e+08 4.91493e+08 4.93281e+08 0 0
264 1 1 5.00502e+08 5.0075e+08 5.01771e+08 5.08848e+08 1 1
265 1 1 5.21947e+08 5.22195e+08 5.23216e+08 5.23233e+08 0 1
266 2 1 5.25987e+08 5.26252e+08 5.27272e+08 5.57819e+08 0 0
267 2 1 5.82537e+08 5.82796e+08 5.83817e+08 5.84302e+08 1 0
268 2 0 6.11709e+08 6.11964e+08 6.12985e+08 6.13329e+08 1 1
269 1 1 6.16095e+08 6.16348e+08 6.17369e+08 6.17418e+08 0 1
270 2 0 6.19998e+08 6.20258e+08 6.21279e+08 6.27654e+08 0 1
271 2 0 6.33533e+08 6.33783e+08 6.34804e+08 6.402e+08 0 1
272 1 1 6.48423e+08 6.48677e+08 6.49698e+08 6.49783e+08 0 1
273 2 1 6.62133e+08 6.62391e+08 6.63412e+08 6.63766e+08 0 0
274 2 0 6.73184e+08 6.73447e+08 6.74468e+08 6.7463e+08 1 1
275 2 1 6.77229e+08 6.77481e+08 6.78501e+08 6.79315e+08 0 0
276 2 0 6.9331e+08 6.93564e+08 6.94584e+08 6.96462e+08 1 1
277 2 0 6.99143e+08 6.99407e+08 7.00428e+08 7.04881e+08 0 1
278 2 1 7.30448e+08 7.30709e+08 7.31729e+08 7.31749e+08 0 0
279 2 1 7.707e+08 7.70963e+08 7.71984e+08 7.73265e+08 1 0
280 2 0 7.86463e+08 7.86712e+08 7.87733e+08 7.91506e+08 1 1
281 1 1 8.14742e+08 8.1499e+08 8.1601e+08 8.16083e+08 0 1
282 1 1 8.19031e+08 8.1929e+08 8.20311e+08 8.57114e+08 0 1
283 2 1 8.61498e+08 8.61746e+08 8.62767e+08 8.6368e+08 0 0
284 2 0 9.26994e+08 9.2724e+08 9.28261e+08 9.30071e+08 1 1
285 1 1 9.39827e+08 9.40081e+08 9.41102e+08 9.41112e+08 0 1
286 1 1 9.44031e+08 9.44279e+08 9.453e+08 9.50688e+08 0 1
287 1 1 9.54735e+08 9.54999e+08 9.56019e+08 9.79203e+08 0 1
288 1 1 9.81825e+08 9.82078e+08 9.83099e+08 9.83543e+08 0 1
289 1 1 9.94299e+08 9.94556e+08 9.95577e+08 1.00816e+09 0 1
290 2 0 1.02268e+09 1.02294e+09 1.02396e+09 1.02543e+09 0 1
291 1 1 1.07065e+09 1.07092e+09 1.07194e+09 1.0755e+09 0 1
292 1 0 1.08808e+09 1.08834e+09 1.08936e+09 1.0907e+09 0 0
293 1 0 1.09778e+09 1.09805e+09 1.09907e+09 1.10816e+09 1 0
294 1 1 1.11687e+09 1.11714e+09 1.11816e+09 1.12254e+09 1 1
295 2 1 1.13302e+09 1.13327e+09 1.13429e+09 1.13627e+09 0 0
296 2 0 1.14643e+09 1.14669e+09 1.14771e+09 1.14974e+09 1 1
297 1 1 1.18849e+09 1.18874e+09 1.18976e+09 1.18991e+09 0 1
298 2 1 1.19376e+09 1.19402e+09 1.19504e+09 1.19602e+09 0 0
299 2 0 1.22563e+09 1.22589e+09 1.22691e+09 1.22753e+09 1 1
300 1 1 1.23025e+09 1.23051e+09 1.23153e+09 1.2317e+09 0 1
301 1 0 1.23429e+09 1.23454e+09 1.23556e+09 1.23803e+09 0 0
302 1 1 1.253e+09 1.25326e+09 1.25428e+09 1.25446e+09 1 1
303 1 1 1.26656e+09 1.26683e+09 1.26785e+09 1.26794e+09 0 1
304 2 1 1.27086e+09 1.27111e+09 1.27213e+09 1.27498e+09 0 0
305 2 1 1.28378e+09 1.28404e+09 1.28506e+09 1.28595e+09 1 0
306 2 1 1.35939e+09 1.35964e+09 1.36066e+09 1.36076e+09 1 0
307 2 1 1.36894e+09 1.3692e+09 1.37022e+09 1.37041e+09 1 0
308 2 1 1.37779e+09 1.37804e+09 1.37906e+09 1.39215e+09 0 0
309 1 1 1.40012e+09 1.40037e+09 1.40139e+09 1.4014e+09 0 1
310 2 0 1.40435e+09 1.4046e+09 1.40562e+09 1.44322e+09 0 1
311 1 1 1.4728e+09 1.47305e+09 1.47407e+09 1.47412e+09 0 1
312 2 1 1.4843e+09 1.48455e+09 1.48557e+09 1.48658e+09 0 0
313 2 1 1.49367e+09 1.49392e+09 1.49494e+09 1.49735e+09 1 0
314 2 0 1.50446e+09 1.50472e+09 1.50574e+09 1.50643e+09 1 1
315 2 1 1.53208e+09 1.53233e+09 1.53335e+09 1.56263e+09 0 0
316 2 1 1.58067e+09 1.58093e+09 1.58195e+09 1.58411e+09 1 0
317 2 1 1.60068e+09 1.60093e+09 1.60195e+09 1.60291e+09 1 0
318 2 1 1.61716e+09 1.61743e+09 1.61845e+09 1.61884e+09 1 0
319 2 0 1.63636e+09 1.6366e+09 1.63762e+09 1.64405e+09 0 1
320 2 1 1.64671e+09 1.64695e+09 1.64798e+09 1.64924e+09 0 0
321 2 1 1.65781e+09 1.65806e+09 1.65908e+09 1.66065e+09 1 0
322 2 0 1.66921e+09 1.66946e+09 1.67048e+09 1.67297e+09 1 1
323 1 1 1.67563e+09 1.67589e+09 1.67691e+09 1.68516e+09 0 1
324 1 1 1.68885e+09 1.6891e+09 1.69012e+09 1.69059e+09 0 1
325 2 0 1.69476e+09 1.69502e+09 1.69604e+09 1.69804e+09 0 1
326 2 1 1.70095e+09 1.7012e+09 1.70222e+09 1.7067e+09 0 0
327 2 0 1.72248e+09 1.72274e+09 1.72376e+09 1.72384e+09 1 1
328 2 1 1.72751e+09 1.72775e+09 1.72878e+09 1.73021e+09 0 0
329 2 0 1.73728e+09 1.73753e+09 1.73855e+09 2.36456e+09 1 1
