trial trialType response stillTime stimOnset stimOffset respTime correctionTrial correct
001 1 1 6.75534e+06 7.04659e+06 8.06734e+06 2.81869e+08 0
001 002 1 0 2.87841e+08 2.88128e+08 2.89148e+08 2.97725e+08 0
000 003 1 1 3.05678e+08 3.05963e+08 3.06984e+08 3.29372e+08 1
001 004 2 0 3.3179e+08 3.32073e+08 3.33094e+08 9.64001e+08 0
001 005 1 0 9.69157e+08 9.6942e+08 9.7044e+08 9.70451e+08 0
000 006 1 0 9.77767e+08 9.78029e+08 9.7905e+08 9.79444e+08 1
000 007 1 0 9.86532e+08 9.86791e+08 9.87812e+08 9.89497e+08 1
000 008 1 0 9.9692e+08 9.97185e+08 9.98206e+08 9.98823e+08 1
000 009 2 0 1.01431e+09 1.01456e+09 1.01558e+09 1.02306e+09 0
001 010 1 1 1.03795e+09 1.03821e+09 1.03923e+09 1.03926e+09 0
001 011 1 1 1.04529e+09 1.04554e+09 1.04656e+09 1.05149e+09 0
001 012 1 0 1.05416e+09 1.05441e+09 1.05543e+09 1.05584e+09 0
000 013 1 1 1.06813e+09 1.06839e+09 1.06941e+09 1.06949e+09 1
001 014 1 1 1.07805e+09 1.07831e+09 1.07933e+09 1.07934e+09 0
001 015 2 0 1.08381e+09 1.08407e+09 1.08509e+09 1.08511e+09 0
001 016 2 0 1.08767e+09 1.08794e+09 1.08896e+09 1.08969e+09 0
001 017 1 1 1.09754e+09 1.0978e+09 1.09882e+09 1.09965e+09 0
001 018 2 0 1.10403e+09 1.10428e+09 1.1053e+09 1.10543e+09 0
001 019 1 1 1.10901e+09 1.10928e+09 1.11031e+09 1.11041e+09 0
001 020 1 1 1.1141e+09 1.11436e+09 1.11538e+09 1.11788e+09 0
001 021 2 1 1.12159e+09 1.12184e+09 1.12286e+09 1.12769e+09 0
000 022 2 1 1.14009e+09 1.14034e+09 1.14137e+09 1.14304e+09 1
000 023 2 1 1.15028e+09 1.15053e+09 1.15155e+09 1.15183e+09 1
000 024 2 0 1.15901e+09 1.15927e+09 1.16029e+09 1.16409e+09 1
001 025 1 0 1.16637e+09 1.16662e+09 1.16764e+09 1.17082e+09 0
000 026 1 0 1.17885e+09 1.17911e+09 1.18013e+09 1.18225e+09 1
000 027 1 1 1.19195e+09 1.1922e+09 1.19322e+09 1.19349e+09 1
001 028 2 1 1.19896e+09 1.19922e+09 1.20024e+09 1.20392e+09 0
000 029 2 0 1.21482e+09 1.21507e+09 1.21609e+09 1.21744e+09 1
001 030 2 1 1.22308e+09 1.22334e+09 1.22436e+09 1.22441e+09 0
000 031 2 0 1.23155e+09 1.2318e+09 1.23282e+09 1.26462e+09 1
001 032 2 1 1.26735e+09 1.2676e+09 1.26862e+09 1.27523e+09 0
000 033 2 1 1.28444e+09 1.2847e+09 1.28572e+09 1.30092e+09 1
000 034 2 1 1.30823e+09 1.30849e+09 1.30951e+09 1.31656e+09 1
000 035 2 0 1.32391e+09 1.32417e+09 1.32519e+09 1.33077e+09 1
001 036 2 0 1.33304e+09 1.33329e+09 1.33431e+09 1.33663e+09 0
001 037 1 0 1.33925e+09 1.33951e+09 1.34053e+09 1.34555e+09 0
000 038 1 1 1.35558e+09 1.35584e+09 1.35686e+09 1.35688e+09 1
001 039 1 0 1.36008e+09 1.36033e+09 1.36135e+09 1.36383e+09 0
000 040 1 0 1.37118e+09 1.37144e+09 1.37246e+09 1.3801e+09 1
000 041 1 1 1.38761e+09 1.38786e+09 1.38888e+09 1.40516e+09 1
001 042 1 1 1.40808e+09 1.40834e+09 1.40936e+09 1.42177e+09 0
001 043 1 1 1.42678e+09 1.42704e+09 1.42806e+09 1.42941e+09 0
001 044 1 0 1.43189e+09 1.43215e+09 1.43317e+09 1.44739e+09 0
000 045 1 1 1.45619e+09 1.45645e+09 1.45747e+09 1.4575e+09 1
001 046 1 1 1.45989e+09 1.46015e+09 1.46117e+09 1.46536e+09 0
001 047 1 0 1.46773e+09 1.468e+09 1.46902e+09 1.4826e+09 0
000 048 1 0 1.49348e+09 1.49374e+09 1.49476e+09 1.49478e+09 1
000 049 1 1 1.50251e+09 1.50277e+09 1.50379e+09 1.50905e+09 1
001 050 2 1 1.51302e+09 1.51327e+09 1.51429e+09 1.52033e+09 0
000 051 2 1 1.52919e+09 1.52946e+09 1.53048e+09 1.53081e+09 1
000 052 2 1 1.538e+09 1.53826e+09 1.53928e+09 1.54217e+09 1
000 053 2 1 1.55065e+09 1.5509e+09 1.55192e+09 1.55283e+09 1
000 054 1 1 1.56037e+09 1.56062e+09 1.56164e+09 1.56288e+09 0
001 055 1 1 1.56521e+09 1.56547e+09 1.56649e+09 1.58148e+09 0
001 056 2 0 1.58527e+09 1.58552e+09 1.58654e+09 1.58778e+09 0
001 057 2 1 1.59157e+09 1.59182e+09 1.59284e+09 1.60383e+09 0
000 058 2 1 1.61107e+09 1.61133e+09 1.61235e+09 1.61297e+09 1
000 059 2 1 1.62004e+09 1.62029e+09 1.62132e+09 1.62143e+09 1
000 060 2 1 1.62974e+09 1.62999e+09 1.63101e+09 1.63138e+09 1
000 061 1 1 1.63965e+09 1.63991e+09 1.64093e+09 1.64955e+09 0
001 062 2 1 1.65186e+09 1.65213e+09 1.65315e+09 1.65454e+09 0
000 063 2 1 1.66179e+09 1.66205e+09 1.66307e+09 1.66327e+09 1
000 064 2 1 1.67033e+09 1.6706e+09 1.67162e+09 1.67247e+09 1
000 065 2 1 1.68117e+09 1.68142e+09 1.68244e+09 1.68268e+09 1
000 066 1 1 1.69356e+09 1.69381e+09 1.69483e+09 1.69484e+09 0
001 067 2 0 1.70046e+09 1.70072e+09 1.70174e+09 1.7025e+09 0
001 068 1 0 1.7061e+09 1.70636e+09 1.70738e+09 1.73953e+09 0
000 069 1 0 1.7468e+09 1.74704e+09 1.74806e+09 1.74857e+09 1
000 070 1 1 1.76458e+09 1.76484e+09 1.76586e+09 1.76708e+09 1
001 071 1 1 1.77098e+09 1.77124e+09 1.77226e+09 1.77426e+09 0
001 072 2 1 1.77967e+09 1.77991e+09 1.78094e+09 1.78609e+09 0
000 073 2 1 1.79326e+09 1.79353e+09 1.79455e+09 1.79476e+09 1
000 074 2 1 1.80575e+09 1.80601e+09 1.80703e+09 1.80805e+09 1
000 075 2 1 1.81674e+09 1.81701e+09 1.81803e+09 1.84843e+09 1
000 076 2 1 1.85903e+09 1.85929e+09 1.86031e+09 1.86231e+09 0
000 077 2 1 1.86946e+09 1.86971e+09 1.87073e+09 1.87577e+09 0
000 078 2 1 1.88342e+09 1.88368e+09 1.8847e+09 1.88584e+09 0
000 079 2 0 1.89613e+09 1.89639e+09 1.89741e+09 1.8977e+09 0
001 080 1 1 1.90034e+09 1.9006e+09 1.90162e+09 1.90219e+09 0
001 081 1 0 1.90445e+09 1.90471e+09 1.90573e+09 1.90957e+09 0
000 082 1 1 1.91792e+09 1.91817e+09 1.91919e+09 1.93493e+09 1
001 083 1 1 1.93721e+09 1.93748e+09 1.9385e+09 1.96094e+09 0
001 084 1 1 1.96502e+09 1.96529e+09 1.96631e+09 1.97818e+09 0
001 085 2 1 1.98258e+09 1.98284e+09 1.98386e+09 1.98506e+09 0
000 086 2 1 1.99442e+09 1.99468e+09 1.9957e+09 1.99858e+09 1
000 087 2 1 2.0082e+09 2.00846e+09 2.00949e+09 2.01349e+09 1
000 088 2 0 2.02208e+09 2.02232e+09 2.02334e+09 2.02354e+09 1
001 089 2 1 2.02938e+09 2.02964e+09 2.03066e+09 2.03194e+09 0
000 090 2 1 2.03928e+09 2.03954e+09 2.04056e+09 2.04099e+09 1
000 091 2 0 2.04822e+09 2.04848e+09 2.0495e+09 2.05053e+09 1
001 092 1 1 2.05479e+09 2.05504e+09 2.05606e+09 2.06233e+09 0
001 093 2 0 2.06448e+09 2.06473e+09 2.06575e+09 2.07499e+09 0
001 094 2 0 2.08125e+09 2.08151e+09 2.08253e+09 2.08445e+09 0
001 095 1 1 2.08732e+09 2.08757e+09 2.08859e+09 2.08907e+09 0
001 096 2 0 2.09858e+09 2.09884e+09 2.09987e+09 2.1e+09 0
001 097 2 1 2.10383e+09 2.1041e+09 2.10512e+09 2.11082e+09 0
000 098 2 0 2.12126e+09 2.12152e+09 2.12254e+09 2.12739e+09 1
001 099 2 1 2.13677e+09 2.13703e+09 2.13805e+09 2.13861e+09 0
000 100 2 0 2.14608e+09 2.14634e+09 2.14736e+09 2.14739e+09 1
001 101 2 1 2.1528e+09 2.15307e+09 2.15409e+09 2.15481e+09 0
000 102 2 0 2.16224e+09 2.1625e+09 2.16352e+09 2.16371e+09 1
001 103 2 1 2.16747e+09 2.16772e+09 2.16874e+09 2.17675e+09 0
000 104 2 1 2.18544e+09 2.18569e+09 2.18672e+09 2.19041e+09 1
000 105 2 1 2.19759e+09 2.19784e+09 2.19886e+09 2.20046e+09 1
000 106 2 0 2.20784e+09 2.2081e+09 2.20912e+09 2.20933e+09 1
001 107 2 1 2.21264e+09 2.2129e+09 2.21392e+09 2.21573e+09 0
000 108 2 0 2.22355e+09 2.2238e+09 2.22482e+09 2.25227e+09 1
001 109 1 0 2.25472e+09 2.25497e+09 2.25599e+09 2.25609e+09 0
000 110 1 1 2.26451e+09 2.26478e+09 2.2658e+09 2.28311e+09 1
001 111 1 1 2.28538e+09 2.28564e+09 2.28666e+09 2.28758e+09 0
001 112 1 1 2.29149e+09 2.29174e+09 2.29276e+09 2.29376e+09 0
001 113 2 1 2.30434e+09 2.30461e+09 2.30563e+09 2.3062e+09 0
000 114 2 1 2.31341e+09 2.31367e+09 2.31469e+09 2.31475e+09 1
000 115 2 1 2.3219e+09 2.32217e+09 2.32319e+09 2.32365e+09 1
000 116 2 1 2.33097e+09 2.33123e+09 2.33225e+09 2.33432e+09 1
000 117 1 1 2.34157e+09 2.34183e+09 2.34285e+09 2.3483e+09 0
001 118 2 1 2.35415e+09 2.35441e+09 2.35543e+09 2.35631e+09 0
000 119 2 1 2.36417e+09 2.36442e+09 2.36544e+09 2.37515e+09 1
000 120 2 1 2.3826e+09 2.38286e+09 2.38388e+09 2.40152e+09 1
000 121 2 1 2.40882e+09 2.40907e+09 2.41009e+09 2.41356e+09 1
000 122 1 1 2.42152e+09 2.42178e+09 2.4228e+09 2.42627e+09 0
001 123 2 1 2.43319e+09 2.43345e+09 2.43447e+09 2.43636e+09 0
000 124 2 1 2.44341e+09 2.44367e+09 2.44469e+09 2.4447e+09 1
000 125 2 1 2.45506e+09 2.45531e+09 2.45633e+09 2.45682e+09 1
000 126 2 0 2.46546e+09 2.46572e+09 2.46675e+09 2.47708e+09 1
001 127 2 1 2.47934e+09 2.47961e+09 2.48063e+09 2.48071e+09 0
000 128 2 0 2.48778e+09 2.48804e+09 2.48906e+09 2.48991e+09 1
001 129 1 0 2.49558e+09 2.49583e+09 2.49685e+09 2.49733e+09 0
000 130 1 0 2.50504e+09 2.50529e+09 2.50631e+09 2.50805e+09 1
000 131 1 0 2.51553e+09 2.51578e+09 2.5168e+09 2.51695e+09 1
000 132 1 1 2.52442e+09 2.52467e+09 2.52569e+09 2.52874e+09 1
001 133 2 1 2.5349e+09 2.53515e+09 2.53618e+09 2.53677e+09 0
000 134 2 1 2.54436e+09 2.54461e+09 2.54563e+09 2.5486e+09 1
000 135 2 1 2.55686e+09 2.55711e+09 2.55813e+09 2.55893e+09 1
000 136 2 1 2.56745e+09 2.5677e+09 2.56872e+09 2.57001e+09 1
000 137 1 0 2.57729e+09 2.57755e+09 2.57857e+09 2.58056e+09 0
000 138 1 0 2.58788e+09 2.58813e+09 2.58915e+09 2.59114e+09 0
000 139 1 0 2.59899e+09 2.59924e+09 2.60026e+09 2.60463e+09 0
000 140 2 0 2.61535e+09 2.6156e+09 2.61662e+09 2.61666e+09 0
001 141 2 1 2.6215e+09 2.62176e+09 2.62278e+09 2.62617e+09 0
000 142 2 1 2.63546e+09 2.63572e+09 2.63674e+09 2.6378e+09 1
000 143 2 1 2.64507e+09 2.64533e+09 2.64635e+09 2.67233e+09 1
000 144 2 0 2.68097e+09 2.68122e+09 2.68225e+09 2.684e+09 1
001 145 1 1 2.68629e+09 2.68655e+09 2.68757e+09 2.68759e+09 0
001 146 2 1 2.69003e+09 2.69028e+09 2.6913e+09 2.69377e+09 0
000 147 2 1 2.70094e+09 2.7012e+09 2.70222e+09 2.70585e+09 1
000 148 2 1 2.71308e+09 2.71334e+09 2.71436e+09 2.71769e+09 1
000 149 2 0 2.72628e+09 2.72653e+09 2.72755e+09 2.73527e+09 1
001 150 2 0 2.73936e+09 2.73961e+09 2.74063e+09 2.75522e+09 0
001 151 2 1 2.75838e+09 2.75864e+09 2.75967e+09 2.75973e+09 0
000 152 2 0 2.76686e+09 2.76712e+09 2.76814e+09 2.77152e+09 1
001 153 1 1 2.77792e+09 2.77818e+09 2.7792e+09 2.78036e+09 0
001 154 2 0 2.78409e+09 2.78436e+09 2.78538e+09 2.78549e+09 0
001 155 2 1 2.79011e+09 2.79037e+09 2.79139e+09 2.79151e+09 0
000 156 2 0 2.79876e+09 2.79902e+09 2.80004e+09 2.80322e+09 1
001 157 2 1 2.8066e+09 2.80686e+09 2.80788e+09 2.81067e+09 0
000 158 2 1 2.81871e+09 2.81897e+09 2.81999e+09 2.82212e+09 1
000 159 2 0 2.82955e+09 2.8298e+09 2.83082e+09 2.83224e+09 1
001 160 2 0 2.83606e+09 2.83632e+09 2.83734e+09 2.84342e+09 0
001 161 1 1 2.84773e+09 2.84799e+09 2.84901e+09 2.84943e+09 0
001 162 2 1 2.85365e+09 2.85391e+09 2.85493e+09 2.85532e+09 0
000 163 2 0 2.86267e+09 2.86293e+09 2.86395e+09 2.86409e+09 1
001 164 2 1 2.86651e+09 2.86677e+09 2.86779e+09 2.86812e+09 0
000 165 2 1 2.87599e+09 2.87625e+09 2.87727e+09 2.87831e+09 1
000 166 2 1 2.88743e+09 2.88769e+09 2.88871e+09 2.89356e+09 1
000 167 2 0 2.91142e+09 2.91167e+09 2.91269e+09 2.91275e+09 1
001 168 2 1 2.92005e+09 2.92031e+09 2.92133e+09 2.92466e+09 0
000 169 2 1 2.93205e+09 2.9323e+09 2.93333e+09 2.93581e+09 1
000 170 2 1 2.94287e+09 2.94312e+09 2.94414e+09 2.94847e+09 1
000 171 2 0 2.95572e+09 2.95598e+09 2.957e+09 2.97139e+09 1
001 172 1 1 2.97674e+09 2.977e+09 2.97802e+09 2.98158e+09 0
001 173 1 0 2.98921e+09 2.98946e+09 2.99048e+09 2.9909e+09 0
000 174 1 1 2.99955e+09 2.99981e+09 3.00084e+09 3.00153e+09 1
001 175 2 1 3.01394e+09 3.0142e+09 3.01522e+09 3.0266e+09 0
000 176 2 1 3.03379e+09 3.03405e+09 3.03507e+09 3.03633e+09 1
000 177 2 1 3.04986e+09 3.05011e+09 3.05113e+09 3.05333e+09 1
000 178 2 1 3.06054e+09 3.0608e+09 3.06182e+09 3.06495e+09 1
000 179 1 1 3.07348e+09 3.07374e+09 3.07476e+09 3.07721e+09 0
001 180 1 1 3.08252e+09 3.08278e+09 3.08381e+09 3.08552e+09 0
001 181 1 1 3.09131e+09 3.09157e+09 3.09259e+09 3.09568e+09 0
001 182 1 1 3.10063e+09 3.10088e+09 3.10191e+09 3.10276e+09 0
001 183 2 0 3.10518e+09 3.10544e+09 3.10646e+09 3.11179e+09 0
001 184 1 0 3.11734e+09 3.11759e+09 3.11862e+09 3.12259e+09 0
000 185 1 0 3.13081e+09 3.13108e+09 3.1321e+09 3.13562e+09 1
000 186 1 0 3.14793e+09 3.14819e+09 3.14921e+09 3.15096e+09 1
000 187 1 0 3.16158e+09 3.16183e+09 3.16285e+09 3.16305e+09 1
000 188 1 0 3.17054e+09 3.1708e+09 3.17182e+09 3.17389e+09 0
000 189 2 0 3.18519e+09 3.18545e+09 3.18647e+09 3.18955e+09 0
001 190 1 1 3.19508e+09 3.19534e+09 3.19636e+09 3.1976e+09 0
001 191 2 1 3.19991e+09 3.20016e+09 3.20118e+09 3.20134e+09 0
000 192 2 0 3.21694e+09 3.2172e+09 3.21822e+09 3.2209e+09 1
001 193 1 0 3.2263e+09 3.22655e+09 3.22758e+09 3.23616e+09 0
000 194 1 1 3.2436e+09 3.24386e+09 3.24488e+09 3.25067e+09 1
001 195 1 1 3.25704e+09 3.25729e+09 3.25831e+09 3.2612e+09 0
001 196 1 1 3.26466e+09 3.26492e+09 3.26594e+09 3.26846e+09 0
001 197 1 1 3.27106e+09 3.27132e+09 3.27235e+09 3.27457e+09 0
001 198 1 0 3.27941e+09 3.27966e+09 3.28069e+09 3.2844e+09 0
000 199 1 0 3.29476e+09 3.29501e+09 3.29603e+09 3.29619e+09 1
000 200 1 0 3.30647e+09 3.30673e+09 3.30775e+09 3.31386e+09 1
000 201 1 0 3.33061e+09 3.33087e+09 3.33189e+09 3.33289e+09 1
000 202 1 0 3.3415e+09 3.34175e+09 3.34277e+09 3.3428e+09 0
000 203 1 0 3.35154e+09 3.35181e+09 3.35283e+09 3.35302e+09 0
000 204 2 1 3.36052e+09 3.36078e+09 3.3618e+09 3.36186e+09 0
000 205 1 0 3.36939e+09 3.36964e+09 3.37066e+09 3.3723e+09 0
000 206 1 1 3.37973e+09 3.38e+09 3.38102e+09 3.38136e+09 0
001 207 2 1 3.39158e+09 3.39183e+09 3.39285e+09 3.42202e+09 0
000 208 2 1 3.43295e+09 3.4332e+09 3.43422e+09 3.43519e+09 1
000 209 2 1 3.4438e+09 3.44405e+09 3.44507e+09 3.45445e+09 1
000 210 2 0 3.46368e+09 3.46394e+09 3.46497e+09 3.4663e+09 1
001 211 1 0 3.47068e+09 3.47094e+09 3.47196e+09 3.50753e+09 0
000 212 1 1 3.51461e+09 3.51486e+09 3.51588e+09 3.54368e+09 1
001 213 1 1 3.5508e+09 3.55106e+09 3.55208e+09 3.55417e+09 0
001 214 2 0 3.55771e+09 3.55796e+09 3.55898e+09 3.58641e+09 0
001 215 2 1 3.59508e+09 3.59534e+09 3.59636e+09 3.60097e+09 0
000 216 2 0 3.60936e+09 3.60963e+09 3.61065e+09 3.61843e+09 1
001 217 1 0 3.62321e+09 3.62347e+09 3.62449e+09 3.64087e+09 0
000 218 1 1 3.65349e+09 3.65374e+09 3.65476e+09 3.67067e+09 1
001 219 2 1 3.67425e+09 3.67452e+09 3.67554e+09 3.67731e+09 0
000 220 2 0 3.68526e+09 3.68553e+09 3.68655e+09 3.68905e+09 1
001 221 2 0 3.69255e+09 3.6928e+09 3.69382e+09 3.72469e+09 0
001 222 2 1 3.73155e+09 3.73181e+09 3.73283e+09 3.73507e+09 0
000 223 2 1 3.74654e+09 3.74681e+09 3.74783e+09 3.7554e+09 1
000 224 2 1 3.76272e+09 3.76297e+09 3.76399e+09 3.76785e+09 1
000 225 2 1 3.77515e+09 3.77541e+09 3.77643e+09 3.78047e+09 1
000 226 2 1 3.80061e+09 3.80088e+09 3.8019e+09 3.80449e+09 0
000 227 2 1 3.81882e+09 3.81909e+09 3.82011e+09 3.82152e+09 0
000 228 2 1 3.83398e+09 3.83423e+09 3.83525e+09 3.84871e+09 0
000 229 2 0 3.85585e+09 3.8561e+09 3.85712e+09 3.85866e+09 0
001 230 2 1 3.86587e+09 3.86613e+09 3.86715e+09 3.87705e+09 0
000 231 2 1 3.88542e+09 3.88568e+09 3.8867e+09 3.88827e+09 1
000 232 2 1 3.89535e+09 3.89561e+09 3.89663e+09 3.90941e+09 1
000 233 2 1 3.91653e+09 3.91678e+09 3.9178e+09 3.92374e+09 1
000 234 2 1 3.93206e+09 3.93232e+09 3.93335e+09 3.95507e+09 0
000 235 2 1 3.96242e+09 3.96268e+09 3.9637e+09 3.96695e+09 0
000 236 1 1 3.97458e+09 3.97483e+09 3.97585e+09 3.97695e+09 0
001 237 2 1 3.98369e+09 3.98394e+09 3.98496e+09 3.99232e+09 0
000 238 2 1 4.00137e+09 4.00164e+09 4.00266e+09 4.00298e+09 1
000 239 2 1 4.01125e+09 4.0115e+09 4.01253e+09 4.01519e+09 1
000 240 2 1 4.02249e+09 4.02276e+09 4.02378e+09 4.03707e+09 1
000 241 1 1 4.04508e+09 4.04534e+09 4.04636e+09 4.04891e+09 0
001 242 1 0 4.05533e+09 4.05559e+09 4.05661e+09 4.05814e+09 0
000 243 1 1 4.0665e+09 4.06675e+09 4.06777e+09 4.06871e+09 1
001 244 2 1 4.0723e+09 4.07256e+09 4.07358e+09 4.08196e+09 0
000 245 2 1 4.08947e+09 4.08973e+09 4.09075e+09 4.10629e+09 1
000 246 2 1 4.11331e+09 4.11357e+09 4.11459e+09 4.13487e+09 1
000 247 2 1 4.1453e+09 4.14556e+09 4.14658e+09 4.14671e+09 1
000 248 1 0 4.15392e+09 4.15419e+09 4.15521e+09 4.15562e+09 0
000 249 1 1 4.16296e+09 4.16323e+09 4.16425e+09 4.1656e+09 0
001 250 2 0 4.16984e+09 4.17009e+09 4.17111e+09 4.17192e+09 0
001 251 1 0 4.17634e+09 4.17659e+09 4.17761e+09 4.17963e+09 0
000 252 1 0 4.18682e+09 4.18707e+09 4.18809e+09 4.18985e+09 1
000 253 1 1 4.19805e+09 4.19831e+09 4.19933e+09 4.20447e+09 1
001 254 2 0 4.21281e+09 4.21307e+09 4.2141e+09 4.21975e+09 0
001 255 1 1 4.22791e+09 4.22818e+09 4.2292e+09 4.23669e+09 0
001 256 2 0 4.24126e+09 4.24153e+09 4.24255e+09 4.24907e+09 0
001 257 2 1 4.25659e+09 4.25685e+09 4.25787e+09 4.26249e+09 0
000 258 2 1 4.27116e+09 4.27142e+09 4.27244e+09 1.51778e+07 1
000 259 2 1 2.26376e+07 2.28918e+07 2.39125e+07 2.61244e+07 1
000 260 2 1 3.56813e+07 3.5941e+07 3.69618e+07 4.29386e+07 1
000 261 1 1 5.04443e+07 5.07052e+07 5.1726e+07 6.31463e+07 0
001 262 1 0 6.63255e+07 6.65726e+07 6.75933e+07 8.0176e+07 0
000 263 1 1 8.85289e+07 8.8791e+07 8.98117e+07 1.05953e+08 1
001 264 2 1 1.11396e+08 1.11653e+08 1.12673e+08 1.17548e+08 0
000 265 2 1 1.26378e+08 1.26625e+08 1.27645e+08 1.32797e+08 1
000 266 2 0 1.41293e+08 1.4155e+08 1.42571e+08 1.48609e+08 1
001 267 1 1 1.54885e+08 1.55145e+08 1.56166e+08 1.57449e+08 0
001 268 1 0 1.61309e+08 1.61575e+08 1.62596e+08 1.66276e+08 0
000 269 1 1 1.77183e+08 1.77429e+08 1.7845e+08 1.86971e+08 1
001 270 1 1 1.92875e+08 1.93134e+08 1.94155e+08 1.96933e+08 0
001 271 2 0 2.02608e+08 2.02872e+08 2.03893e+08 2.08679e+08 0
001 272 2 1 2.12559e+08 2.12812e+08 2.13833e+08 2.19839e+08 0
000 273 2 1 2.27082e+08 2.27334e+08 2.28355e+08 2.32465e+08 1
000 274 2 1 2.39764e+08 2.40017e+08 2.41038e+08 2.49164e+08 1
000 275 2 1 2.56271e+08 2.56516e+08 2.57537e+08 2.6339e+08 1
000 276 1 1 2.70576e+08 2.70831e+08 2.71852e+08 2.76851e+08 0
001 277 2 1 2.81125e+08 2.81373e+08 2.82394e+08 2.84415e+08 0
000 278 2 0 2.91656e+08 2.91906e+08 2.92927e+08 3.17662e+08 1
001 279 2 0 3.22619e+08 3.22873e+08 3.23893e+08 3.27951e+08 0
001 280 1 0 3.39854e+08 3.40105e+08 3.41126e+08 3.45488e+08 0
000 281 1 1 3.52996e+08 3.53258e+08 3.54279e+08 3.92316e+08 1
001 282 2 1 3.95542e+08 3.9579e+08 3.96811e+08 4.09015e+08 0
000 283 2 1 4.21103e+08 4.21362e+08 4.22383e+08 4.2937e+08 1
000 284 2 1 4.36999e+08 4.37255e+08 4.38276e+08 4.61542e+08 1
000 285 2 1 4.68582e+08 4.68832e+08 4.69853e+08 4.82506e+08 1
000 286 2 1 4.92088e+08 4.92352e+08 4.93372e+08 5.1152e+08 0
000 287 1 1 5.18872e+08 5.19131e+08 5.20152e+08 5.21179e+08 0
001 288 1 1 5.26327e+08 5.26579e+08 5.276e+08 5.36425e+08 0
001 289 2 1 5.38985e+08 5.39253e+08 5.40274e+08 5.43412e+08 0
000 290 2 1 5.50642e+08 5.50904e+08 5.51924e+08 5.56326e+08 1
000 291 2 1 5.63564e+08 5.63815e+08 5.64836e+08 5.68509e+08 1
000 292 2 1 5.76912e+08 5.7716e+08 5.78181e+08 5.90144e+08 1
000 293 1 1 5.97298e+08 5.97559e+08 5.9858e+08 6.23253e+08 0
001 294 1 0 6.35439e+08 6.35695e+08 6.36715e+08 6.40145e+08 0
000 295 1 1 6.47633e+08 6.47898e+08 6.48919e+08 6.62375e+08 1
001 296 1 1 6.68765e+08 6.69026e+08 6.70047e+08 6.70384e+08 0
001 297 2 1 6.75766e+08 6.76019e+08 6.7704e+08 6.94081e+08 0
000 298 2 0 7.01428e+08 7.0168e+08 7.02701e+08 7.04302e+08 1
001 299 1 1 7.12364e+08 7.12617e+08 7.13638e+08 7.24436e+08 0
001 300 2 0 7.29134e+08 7.29404e+08 7.30425e+08 7.40702e+08 0
001 301 1 1 7.43642e+08 7.43899e+08 7.44919e+08 7.45239e+08 0
001 302 1 0 7.54477e+08 7.54736e+08 7.55756e+08 7.55844e+08 0
000 303 1 0 7.65539e+08 7.65785e+08 7.66805e+08 7.81695e+08 1
000 304 1 1 7.89105e+08 7.89363e+08 7.90384e+08 8.31127e+08 1
001 305 1 1 8.3626e+08 8.36516e+08 8.37537e+08 8.4404e+08 0
001 306 2 1 8.4947e+08 8.49736e+08 8.50756e+08 9.024e+08 0
000 307 2 1 9.10305e+08 9.10556e+08 9.11577e+08 9.14835e+08 1
000 308 2 1 9.22151e+08 9.22402e+08 9.23423e+08 9.44137e+08 1
000 309 2 0 9.51193e+08 9.51444e+08 9.52465e+08 9.76309e+08 1
001 310 2 1 9.81155e+08 9.81418e+08 9.82438e+08 9.83538e+08 0
000 311 2 0 9.91374e+08 9.91625e+08 9.92646e+08 9.93981e+08 1
001 312 2 0 9.97379e+08 9.97639e+08 9.9866e+08 1.00293e+09 0
001 313 1 1 1.00723e+09 1.00748e+09 1.0085e+09 1.01045e+09 0
001 314 2 1 1.01413e+09 1.01439e+09 1.01541e+09 1.01996e+09 0
000 315 2 1 1.02717e+09 1.02743e+09 1.02845e+09 1.03033e+09 1
000 316 2 1 1.04178e+09 1.04205e+09 1.04307e+09 1.04401e+09 1
000 317 2 0 1.05488e+09 1.05514e+09 1.05616e+09 1.05619e+09 1
001 318 2 0 1.05879e+09 1.05905e+09 1.06007e+09 1.09789e+09 0
001 319 2 1 1.10322e+09 1.10349e+09 1.10451e+09 1.11841e+09 0
000 320 2 1 1.12557e+09 1.12582e+09 1.12684e+09 1.1414e+09 1
000 321 2 1 1.14994e+09 1.1502e+09 1.15122e+09 1.15506e+09 1
000 322 2 0 1.16289e+09 1.16314e+09 1.16416e+09 1.17162e+09 1
001 323 1 1 1.17391e+09 1.17417e+09 1.17519e+09 1.20206e+09 0
001 324 2 1 1.20484e+09 1.2051e+09 1.20612e+09 1.20923e+09 0
000 325 2 1 1.21941e+09 1.21967e+09 1.22069e+09 1.22314e+09 1
000 326 2 1 1.24609e+09 1.24634e+09 1.24736e+09 1.24935e+09 1
000 327 2 1 1.25651e+09 1.25676e+09 1.25778e+09 1.26181e+09 1
000 328 2 1 1.2691e+09 1.26936e+09 1.27038e+09 1.27052e+09 0
000 329 2 1 1.27764e+09 1.2779e+09 1.27893e+09 1.28045e+09 0
000 330 1 1 1.28832e+09 1.28856e+09 1.28958e+09 1.30514e+09 0
001 331 1 1 1.31063e+09 1.31088e+09 1.3119e+09 1.31191e+09 0
001 332 1 1 1.31582e+09 1.31608e+09 1.3171e+09 1.31956e+09 0
001 333 2 0 1.32466e+09 1.32492e+09 1.32594e+09 1.32798e+09 0
001 334 1 1 1.33219e+09 1.33245e+09 1.33347e+09 1.3345e+09 0
001 335 2 0 1.33766e+09 1.33791e+09 1.33893e+09 1.34044e+09 0
001 336 1 1 1.34633e+09 1.34658e+09 1.3476e+09 1.35405e+09 0
001 337 2 1 1.35818e+09 1.35844e+09 1.35946e+09 1.3651e+09 0
000 338 2 0 1.37454e+09 1.3748e+09 1.37582e+09 1.37592e+09 1
001 339 1 0 1.38122e+09 1.38148e+09 1.3825e+09 1.39125e+09 0
000 340 1 0 1.39872e+09 1.39898e+09 1.4e+09 1.40005e+09 1
000 341 1 1 1.40784e+09 1.4081e+09 1.40912e+09 1.42041e+09 1
001 342 2 0 1.4243e+09 1.42456e+09 1.42558e+09 1.42568e+09 0
001 343 1 1 1.42955e+09 1.42981e+09 1.43083e+09 1.43188e+09 0
001 344 2 0 1.43442e+09 1.43468e+09 1.4357e+09 1.43699e+09 0
001 345 1 1 1.43993e+09 1.44018e+09 1.4412e+09 1.44307e+09 0
001 346 1 0 1.44634e+09 1.44658e+09 1.44761e+09 1.44932e+09 0
000 347 1 0 1.45636e+09 1.45663e+09 1.45765e+09 1.45771e+09 1
000 348 1 1 1.46815e+09 1.4684e+09 1.46942e+09 1.47191e+09 1
001 349 1 1 1.47525e+09 1.47551e+09 1.47653e+09 1.47947e+09 0
001 350 2 0 1.48247e+09 1.48273e+09 1.48375e+09 1.48385e+09 0
001 351 1 0 1.48957e+09 1.48982e+09 1.49084e+09 1.52385e+09 0
000 352 1 1 1.53209e+09 1.53234e+09 1.53336e+09 1.5423e+09 1
001 353 2 1 1.54552e+09 1.54578e+09 1.54681e+09 1.54713e+09 0
000 354 2 1 1.55453e+09 1.55478e+09 1.5558e+09 1.57152e+09 1
000 355 2 1 1.57964e+09 1.5799e+09 1.58092e+09 1.58877e+09 1
000 356 2 1 1.60024e+09 1.6005e+09 1.60152e+09 1.60419e+09 1
000 357 2 1 1.61164e+09 1.6119e+09 1.61292e+09 1.61404e+09 0
000 358 2 1 1.6212e+09 1.62145e+09 1.62247e+09 1.62365e+09 0
000 359 1 1 1.63098e+09 1.63123e+09 1.63226e+09 1.63777e+09 0
001 360 2 1 1.64737e+09 1.64763e+09 1.64865e+09 1.65015e+09 0
000 361 2 1 1.65726e+09 1.65752e+09 1.65854e+09 1.65887e+09 1
000 362 2 0 1.66601e+09 1.66627e+09 1.66729e+09 1.66735e+09 1
001 363 2 0 1.6739e+09 1.67416e+09 1.67518e+09 1.68101e+09 0
001 364 1 1 1.68503e+09 1.68529e+09 1.68631e+09 1.69715e+09 0
001 365 1 1 1.70123e+09 1.70149e+09 1.70251e+09 1.70869e+09 0
001 366 1 1 1.71357e+09 1.71382e+09 1.71484e+09 1.71923e+09 0
001 367 2 1 1.72933e+09 1.72958e+09 1.7306e+09 1.73096e+09 0
000 368 2 1 1.73826e+09 1.73851e+09 1.73953e+09 1.74466e+09 1
000 369 2 1 1.75208e+09 1.75235e+09 1.75337e+09 1.75338e+09 1
000 370 2 1 1.76225e+09 1.76251e+09 1.76353e+09 1.77106e+09 1
000 371 1 0 1.77958e+09 1.77984e+09 1.78086e+09 1.78091e+09 0
000 372 2 1 1.78882e+09 1.78907e+09 1.79009e+09 1.79256e+09 0
000 373 1 1 1.804e+09 1.80426e+09 1.80528e+09 1.81011e+09 0
001 374 1 1 1.8165e+09 1.81676e+09 1.81778e+09 1.82033e+09 0
001 375 2 1 1.823e+09 1.82325e+09 1.82427e+09 1.82708e+09 0
000 376 2 1 1.83556e+09 1.83582e+09 1.83684e+09 1.83877e+09 1
000 377 2 1 1.84819e+09 1.84845e+09 1.84947e+09 1.85195e+09 1
000 378 2 1 1.86558e+09 1.86584e+09 1.86686e+09 1.87424e+09 1
000 379 2 1 1.88626e+09 1.88652e+09 1.88754e+09 1.88921e+09 0
000 380 2 1 1.89644e+09 1.89671e+09 1.89773e+09 1.89858e+09 0
000 381 1 0 1.90731e+09 1.90757e+09 1.90859e+09 1.91415e+09 0
000 382 2 1 1.92539e+09 1.92564e+09 1.92666e+09 1.93721e+09 0
000 383 1 1 1.94559e+09 1.94585e+09 1.94687e+09 1.95646e+09 0
001 384 1 0 1.95934e+09 1.9596e+09 1.96062e+09 1.96329e+09 0
000 385 1 0 1.97291e+09 1.97316e+09 1.97418e+09 1.98093e+09 1
000 386 1 0 1.99547e+09 1.99572e+09 1.99674e+09 2.00148e+09 1
000 387 1 1 2.00898e+09 2.00924e+09 2.01026e+09 2.0107e+09 1
001 388 2 0 2.01484e+09 2.0151e+09 2.01612e+09 2.02224e+09 0
001 389 1 1 2.02865e+09 2.0289e+09 2.02992e+09 2.03391e+09 0
001 390 2 0 2.04001e+09 2.04027e+09 2.04129e+09 2.04162e+09 0
001 391 2 1 2.04664e+09 2.0469e+09 2.04793e+09 2.04938e+09 0
000 392 2 1 2.05667e+09 2.05694e+09 2.05796e+09 2.05965e+09 1
000 393 2 1 2.06668e+09 2.06694e+09 2.06796e+09 2.0721e+09 1
000 394 2 0 2.07972e+09 2.07999e+09 2.08101e+09 2.09525e+09 1
001 395 2 1 2.09935e+09 2.09961e+09 2.10063e+09 2.10267e+09 0
000 396 2 0 2.11075e+09 2.111e+09 2.11202e+09 2.11255e+09 1
001 397 1 0 2.11986e+09 2.12012e+09 2.12114e+09 2.12119e+09 0
000 398 1 0 2.12927e+09 2.12951e+09 2.13053e+09 2.13238e+09 1
000 399 1 1 2.14615e+09 2.1464e+09 2.14742e+09 2.16224e+09 1
001 400 2 1 2.16498e+09 2.16523e+09 2.16625e+09 2.17555e+09 0
000 401 2 1 2.18321e+09 2.18347e+09 2.18449e+09 2.2095e+09 1
000 402 2 1 2.21749e+09 2.21774e+09 2.21876e+09 2.23379e+09 1
000 403 2 0 2.24107e+09 2.24132e+09 2.24234e+09 2.24267e+09 1
001 404 1 1 2.2455e+09 2.24575e+09 2.24677e+09 2.26067e+09 0
001 405 2 1 2.26472e+09 2.26498e+09 2.266e+09 2.27282e+09 0
000 406 2 0 2.28022e+09 2.28048e+09 2.2815e+09 2.28546e+09 1
001 407 1 0 2.28954e+09 2.2898e+09 2.29082e+09 2.29791e+09 0
000 408 1 1 2.30726e+09 2.30752e+09 2.30854e+09 2.31224e+09 1
001 409 1 1 2.31696e+09 2.31722e+09 2.31824e+09 2.32316e+09 0
001 410 2 1 2.32727e+09 2.32753e+09 2.32855e+09 2.33164e+09 0
000 411 2 1 2.34051e+09 2.34077e+09 2.34179e+09 2.34381e+09 1
000 412 2 1 2.35132e+09 2.35158e+09 2.3526e+09 2.35434e+09 1
000 413 2 1 2.36511e+09 2.36536e+09 2.36638e+09 2.36996e+09 1
000 414 1 1 2.38471e+09 2.38498e+09 2.386e+09 2.38921e+09 0
001 415 1 1 2.39633e+09 2.39658e+09 2.3976e+09 2.39797e+09 0
001 416 2 1 2.40153e+09 2.40178e+09 2.40281e+09 2.40308e+09 0
000 417 2 1 2.41555e+09 2.41581e+09 2.41683e+09 2.41859e+09 1
000 418 2 1 2.42626e+09 2.4265e+09 2.42753e+09 2.43031e+09 1
000 419 2 1 2.43762e+09 2.43787e+09 2.43889e+09 2.44054e+09 1
000 420 1 0 2.44777e+09 2.44803e+09 2.44905e+09 2.44911e+09 0
000 421 2 0 2.45865e+09 2.45891e+09 2.45994e+09 2.47206e+09 0
001 422 2 1 2.47476e+09 2.47501e+09 2.47604e+09 2.48119e+09 0
000 423 2 1 2.48842e+09 2.48868e+09 2.4897e+09 2.49561e+09 1
000 424 2 1 2.50509e+09 2.50536e+09 2.50638e+09 2.50737e+09 1
000 425 2 1 2.51446e+09 2.51471e+09 2.51573e+09 2.51757e+09 1
000 426 2 1 2.52858e+09 2.52884e+09 2.52986e+09 2.54356e+09 0
000 427 1 1 2.55073e+09 2.55099e+09 2.55201e+09 2.55385e+09 0
001 428 2 0 2.56041e+09 2.56067e+09 2.56169e+09 2.56176e+09 0
001 429 1 1 2.57016e+09 2.57042e+09 2.57144e+09 2.57357e+09 0
001 430 2 1 2.57835e+09 2.5786e+09 2.57962e+09 2.58151e+09 0
000 431 2 0 2.58859e+09 2.58883e+09 2.58986e+09 2.59005e+09 1
001 432 2 0 2.59856e+09 2.59882e+09 2.59984e+09 2.60291e+09 0
001 433 1 1 2.609e+09 2.60925e+09 2.61027e+09 2.61156e+09 0
001 434 1 1 2.61792e+09 2.61817e+09 2.61919e+09 2.61923e+09 0
001 435 1 1 2.62705e+09 2.62731e+09 2.62833e+09 2.63202e+09 0
001 436 2 1 2.63867e+09 2.63893e+09 2.63995e+09 2.63998e+09 0
000 437 2 1 2.65726e+09 2.65752e+09 2.65854e+09 2.65951e+09 1
000 438 2 1 2.66695e+09 2.66721e+09 2.66823e+09 2.6693e+09 1
000 439 2 1 2.67666e+09 2.67692e+09 2.67795e+09 2.68303e+09 1
000 440 2 0 2.691e+09 2.69126e+09 2.69228e+09 2.69229e+09 0
001 441 2 1 2.69577e+09 2.69603e+09 2.69705e+09 2.70147e+09 0
000 442 2 1 2.71322e+09 2.71348e+09 2.71451e+09 2.71641e+09 1
000 443 2 1 2.72402e+09 2.72428e+09 2.7253e+09 2.7291e+09 1
000 444 2 1 2.73624e+09 2.7365e+09 2.73752e+09 2.73774e+09 1
000 445 2 0 2.74554e+09 2.7458e+09 2.74682e+09 2.74937e+09 0
001 446 1 0 2.75218e+09 2.75244e+09 2.75346e+09 2.75414e+09 0
000 447 1 1 2.76413e+09 2.76439e+09 2.76541e+09 2.76868e+09 1
001 448 1 1 2.77111e+09 2.77136e+09 2.77238e+09 2.77734e+09 0
001 449 1 0 2.78148e+09 2.78173e+09 2.78275e+09 2.78363e+09 0
000 450 1 0 2.79133e+09 2.79158e+09 2.7926e+09 2.79266e+09 1
000 451 1 1 2.79989e+09 2.80014e+09 2.80116e+09 2.80328e+09 1
001 452 1 0 2.80686e+09 2.80711e+09 2.80814e+09 2.8086e+09 0
000 453 1 1 2.8161e+09 2.81635e+09 2.81737e+09 2.81899e+09 1
001 454 2 1 2.82482e+09 2.82507e+09 2.82609e+09 2.83294e+09 0
000 455 2 1 2.84003e+09 2.84028e+09 2.8413e+09 2.84304e+09 1
000 456 2 1 2.85014e+09 2.85039e+09 2.85141e+09 2.852e+09 1
000 457 2 1 2.85955e+09 2.85981e+09 2.86083e+09 2.8687e+09 1
000 458 2 1 2.87603e+09 2.87629e+09 2.87731e+09 2.87738e+09 0
000 459 2 1 2.88488e+09 2.88513e+09 2.88615e+09 2.89213e+09 0
000 460 2 1 2.90452e+09 2.90478e+09 2.9058e+09 2.91424e+09 0
000 461 1 1 2.92331e+09 2.92357e+09 2.92459e+09 2.93546e+09 0
001 462 2 1 2.93804e+09 2.9383e+09 2.93932e+09 2.93939e+09 0
000 463 2 1 2.94684e+09 2.9471e+09 2.94812e+09 2.94887e+09 1
000 464 2 1 2.95655e+09 2.9568e+09 2.95783e+09 2.95908e+09 1
000 465 2 1 2.9665e+09 2.96675e+09 2.96777e+09 2.96865e+09 1
000 466 1 0 2.97587e+09 2.97613e+09 2.97715e+09 2.97783e+09 0
000 467 1 0 2.98769e+09 2.98795e+09 2.98897e+09 3.00585e+09 0
000 468 1 1 3.01708e+09 3.01735e+09 3.01837e+09 3.02575e+09 0
001 469 2 1 3.03278e+09 3.03304e+09 3.03406e+09 3.04503e+09 0
000 470 2 1 3.05429e+09 3.05455e+09 3.05557e+09 3.06242e+09 1
000 471 2 1 3.07403e+09 3.07429e+09 3.07531e+09 3.08154e+09 1
000 472 2 1 3.08859e+09 3.08885e+09 3.08987e+09 3.09496e+09 1
000 473 1 1 3.10243e+09 3.10268e+09 3.1037e+09 3.12044e+09 0
001 474 2 0 3.12536e+09 3.12563e+09 3.12665e+09 3.13436e+09 0
001 475 1 0 3.14095e+09 3.14121e+09 3.14223e+09 3.15303e+09 0
000 476 1 1 3.16055e+09 3.1608e+09 3.16182e+09 3.16781e+09 1
001 477 2 1 3.17213e+09 3.1724e+09 3.17342e+09 3.17506e+09 0
000 478 2 0 3.18352e+09 3.18378e+09 3.1848e+09 3.20873e+09 1
001 479 1 0 3.21829e+09 3.21854e+09 3.21956e+09 3.21961e+09 0
000 480 1 1 3.22706e+09 3.22732e+09 3.22834e+09 3.23676e+09 1
001 481 2 0 3.23921e+09 3.23947e+09 3.24049e+09 3.24119e+09 0
001 482 1 1 3.24352e+09 3.24377e+09 3.24479e+09 3.2451e+09 0
001 483 2 1 3.2497e+09 3.24995e+09 3.25097e+09 3.25315e+09 0
000 484 2 0 3.27012e+09 3.27037e+09 3.27139e+09 3.27143e+09 1
001 485 1 0 3.27539e+09 3.27565e+09 3.27667e+09 3.27799e+09 0
000 486 1 0 3.29151e+09 3.29177e+09 3.29279e+09 3.29679e+09 1
000 487 1 0 3.30398e+09 3.30423e+09 3.30525e+09 3.31204e+09 1
000 488 1 1 3.31944e+09 3.31969e+09 3.32071e+09 3.32897e+09 1
001 489 2 0 3.33927e+09 3.33952e+09 3.34055e+09 3.34777e+09 0
001 490 2 1 3.35387e+09 3.35413e+09 3.35515e+09 3.3564e+09 0
000 491 2 0 3.36801e+09 3.36826e+09 3.36928e+09 3.36932e+09 1
001 492 1 1 3.37522e+09 3.37546e+09 3.37648e+09 3.37966e+09 0
001 493 2 1 3.3826e+09 3.38286e+09 3.38388e+09 3.38403e+09 0
000 494 2 0 3.39117e+09 3.39142e+09 3.39244e+09 3.39263e+09 1
001 495 2 1 3.39539e+09 3.39564e+09 3.39666e+09 3.3967e+09 0
000 496 2 1 3.40409e+09 3.40435e+09 3.40537e+09 3.41897e+09 1
000 497 2 0 3.4275e+09 3.42774e+09 3.42876e+09 3.4796e+09 1
001 498 1 1 3.48727e+09 3.48753e+09 3.48855e+09 3.9114e+09 0
001 