trial trialType response stillTime stimOnset stimOffset respTime correctionTrial correct
001 2 1 2.85911e+07 2.88834e+07 2.99042e+07 3.25706e+07 0 0
002 2 1 4.23895e+07 4.26664e+07 4.36872e+07 4.6835e+07 1 0
003 2 1 5.44656e+07 5.47488e+07 5.57695e+07 5.7173e+07 1 0
004 2 1 6.82312e+07 6.84945e+07 6.95152e+07 6.95422e+07 1 0
005 1 0 7.7697e+07 7.79436e+07 7.89644e+07 7.90381e+07 0 0
006 2 1 9.05984e+07 9.08596e+07 9.18803e+07 9.25682e+07 0 0
007 1 1 1.05286e+08 1.05548e+08 1.06569e+08 1.06723e+08 0 1
008 2 0 1.09683e+08 1.09941e+08 1.10961e+08 1.11565e+08 0 1
009 1 1 1.19218e+08 1.19487e+08 1.20508e+08 1.20676e+08 0 1
010 1 1 1.31109e+08 1.3137e+08 1.32391e+08 1.34528e+08 0 1
011 2 1 1.37544e+08 1.37792e+08 1.38813e+08 1.3951e+08 0 0
012 2 0 1.46713e+08 1.46963e+08 1.47983e+08 1.49181e+08 1 1
013 2 1 1.58439e+08 1.58695e+08 1.59716e+08 1.59737e+08 0 0
014 2 0 1.73655e+08 1.73911e+08 1.74932e+08 1.75337e+08 1 1
015 1 1 1.83738e+08 1.83998e+08 1.85018e+08 1.8929e+08 0 1
016 2 1 1.94559e+08 1.94819e+08 1.9584e+08 1.9791e+08 0 0
017 2 1 2.08871e+08 2.09137e+08 2.10158e+08 2.1067e+08 1 0
018 2 1 2.1979e+08 2.20058e+08 2.21079e+08 2.21989e+08 1 0
019 2 0 2.29356e+08 2.29616e+08 2.30637e+08 2.32195e+08 1 1
020 2 1 2.34876e+08 2.35131e+08 2.36151e+08 2.36181e+08 0 0
021 2 1 2.44497e+08 2.44749e+08 2.45769e+08 2.48645e+08 1 0
022 2 1 2.57095e+08 2.57349e+08 2.5837e+08 2.68554e+08 1 0
023 2 1 2.75792e+08 2.76045e+08 2.77065e+08 2.79481e+08 1 0
024 1 1 2.93553e+08 2.93812e+08 2.94832e+08 2.97618e+08 0 1
025 1 1 3.00241e+08 3.00495e+08 3.01515e+08 3.03601e+08 0 1
026 1 1 3.06599e+08 3.06864e+08 3.07885e+08 3.08466e+08 0 1
027 1 0 3.11276e+08 3.11528e+08 3.12549e+08 3.13157e+08 0 0
028 1 1 3.22052e+08 3.2232e+08 3.2334e+08 3.24026e+08 1 1
029 2 0 3.37653e+08 3.37906e+08 3.38927e+08 3.39975e+08 0 1
030 2 0 3.42873e+08 3.43139e+08 3.4416e+08 3.46029e+08 0 1
031 1 0 3.51731e+08 3.51988e+08 3.53008e+08 3.55021e+08 0 0
032 1 1 3.66798e+08 3.67058e+08 3.68079e+08 3.68666e+08 1 1
033 2 1 3.7125e+08 3.71514e+08 3.72535e+08 3.75833e+08 0 0
034 2 1 3.86769e+08 3.87016e+08 3.88037e+08 3.88537e+08 1 0
035 2 1 4.00757e+08 4.0102e+08 4.02041e+08 4.03606e+08 1 0
036 2 1 4.11746e+08 4.12003e+08 4.13023e+08 4.14459e+08 1 0
037 1 1 4.30709e+08 4.3096e+08 4.3198e+08 4.33063e+08 0 1
038 1 1 4.35813e+08 4.36059e+08 4.3708e+08 4.39358e+08 0 1
039 1 0 4.45038e+08 4.45285e+08 4.46306e+08 4.47311e+08 0 0
040 1 0 4.66586e+08 4.6684e+08 4.67861e+08 4.69753e+08 1 0
041 1 1 4.84869e+08 4.85127e+08 4.86148e+08 4.96802e+08 1 1
042 1 1 4.99463e+08 4.9971e+08 5.00731e+08 5.00736e+08 0 1
043 2 0 5.03734e+08 5.03991e+08 5.05012e+08 5.05021e+08 0 1
044 2 0 5.07858e+08 5.08123e+08 5.09144e+08 5.10596e+08 0 1
045 1 1 5.15537e+08 5.1579e+08 5.16811e+08 5.18957e+08 0 1
046 1 1 5.21801e+08 5.22054e+08 5.23075e+08 5.23668e+08 0 1
047 2 1 5.26394e+08 5.26642e+08 5.27663e+08 5.32707e+08 0 0
048 2 0 5.46076e+08 5.46339e+08 5.4736e+08 5.47907e+08 1 1
049 2 1 5.50692e+08 5.50952e+08 5.51973e+08 5.543e+08 0 0
050 2 1 5.68524e+08 5.68779e+08 5.698e+08 5.70131e+08 1 0
051 2 0 5.79376e+08 5.79632e+08 5.80653e+08 5.82737e+08 1 1
052 1 1 5.85393e+08 5.85663e+08 5.86683e+08 5.93619e+08 0 1
053 2 0 6.05997e+08 6.06254e+08 6.07275e+08 6.09802e+08 0 1
054 1 1 6.15874e+08 6.16124e+08 6.17145e+08 6.17316e+08 0 1
055 2 0 6.21866e+08 6.22114e+08 6.23135e+08 6.26728e+08 0 1
056 1 1 6.31906e+08 6.32157e+08 6.33178e+08 6.34226e+08 0 1
057 2 0 6.42834e+08 6.43104e+08 6.44125e+08 6.44697e+08 0 1
058 2 0 6.47499e+08 6.47759e+08 6.4878e+08 6.49361e+08 0 1
059 1 0 6.52096e+08 6.52357e+08 6.53378e+08 6.56781e+08 0 0
060 1 1 6.70756e+08 6.71022e+08 6.72042e+08 6.72265e+08 1 1
061 2 1 6.7508e+08 6.75339e+08 6.7636e+08 6.76864e+08 0 0
062 2 1 6.86991e+08 6.87252e+08 6.88272e+08 6.88907e+08 1 0
063 2 1 6.96465e+08 6.96711e+08 6.97732e+08 6.99398e+08 1 0
064 2 1 7.10531e+08 7.10783e+08 7.11804e+08 7.12491e+08 1 0
065 1 1 7.23712e+08 7.23973e+08 7.24994e+08 7.26822e+08 0 1
066 2 1 7.41017e+08 7.41282e+08 7.42303e+08 7.46591e+08 0 0
067 2 1 7.65521e+08 7.65789e+08 7.66809e+08 7.67181e+08 1 0
068 2 1 7.89229e+08 7.89486e+08 7.90506e+08 7.90599e+08 1 0
069 2 0 8.01975e+08 8.02237e+08 8.03258e+08 8.03599e+08 1 1
070 1 0 8.0664e+08 8.06885e+08 8.07906e+08 8.08136e+08 0 0
071 1 1 8.21998e+08 8.22261e+08 8.23282e+08 8.24464e+08 1 1
072 2 0 8.34838e+08 8.35095e+08 8.36116e+08 8.38696e+08 0 1
073 1 0 8.41889e+08 8.42144e+08 8.43165e+08 8.44081e+08 0 0
074 1 1 8.51131e+08 8.51395e+08 8.52416e+08 8.54347e+08 1 1
075 1 1 8.58829e+08 8.5909e+08 8.60111e+08 8.63125e+08 0 1
076 2 1 8.6775e+08 8.68004e+08 8.69025e+08 8.69471e+08 0 0
077 2 0 8.76581e+08 8.76845e+08 8.77865e+08 8.79186e+08 1 1
078 1 1 8.81827e+08 8.82087e+08 8.83108e+08 8.83595e+08 0 1
079 1 0 8.86509e+08 8.8676e+08 8.87781e+08 8.89682e+08 0 0
080 1 1 8.98577e+08 8.98833e+08 8.99854e+08 9.01731e+08 1 1
081 2 1 9.09813e+08 9.10068e+08 9.11089e+08 9.1221e+08 0 0
082 2 0 9.1933e+08 9.19595e+08 9.20615e+08 9.28102e+08 1 1
083 1 1 9.3424e+08 9.34509e+08 9.3553e+08 9.37576e+08 0 1
084 2 0 9.40084e+08 9.40335e+08 9.41355e+08 9.41419e+08 0 1
085 1 0 9.44108e+08 9.44367e+08 9.45388e+08 9.46399e+08 0 0
086 1 0 9.53628e+08 9.5389e+08 9.54911e+08 9.55316e+08 1 0
087 1 1 9.63914e+08 9.64173e+08 9.65193e+08 9.66917e+08 1 1
088 1 1 9.69829e+08 9.70084e+08 9.71104e+08 9.72873e+08 0 1
089 1 1 9.75842e+08 9.76109e+08 9.77129e+08 9.79352e+08 0 1
090 2 1 9.82166e+08 9.8241e+08 9.83431e+08 9.83738e+08 0 0
091 2 0 9.92219e+08 9.9248e+08 9.93501e+08 9.96568e+08 1 1
092 1 1 9.99205e+08 9.99467e+08 1.00049e+09 1.00168e+09 0 1
093 1 0 1.00568e+09 1.00594e+09 1.00696e+09 1.00758e+09 0 0
094 1 1 1.015e+09 1.01526e+09 1.01628e+09 1.01735e+09 1 1
095 2 1 1.0201e+09 1.02035e+09 1.02137e+09 1.02156e+09 0 0
096 2 1 1.0314e+09 1.03166e+09 1.03268e+09 1.03283e+09 1 0
097 2 0 1.04009e+09 1.04033e+09 1.04135e+09 1.04159e+09 1 1
098 2 1 1.04454e+09 1.04479e+09 1.04581e+09 1.04583e+09 0 0
099 2 0 1.05462e+09 1.05487e+09 1.05589e+09 1.05732e+09 1 1
100 2 1 1.06403e+09 1.06428e+09 1.0653e+09 1.06853e+09 0 0
101 2 1 1.07557e+09 1.07584e+09 1.07686e+09 1.07766e+09 1 0
102 2 1 1.08829e+09 1.08855e+09 1.08957e+09 1.09477e+09 1 0
103 2 1 1.11065e+09 1.1109e+09 1.11192e+09 1.11327e+09 1 0
104 2 1 1.14189e+09 1.14214e+09 1.14316e+09 1.14331e+09 0 0
105 2 1 1.15414e+09 1.1544e+09 1.15542e+09 1.1576e+09 0 0
106 2 1 1.1704e+09 1.17066e+09 1.17168e+09 1.17674e+09 0 0
107 2 0 1.19316e+09 1.19342e+09 1.19444e+09 1.19561e+09 0 1
108 2 0 1.1985e+09 1.19875e+09 1.19977e+09 1.20015e+09 0 1
109 1 1 1.20296e+09 1.20321e+09 1.20423e+09 1.20593e+09 0 1
110 1 1 1.20883e+09 1.20908e+09 1.2101e+09 1.21477e+09 0 1
111 2 0 1.21748e+09 1.21774e+09 1.21876e+09 1.22141e+09 0 1
112 2 1 1.23051e+09 1.23076e+09 1.23178e+09 1.23612e+09 0 0
113 2 1 1.2434e+09 1.24365e+09 1.24467e+09 1.24902e+09 1 0
114 2 0 1.25622e+09 1.25649e+09 1.25751e+09 1.27761e+09 1 1
115 2 1 1.28292e+09 1.28317e+09 1.28419e+09 1.28571e+09 0 0
116 2 1 1.29304e+09 1.29331e+09 1.29433e+09 1.32369e+09 1 0
117 2 1 1.33201e+09 1.33227e+09 1.33329e+09 1.3647e+09 1 0
118 2 0 1.37333e+09 1.3736e+09 1.37462e+09 1.37904e+09 1 1
119 1 1 1.38205e+09 1.38231e+09 1.38333e+09 1.39761e+09 0 1
120 2 0 1.40338e+09 1.40364e+09 1.40466e+09 1.42032e+09 0 1
121 2 0 1.42538e+09 1.42564e+09 1.42666e+09 1.42978e+09 0 1
122 1 1 1.4397e+09 1.43996e+09 1.44098e+09 1.44166e+09 0 1
123 1 1 1.44425e+09 1.4445e+09 1.44552e+09 1.44865e+09 0 1
124 2 1 1.45127e+09 1.45153e+09 1.45256e+09 1.45868e+09 0 0
125 2 1 1.46983e+09 1.47008e+09 1.4711e+09 1.47486e+09 1 0
126 2 0 1.50002e+09 1.50028e+09 1.5013e+09 1.50365e+09 1 1
127 1 1 1.50842e+09 1.50867e+09 1.50969e+09 1.51775e+09 0 1
128 1 0 1.52028e+09 1.52055e+09 1.52157e+09 1.5294e+09 0 0
129 1 1 1.53716e+09 1.53742e+09 1.53844e+09 1.54518e+09 1 1
130 2 0 1.54815e+09 1.5484e+09 1.54942e+09 1.55258e+09 0 1
131 2 0 1.55657e+09 1.55683e+09 1.55785e+09 1.56508e+09 0 1
132 2 1 1.56795e+09 1.56821e+09 1.56923e+09 1.57909e+09 0 0
133 2 1 1.5862e+09 1.58646e+09 1.58748e+09 1.59369e+09 1 0
134 2 0 1.60965e+09 1.6099e+09 1.61093e+09 1.61413e+09 1 1
135 1 1 1.61691e+09 1.61717e+09 1.6182e+09 1.6224e+09 0 1
136 2 1 1.65279e+09 1.65306e+09 1.65408e+09 1.65831e+09 0 0
137 2 0 1.66555e+09 1.66581e+09 1.66683e+09 1.6692e+09 1 1
138 2 0 1.67192e+09 1.67219e+09 1.67321e+09 1.67816e+09 0 1
139 1 0 1.68255e+09 1.6828e+09 1.68382e+09 1.70205e+09 0 0
140 1 1 1.72074e+09 1.72099e+09 1.72201e+09 1.72374e+09 1 1
141 1 1 1.73023e+09 1.73049e+09 1.73151e+09 1.73243e+09 0 1
142 1 1 1.74977e+09 1.75004e+09 1.75106e+09 1.75176e+09 0 1
143 1 1 1.75451e+09 1.75477e+09 1.75579e+09 1.75757e+09 0 1
144 2 0 1.76785e+09 1.76811e+09 1.76913e+09 1.77439e+09 0 1
145 2 0 1.77703e+09 1.77727e+09 1.77829e+09 1.78685e+09 0 1
146 2 1 1.79967e+09 1.79993e+09 1.80095e+09 1.80115e+09 0 0
147 2 1 1.82559e+09 1.82585e+09 1.82687e+09 1.82733e+09 1 0
148 2 1 1.83777e+09 1.83803e+09 1.83905e+09 1.83988e+09 1 0
149 2 1 1.84724e+09 1.84751e+09 1.84853e+09 1.88106e+09 1 0
150 2 1 1.88967e+09 1.88992e+09 1.89094e+09 1.89445e+09 0 0
151 1 1 1.90694e+09 1.9072e+09 1.90822e+09 1.91054e+09 0 1
152 1 0 1.91691e+09 1.91718e+09 1.9182e+09 1.91829e+09 0 0
153 1 1 1.92541e+09 1.92568e+09 1.9267e+09 1.92681e+09 1 1
154 1 1 1.9336e+09 1.93385e+09 1.93487e+09 1.93495e+09 0 1
155 1 0 1.93792e+09 1.93818e+09 1.93921e+09 1.94188e+09 0 0
156 1 0 1.95774e+09 1.958e+09 1.95902e+09 1.97672e+09 1 0
157 1 0 2.0068e+09 2.00707e+09 2.00809e+09 2.02002e+09 1 0
158 1 0 2.02732e+09 2.02758e+09 2.0286e+09 2.05909e+09 1 0
159 2 0 2.07778e+09 2.07803e+09 2.07905e+09 2.08341e+09 0 1
160 1 1 2.08785e+09 2.0881e+09 2.08912e+09 2.09136e+09 0 1
161 2 0 2.094e+09 2.09425e+09 2.09527e+09 2.10199e+09 0 1
162 1 1 2.10451e+09 2.10477e+09 2.10579e+09 2.10775e+09 0 1
163 1 0 2.1107e+09 2.11096e+09 2.11198e+09 2.11839e+09 0 0
164 1 0 2.12568e+09 2.12593e+09 2.12695e+09 2.14493e+09 1 0
165 1 1 2.1543e+09 2.15455e+09 2.15557e+09 2.15944e+09 1 1
166 2 0 2.16203e+09 2.1623e+09 2.16332e+09 2.16486e+09 0 1
167 2 0 2.16759e+09 2.16785e+09 2.16887e+09 2.17643e+09 0 1
168 1 1 2.1793e+09 2.17956e+09 2.18058e+09 2.18398e+09 0 1
169 1 1 2.18687e+09 2.18713e+09 2.18815e+09 2.20606e+09 0 1
170 2 1 2.20861e+09 2.20887e+09 2.20989e+09 2.21205e+09 0 0
171 2 1 2.22933e+09 2.22958e+09 2.2306e+09 2.31605e+09 1 0
172 2 0 2.32347e+09 2.32373e+09 2.32476e+09 2.34289e+09 1 1
173 2 0 2.34577e+09 2.34602e+09 2.34704e+09 2.34762e+09 0 1
174 1 1 2.35699e+09 2.35727e+09 2.35829e+09 2.35847e+09 0 1
175 1 1 2.36131e+09 2.36157e+09 2.36259e+09 2.36291e+09 0 1
176 2 0 2.37601e+09 2.37627e+09 2.37729e+09 2.38813e+09 0 1
177 2 1 2.3907e+09 2.39095e+09 2.39197e+09 2.39229e+09 0 0
178 2 0 2.40264e+09 2.4029e+09 2.40392e+09 2.40484e+09 1 1
179 2 1 2.40748e+09 2.40774e+09 2.40877e+09 2.41057e+09 0 0
180 2 0 2.41806e+09 2.41835e+09 2.41937e+09 2.42109e+09 1 1
181 1 1 2.424e+09 2.42427e+09 2.42529e+09 2.42648e+09 0 1
182 2 1 2.42997e+09 2.43022e+09 2.43124e+09 2.44356e+09 0 0
183 2 1 2.47375e+09 2.474e+09 2.47502e+09 2.47549e+09 1 0
184 2 1 2.48488e+09 2.48513e+09 2.48615e+09 2.49415e+09 1 0
185 2 1 2.50213e+09 2.50239e+09 2.50341e+09 2.50686e+09 1 0
186 1 1 2.52096e+09 2.52123e+09 2.52225e+09 2.52288e+09 0 1
187 2 1 2.5378e+09 2.53807e+09 2.53909e+09 2.5413e+09 0 0
188 2 1 2.55519e+09 2.55545e+09 2.55647e+09 2.56163e+09 1 0
189 2 1 2.56886e+09 2.56911e+09 2.57013e+09 2.5702e+09 1 0
190 2 1 2.57864e+09 2.5789e+09 2.57992e+09 2.58363e+09 1 0
191 2 1 2.59146e+09 2.59172e+09 2.59274e+09 2.59349e+09 0 0
192 1 0 2.60105e+09 2.60131e+09 2.60233e+09 2.60252e+09 0 0
193 1 1 2.61527e+09 2.61553e+09 2.61655e+09 2.61891e+09 0 1
194 1 1 2.62185e+09 2.62209e+09 2.62311e+09 2.62344e+09 0 1
195 2 1 2.62821e+09 2.62847e+09 2.62949e+09 2.63279e+09 0 0
196 2 1 2.64072e+09 2.64099e+09 2.64201e+09 2.65857e+09 1 0
197 2 1 2.668e+09 2.66825e+09 2.66927e+09 2.66981e+09 1 0
198 2 0 2.69164e+09 2.6919e+09 2.69292e+09 2.69567e+09 1 1
199 1 1 2.70186e+09 2.70212e+09 2.70314e+09 2.71497e+09 0 1
200 2 1 2.71765e+09 2.7179e+09 2.71892e+09 2.72309e+09 0 0
201 2 1 2.73077e+09 2.73103e+09 2.73205e+09 2.74219e+09 1 0
202 2 0 2.7552e+09 2.75546e+09 2.75648e+09 2.77299e+09 1 1
203 1 0 2.7838e+09 2.78405e+09 2.78507e+09 2.78542e+09 0 0
204 1 1 2.794e+09 2.79425e+09 2.79527e+09 2.81016e+09 1 1
205 2 1 2.81288e+09 2.81315e+09 2.81417e+09 2.81819e+09 0 0
206 2 0 2.84057e+09 2.84083e+09 2.84185e+09 2.84392e+09 1 1
207 2 0 2.84693e+09 2.84719e+09 2.84821e+09 2.85994e+09 0 1
208 2 0 2.86325e+09 2.86351e+09 2.86453e+09 2.86489e+09 0 1
209 1 1 2.86757e+09 2.86783e+09 2.86885e+09 2.8701e+09 0 1
210 1 1 2.87326e+09 2.87352e+09 2.87454e+09 2.87676e+09 0 1
211 2 1 2.88835e+09 2.8886e+09 2.88962e+09 2.89104e+09 0 0
212 2 1 2.89812e+09 2.89837e+09 2.89939e+09 2.90575e+09 1 0
213 2 0 2.91771e+09 2.91796e+09 2.91898e+09 2.92187e+09 1 1
214 1 1 2.92459e+09 2.92486e+09 2.92588e+09 2.93007e+09 0 1
215 1 1 2.93276e+09 2.93301e+09 2.93403e+09 2.9344e+09 0 1
216 1 1 2.93714e+09 2.93739e+09 2.93841e+09 2.95061e+09 0 1
217 2 1 2.95344e+09 2.9537e+09 2.95472e+09 2.95529e+09 0 0
218 2 0 2.97198e+09 2.97224e+09 2.97326e+09 2.97806e+09 1 1
219 1 1 2.98084e+09 2.98109e+09 2.98211e+09 2.98394e+09 0 1
220 1 1 2.98658e+09 2.98684e+09 2.98786e+09 2.99038e+09 0 1
221 1 0 3.00439e+09 3.00465e+09 3.00567e+09 3.00574e+09 0 0
222 1 0 3.01461e+09 3.01487e+09 3.01589e+09 3.01933e+09 1 0
223 1 0 3.02818e+09 3.02843e+09 3.02945e+09 3.04066e+09 1 0
224 1 0 3.04961e+09 3.04987e+09 3.05089e+09 3.05748e+09 1 0
225 2 1 3.06533e+09 3.06559e+09 3.06661e+09 3.06948e+09 0 0
226 1 0 3.07722e+09 3.07747e+09 3.07849e+09 3.08003e+09 0 0
227 1 0 3.09396e+09 3.09422e+09 3.09524e+09 3.09636e+09 0 0
228 2 1 3.1056e+09 3.10587e+09 3.10689e+09 3.10991e+09 0 0
229 2 0 3.11706e+09 3.11733e+09 3.11835e+09 3.12037e+09 0 1
230 2 1 3.14176e+09 3.14201e+09 3.14303e+09 3.14412e+09 0 0
231 2 1 3.15818e+09 3.15842e+09 3.15945e+09 3.16542e+09 1 0
232 2 1 3.18287e+09 3.18312e+09 3.18414e+09 3.18854e+09 1 0
233 2 0 3.20341e+09 3.20367e+09 3.20469e+09 3.20489e+09 1 1
234 1 1 3.23721e+09 3.23748e+09 3.23851e+09 3.2388e+09 0 1
235 1 0 3.2681e+09 3.26836e+09 3.26938e+09 3.27057e+09 0 0
236 1 0 3.27788e+09 3.27814e+09 3.27916e+09 3.27998e+09 1 0
237 1 0 3.30583e+09 3.30608e+09 3.3071e+09 3.32242e+09 1 0
238 1 1 3.33116e+09 3.33142e+09 3.33244e+09 3.33308e+09 1 1
239 2 1 3.34001e+09 3.34027e+09 3.34129e+09 3.34714e+09 0 0
240 2 1 3.35455e+09 3.35481e+09 3.35583e+09 3.37269e+09 1 0
241 2 1 3.38199e+09 3.38224e+09 3.38326e+09 3.39841e+09 1 0
242 2 0 3.40589e+09 3.40616e+09 3.40718e+09 3.40764e+09 1 1
243 2 1 3.42597e+09 3.42623e+09 3.42725e+09 3.42794e+09 0 0
244 2 1 3.43498e+09 3.43523e+09 3.43625e+09 3.43674e+09 1 0
245 2 0 3.45704e+09 3.4573e+09 3.45833e+09 3.45861e+09 1 1
246 1 1 3.4648e+09 3.46507e+09 3.46609e+09 3.48026e+09 0 1
247 2 1 3.48934e+09 3.4896e+09 3.49062e+09 3.4976e+09 0 0
248 2 1 3.50991e+09 3.51017e+09 3.51119e+09 3.51447e+09 1 0
249 2 1 3.53e+09 3.53027e+09 3.53129e+09 3.53189e+09 1 0
250 2 1 3.55471e+09 3.55497e+09 3.55599e+09 3.55605e+09 1 0
251 2 1 3.57305e+09 3.5733e+09 3.57432e+09 3.57548e+09 0 0
252 1 1 3.5829e+09 3.58316e+09 3.58418e+09 3.63811e+09 0 1
253 1 1 3.6536e+09 3.65386e+09 3.65488e+09 3.65562e+09 0 1
254 1 1 3.65864e+09 3.6589e+09 3.65992e+09 3.66359e+09 0 1
255 2 0 3.66626e+09 3.66653e+09 3.66755e+09 3.68164e+09 0 1
256 2 1 3.68452e+09 3.68478e+09 3.6858e+09 3.73434e+09 0 0
257 2 1 3.76561e+09 3.76588e+09 3.7669e+09 3.76763e+09 1 0
258 2 1 3.77627e+09 3.77653e+09 3.77755e+09 3.77998e+09 1 0
259 2 0 3.78885e+09 3.78911e+09 3.79013e+09 3.79321e+09 1 1
260 2 0 3.80771e+09 3.80797e+09 3.80899e+09 3.81636e+09 0 1
261 2 0 3.84405e+09 3.84431e+09 3.84533e+09 3.85199e+09 0 1
262 2 1 3.87537e+09 3.87562e+09 3.87665e+09 3.87958e+09 0 0
263 2 1 3.89263e+09 3.89287e+09 3.89389e+09 3.89537e+09 1 0
264 2 1 3.9032e+09 3.90345e+09 3.90447e+09 3.90803e+09 1 0
265 2 0 3.91971e+09 3.91996e+09 3.92098e+09 3.93497e+09 1 1
266 1 1 3.93809e+09 3.93836e+09 3.93938e+09 3.94003e+09 0 1
267 2 0 3.95027e+09 3.95053e+09 3.95155e+09 3.95257e+09 0 1
268 2 0 3.95537e+09 3.95563e+09 3.95665e+09 3.959e+09 0 1
269 1 0 3.96178e+09 3.96204e+09 3.96306e+09 3.97454e+09 0 0
270 1 0 3.98198e+09 3.98224e+09 3.98326e+09 3.98685e+09 1 0
271 1 1 4.00194e+09 4.0022e+09 4.00322e+09 4.00808e+09 1 1
272 2 1 4.01089e+09 4.01114e+09 4.01216e+09 4.01565e+09 0 0
273 2 1 4.03813e+09 4.03839e+09 4.03941e+09 4.04057e+09 1 0
274 2 0 4.06224e+09 4.0625e+09 4.06352e+09 4.07273e+09 1 1
275 1 0 4.07581e+09 4.07607e+09 4.07709e+09 4.07786e+09 0 0
276 1 1 4.08499e+09 4.08525e+09 4.08627e+09 4.08646e+09 1 1
277 2 0 4.08914e+09 4.0894e+09 4.09042e+09 4.09173e+09 0 1
278 2 0 4.09479e+09 4.09505e+09 4.09607e+09 4.10887e+09 0 1
279 1 1 4.11231e+09 4.11258e+09 4.1136e+09 4.11611e+09 0 1
280 1 0 4.1486e+09 4.14886e+09 4.14988e+09 4.15042e+09 0 0
281 1 1 4.16113e+09 4.16138e+09 4.1624e+09 4.16246e+09 1 1
282 1 1 4.18209e+09 4.18235e+09 4.18337e+09 4.18338e+09 0 1
283 1 0 4.18738e+09 4.18764e+09 4.18866e+09 4.19426e+09 0 0
284 1 1 4.20637e+09 4.20662e+09 4.20764e+09 4.20766e+09 1 1
285 2 1 4.2102e+09 4.21046e+09 4.21148e+09 4.21209e+09 0 0
286 2 0 4.22233e+09 4.22259e+09 4.22361e+09 4.25083e+09 1 1
287 1 0 4.2536e+09 4.25385e+09 4.25487e+09 4.26945e+09 0 0
288 1 1 4.27657e+09 4.27683e+09 4.27785e+09 4.28063e+09 1 1
289 2 1 4.28381e+09 4.28407e+09 4.28509e+09 4.29326e+09 0 0
290 2 0 1.6725e+07 1.69903e+07 1.8011e+07 1.84301e+07 1 1
291 2 1 3.4899e+07 3.51621e+07 3.61829e+07 3.63378e+07 0 0
292 2 1 4.34913e+07 4.37391e+07 4.47599e+07 6.01316e+07 1 0
293 2 1 6.72113e+07 6.74568e+07 6.84775e+07 6.91679e+07 1 0
294 2 0 8.78838e+07 8.81419e+07 8.91627e+07 9.26324e+07 1 1
295 1 0 1.68978e+08 1.69232e+08 1.70253e+08 1.72107e+08 0 0
296 1 0 1.93796e+08 1.94041e+08 1.95061e+08 1.9572e+08 1 0
297 1 1 2.11293e+08 2.11554e+08 2.12575e+08 2.13315e+08 1 1
298 1 1 2.16178e+08 2.16442e+08 2.17463e+08 2.23338e+08 0 1
299 2 1 2.51083e+08 2.51347e+08 2.52368e+08 2.53245e+08 0 0
300 2 1 2.65662e+08 2.65919e+08 2.6694e+08 2.67126e+08 1 0
301 2 1 2.78043e+08 2.783e+08 2.79321e+08 2.84066e+08 1 0
302 2 1 2.91563e+08 2.9181e+08 2.92831e+08 2.96374e+08 1 0
303 1 1 3.09472e+08 3.09729e+08 3.10749e+08 3.15175e+08 0 1
304 1 1 3.33122e+08 3.33389e+08 3.3441e+08 3.3494e+08 0 1
305 1 0 3.37894e+08 3.38152e+08 3.39173e+08 3.39789e+08 0 0
306 1 1 3.47271e+08 3.47524e+08 3.48545e+08 3.61661e+08 1 1
307 2 1 3.65452e+08 3.6572e+08 3.66741e+08 3.6774e+08 0 0
308 2 1 3.8838e+08 3.88632e+08 3.89653e+08 3.90516e+08 1 0
309 2 1 3.97586e+08 3.97846e+08 3.98867e+08 4.14963e+08 1 0
310 2 1 4.35352e+08 4.35608e+08 4.36629e+08 4.36844e+08 1 0
311 2 1 4.46998e+08 4.47256e+08 4.48276e+08 4.51919e+08 0 0
312 2 1 4.67024e+08 4.6728e+08 4.68301e+08 4.68304e+08 0 0
313 2 1 4.75485e+08 4.75743e+08 4.76763e+08 4.77562e+08 0 0
314 1 1 4.90523e+08 4.90777e+08 4.91798e+08 4.92003e+08 0 1
315 2 1 4.94727e+08 4.94981e+08 4.96002e+08 4.98676e+08 0 0
316 2 1 5.2586e+08 5.26115e+08 5.27136e+08 5.27647e+08 1 0
317 2 1 5.35764e+08 5.36015e+08 5.37036e+08 5.38069e+08 1 0
318 2 0 5.67262e+08 5.67517e+08 5.68537e+08 5.68952e+08 1 1
319 1 1 5.91988e+08 5.92237e+08 5.93257e+08 6.11649e+08 0 1
320 2 0 6.26107e+08 6.26357e+08 6.27378e+08 6.29337e+08 0 1
321 2 1 6.51001e+08 6.51257e+08 6.52277e+08 6.53465e+08 0 0
322 2 1 6.64605e+08 6.64873e+08 6.65894e+08 6.71469e+08 1 0
323 2 1 6.78645e+08 6.78902e+08 6.79922e+08 7.03046e+08 1 0
324 2 1 7.1702e+08 7.17267e+08 7.18287e+08 7.21654e+08 1 0
325 2 1 7.32034e+08 7.32285e+08 7.33305e+08 7.41447e+08 0 0
326 1 0 7.51582e+08 7.51842e+08 7.52863e+08 7.53134e+08 0 0
327 2 1 7.60354e+08 7.60614e+08 7.61635e+08 7.62252e+08 0 0
328 1 1 7.70424e+08 7.70676e+08 7.71697e+08 7.87341e+08 0 1
329 1 1 7.93707e+08 7.93968e+08 7.94988e+08 7.95294e+08 0 1
330 2 1 8.00578e+08 8.00832e+08 8.01853e+08 8.04043e+08 0 0
331 2 1 8.13062e+08 8.1332e+08 8.14341e+08 8.14703e+08 1 0
332 2 1 8.22108e+08 8.22354e+08 8.23375e+08 8.31009e+08 1 0
333 2 1 8.39851e+08 8.40109e+08 8.41129e+08 8.44938e+08 1 0
334 1 1 8.54284e+08 8.54533e+08 8.55553e+08 8.57564e+08 0 1
335 1 0 8.60465e+08 8.60716e+08 8.61737e+08 8.64664e+08 0 0
336 1 1 8.74087e+08 8.74346e+08 8.75366e+08 8.77306e+08 1 1
337 2 1 8.80768e+08 8.81022e+08 8.82043e+08 8.9096e+08 0 0
338 2 1 8.9845e+08 8.98707e+08 8.99728e+08 9.01449e+08 1 0
339 2 1 9.1478e+08 9.15036e+08 9.16057e+08 9.18708e+08 1 0
340 2 1 9.26185e+08 9.26435e+08 9.27455e+08 9.72698e+08 1 0
341 1 1 9.85442e+08 9.8569e+08 9.86711e+08 9.89041e+08 0 1
342 1 1 9.91808e+08 9.92063e+08 9.93084e+08 9.9386e+08 0 1
343 2 1 1.00039e+09 1.00066e+09 1.00168e+09 1.00262e+09 0 0
344 2 1 1.0182e+09 1.01844e+09 1.01946e+09 1.03559e+09 1 0
345 2 1 1.04272e+09 1.04298e+09 1.044e+09 1.04657e+09 1 0
346 2 1 1.0561e+09 1.05636e+09 1.05738e+09 1.06202e+09 1 0
347 2 1 1.0691e+09 1.06935e+09 1.07037e+09 1.08027e+09 0 0
348 1 1 1.08778e+09 1.08804e+09 1.08906e+09 1.09755e+09 0 1
349 2 1 1.10135e+09 1.1016e+09 1.10262e+09 1.10316e+09 0 0
350 2 0 1.1299e+09 1.13015e+09 1.13118e+09 1.13544e+09 1 1
351 2 1 1.14145e+09 1.14171e+09 1.14273e+09 1.14417e+09 0 0
352 2 1 1.15133e+09 1.15159e+09 1.15261e+09 1.15489e+09 1 0
353 2 1 1.16751e+09 1.16776e+09 1.16878e+09 1.17081e+09 1 0
354 2 1 1.17819e+09 1.17845e+09 1.17947e+09 1.18244e+09 1 0
355 1 0 1.18989e+09 1.19015e+09 1.19117e+09 1.19224e+09 0 0
356 2 1 1.19974e+09 1.2e+09 1.20102e+09 1.20846e+09 0 0
357 2 1 1.21845e+09 1.2187e+09 1.21972e+09 1.23237e+09 0 0
358 1 1 1.23954e+09 1.23979e+09 1.24081e+09 1.24115e+09 0 1
359 2 1 1.24809e+09 1.24834e+09 1.24936e+09 1.30154e+09 0 0
360 2 1 1.30858e+09 1.30883e+09 1.30985e+09 1.32242e+09 1 0
361 2 1 1.33443e+09 1.33468e+09 1.3357e+09 1.33889e+09 1 0
362 2 0 1.34631e+09 1.34656e+09 1.34758e+09 1.35887e+09 1 1
363 2 1 1.36266e+09 1.36292e+09 1.36394e+09 1.3647e+09 0 0
364 2 0 1.3727e+09 1.37296e+09 1.37398e+09 1.37771e+09 1 1
365 1 1 1.38067e+09 1.38092e+09 1.38194e+09 1.38447e+09 0 1
366 2 1 1.38748e+09 1.38774e+09 1.38876e+09 1.39376e+09 0 0
367 2 1 1.4034e+09 1.40366e+09 1.40468e+09 1.44404e+09 1 0
368 2 1 1.45395e+09 1.45421e+09 1.45523e+09 1.45858e+09 1 0
369 2 1 1.466e+09 1.46626e+09 1.46728e+09 1.47087e+09 1 0
370 1 1 1.48067e+09 1.48092e+09 1.48194e+09 1.48632e+09 0 1
371 2 0 1.49556e+09 1.49581e+09 1.49683e+09 1.49758e+09 0 1
372 1 0 1.51556e+09 1.51581e+09 1.51683e+09 1.5173e+09 0 0
373 1 1 1.52501e+09 1.52527e+09 1.52629e+09 1.52668e+09 1 1
374 1 1 1.53373e+09 1.534e+09 1.53502e+09 1.53505e+09 0 1
375 2 1 1.53777e+09 1.53803e+09 1.53905e+09 1.54291e+09 0 0
376 2 1 1.56323e+09 1.56348e+09 1.5645e+09 1.56523e+09 1 0
377 2 0 1.58077e+09 1.58102e+09 1.58204e+09 1.58218e+09 1 1
