trial trialType response stillTime stimOnset stimOffset respTime correctionTrial correct
001 1 1 3.07201e+06 3.33601e+06 4.35676e+06 5.76409e+07 0 1
002 2 0 6.39324e+07 6.41945e+07 6.52153e+07 6.61316e+07 0 1
003 2 0 6.87411e+07 6.90015e+07 7.00222e+07 7.09158e+07 0 1
004 1 1 1.10772e+08 1.11034e+08 1.12055e+08 1.14397e+08 0 1
005 1 0 1.22966e+08 1.23216e+08 1.24237e+08 1.24861e+08 0 0
006 1 0 1.32163e+08 1.3243e+08 1.33451e+08 1.33796e+08 1 0
007 1 1 1.48819e+08 1.49084e+08 1.50105e+08 1.55922e+08 1 1
008 1 0 1.89432e+08 1.89687e+08 1.90708e+08 1.92382e+08 0 0
009 1 1 2.13445e+08 2.13712e+08 2.14733e+08 2.23875e+08 1 1
010 1 0 2.62507e+08 2.62769e+08 2.6379e+08 2.63819e+08 0 0
011 1 1 2.75051e+08 2.75296e+08 2.76317e+08 2.76431e+08 1 1
012 2 1 2.85356e+08 2.85614e+08 2.86635e+08 2.89257e+08 0 0
013 2 0 3.10687e+08 3.10936e+08 3.11957e+08 3.16325e+08 1 1
014 2 1 3.18912e+08 3.19172e+08 3.20193e+08 3.21638e+08 0 0
015 2 1 3.49307e+08 3.49565e+08 3.50585e+08 3.53429e+08 1 0
016 2 0 3.69717e+08 3.69972e+08 3.70993e+08 3.72039e+08 1 1
017 2 1 3.87718e+08 3.8797e+08 3.88991e+08 3.89011e+08 0 0
018 2 1 3.97676e+08 3.9793e+08 3.98951e+08 4.03219e+08 1 0
019 2 0 4.46578e+08 4.46837e+08 4.47858e+08 4.48599e+08 1 1
020 2 0 4.53626e+08 4.53881e+08 4.54902e+08 4.56037e+08 0 1
021 1 0 5.51304e+08 5.51561e+08 5.52581e+08 5.53536e+08 0 0
022 1 0 5.76347e+08 5.76603e+08 5.77624e+08 5.78237e+08 1 0
023 1 1 6.03774e+08 6.04036e+08 6.05057e+08 6.06453e+08 1 1
024 2 1 6.13749e+08 6.14009e+08 6.1503e+08 6.15222e+08 0 0
025 2 0 6.4216e+08 6.42418e+08 6.43438e+08 6.44847e+08 1 1
026 2 1 6.79852e+08 6.80116e+08 6.81137e+08 6.82759e+08 0 0
027 2 0 6.91542e+08 6.91809e+08 6.92829e+08 6.93095e+08 1 1
028 2 1 7.37903e+08 7.38167e+08 7.39187e+08 7.39261e+08 0 0
029 2 0 7.47475e+08 7.4774e+08 7.48761e+08 7.50328e+08 1 1
030 2 1 7.55968e+08 7.56225e+08 7.57246e+08 7.58181e+08 0 0
031 2 1 7.69626e+08 7.69892e+08 7.70912e+08 7.71783e+08 1 0
032 2 1 7.88894e+08 7.89159e+08 7.9018e+08 7.90282e+08 1 0
033 2 1 7.99676e+08 7.99934e+08 8.00954e+08 8.04896e+08 1 0
034 1 1 8.17252e+08 8.17515e+08 8.18536e+08 8.20716e+08 0 1
035 2 0 8.26113e+08 8.26361e+08 8.27382e+08 8.28977e+08 0 1
036 2 1 8.39148e+08 8.39407e+08 8.40427e+08 8.42007e+08 0 0
037 2 0 8.57306e+08 8.57569e+08 8.58589e+08 8.59633e+08 1 1
038 2 1 8.72001e+08 8.72252e+08 8.73272e+08 8.74224e+08 0 0
039 2 1 8.82833e+08 8.83083e+08 8.84104e+08 8.84483e+08 1 0
040 2 0 9.06096e+08 9.06361e+08 9.07382e+08 9.08958e+08 1 1
041 2 1 9.34385e+08 9.34643e+08 9.35663e+08 9.39335e+08 0 0
042 2 0 9.46544e+08 9.46805e+08 9.47826e+08 9.53941e+08 1 1
043 2 1 9.57261e+08 9.57522e+08 9.58542e+08 9.63408e+08 0 0
044 2 0 9.84573e+08 9.84825e+08 9.85845e+08 9.87401e+08 1 1
045 2 1 1.01486e+09 1.01511e+09 1.01613e+09 1.01627e+09 0 0
046 2 0 1.02558e+09 1.02583e+09 1.02685e+09 1.02758e+09 1 1
047 1 1 1.04127e+09 1.04153e+09 1.04255e+09 1.04419e+09 0 1
048 1 0 1.05112e+09 1.05139e+09 1.05241e+09 1.05377e+09 0 0
049 1 1 1.0614e+09 1.06166e+09 1.06268e+09 1.07011e+09 1 1
050 1 1 1.08255e+09 1.08281e+09 1.08383e+09 1.08607e+09 0 1
051 1 1 1.09211e+09 1.09236e+09 1.09338e+09 1.09346e+09 0 1
052 1 1 1.10296e+09 1.10322e+09 1.10424e+09 1.10524e+09 0 1
053 1 1 1.11332e+09 1.11357e+09 1.11459e+09 1.11461e+09 0 1
054 1 1 1.12736e+09 1.12762e+09 1.12864e+09 1.12999e+09 0 1
055 1 1 1.14187e+09 1.14211e+09 1.14313e+09 1.14412e+09 0 1
056 1 0 1.17866e+09 1.17891e+09 1.17993e+09 1.18025e+09 0 0
057 1 1 1.19226e+09 1.19252e+09 1.19354e+09 1.1942e+09 1 1
058 2 1 1.20281e+09 1.20306e+09 1.20408e+09 1.20416e+09 0 0
059 2 1 1.22227e+09 1.22253e+09 1.22355e+09 1.22527e+09 1 0
060 2 0 1.2525e+09 1.25275e+09 1.25377e+09 1.26587e+09 1 1
061 1 0 1.27107e+09 1.27133e+09 1.27235e+09 1.27238e+09 0 0
062 1 0 1.28507e+09 1.28533e+09 1.28635e+09 1.28651e+09 1 0
063 1 0 1.29521e+09 1.29546e+09 1.29649e+09 1.29743e+09 1 0
064 1 1 1.31007e+09 1.31032e+09 1.31134e+09 1.31224e+09 1 1
065 1 0 1.32083e+09 1.32109e+09 1.32211e+09 1.32216e+09 0 0
066 1 0 1.34077e+09 1.34103e+09 1.34205e+09 1.34219e+09 1 0
067 1 1 1.35242e+09 1.35267e+09 1.35369e+09 1.35383e+09 1 1
068 2 1 1.37138e+09 1.37164e+09 1.37266e+09 1.3739e+09 0 0
069 2 1 1.38241e+09 1.38266e+09 1.38368e+09 1.38461e+09 1 0
070 2 0 1.39523e+09 1.39548e+09 1.3965e+09 1.39731e+09 1 1
071 2 1 1.40347e+09 1.40373e+09 1.40475e+09 1.4052e+09 0 0
072 2 1 1.4154e+09 1.41565e+09 1.41668e+09 1.41669e+09 1 0
073 2 0 1.42386e+09 1.42414e+09 1.42516e+09 1.42561e+09 1 1
074 2 1 1.43362e+09 1.43387e+09 1.43489e+09 1.43519e+09 0 0
075 2 1 1.45002e+09 1.45027e+09 1.45129e+09 1.45137e+09 1 0
076 2 0 1.45888e+09 1.45914e+09 1.46016e+09 1.46032e+09 1 1
077 1 1 1.46639e+09 1.46665e+09 1.46767e+09 1.46769e+09 0 1
078 1 0 1.4822e+09 1.48245e+09 1.48347e+09 1.48407e+09 0 0
079 1 1 1.49397e+09 1.49423e+09 1.49525e+09 1.49573e+09 1 1
080 1 0 1.49936e+09 1.49962e+09 1.50064e+09 1.50097e+09 0 0
081 1 1 1.50844e+09 1.5087e+09 1.50972e+09 1.51013e+09 1 1
082 2 0 1.52799e+09 1.52825e+09 1.52927e+09 1.53275e+09 0 1
083 2 1 1.5393e+09 1.53956e+09 1.54058e+09 1.54193e+09 0 0
084 2 0 1.5549e+09 1.55516e+09 1.55618e+09 1.5562e+09 1 1
085 2 1 1.55955e+09 1.55981e+09 1.56083e+09 1.56118e+09 0 0
086 2 1 1.58211e+09 1.58236e+09 1.58338e+09 1.58505e+09 1 0
087 2 1 1.59373e+09 1.59398e+09 1.595e+09 1.59605e+09 1 0
088 2 0 1.61444e+09 1.61469e+09 1.61571e+09 1.61603e+09 1 1
089 2 0 1.62306e+09 1.62332e+09 1.62434e+09 1.62436e+09 0 1
090 2 1 1.64076e+09 1.64101e+09 1.64203e+09 1.64335e+09 0 0
091 2 1 1.66014e+09 1.66039e+09 1.66141e+09 1.66343e+09 1 0
092 2 0 1.6757e+09 1.67595e+09 1.67697e+09 1.6771e+09 1 1
093 1 1 1.68088e+09 1.68114e+09 1.68216e+09 1.68273e+09 0 1
094 1 0 1.68801e+09 1.68826e+09 1.68928e+09 1.6893e+09 0 0
095 1 1 1.70253e+09 1.70279e+09 1.70381e+09 1.70384e+09 1 1
096 2 0 1.70833e+09 1.70859e+09 1.70961e+09 1.71192e+09 0 1
097 2 0 1.73646e+09 1.73673e+09 1.73775e+09 1.73778e+09 0 1
098 1 0 1.74097e+09 1.74123e+09 1.74225e+09 1.74584e+09 0 0
099 1 1 1.78133e+09 1.7816e+09 1.78262e+09 1.78333e+09 1 1
100 2 0 1.8034e+09 1.80366e+09 1.80468e+09 1.8047e+09 0 1
101 2 1 1.81067e+09 1.81093e+09 1.81195e+09 1.81226e+09 0 0
102 2 0 1.83444e+09 1.83469e+09 1.83571e+09 1.83579e+09 1 1
103 1 1 1.83864e+09 1.8389e+09 1.83992e+09 1.84111e+09 0 1
104 1 1 1.85572e+09 1.85598e+09 1.857e+09 1.85771e+09 0 1
105 1 0 1.86694e+09 1.8672e+09 1.86822e+09 1.8816e+09 0 0
106 1 1 1.89151e+09 1.89178e+09 1.8928e+09 1.90109e+09 1 1
107 1 1 1.90576e+09 1.90602e+09 1.90704e+09 1.91551e+09 0 1
108 2 1 1.91838e+09 1.91864e+09 1.91967e+09 1.92298e+09 0 0
109 2 1 1.9379e+09 1.93816e+09 1.93918e+09 1.93942e+09 1 0
110 2 1 1.98496e+09 1.98522e+09 1.98625e+09 1.98695e+09 1 0
111 2 0 2.00436e+09 2.00462e+09 2.00564e+09 2.00602e+09 1 1
112 2 1 2.00873e+09 2.009e+09 2.01002e+09 2.01436e+09 0 0
113 2 0 2.02714e+09 2.0274e+09 2.02842e+09 2.02923e+09 1 1
114 2 1 2.04426e+09 2.04451e+09 2.04553e+09 2.04818e+09 0 0
115 2 0 2.063e+09 2.06326e+09 2.06428e+09 2.06514e+09 1 1
116 1 0 2.06795e+09 2.0682e+09 2.06922e+09 2.07841e+09 0 0
117 1 0 2.09147e+09 2.09172e+09 2.09274e+09 2.09298e+09 1 0
118 1 1 2.1068e+09 2.10706e+09 2.10808e+09 2.11031e+09 1 1
119 1 1 2.11335e+09 2.11361e+09 2.11463e+09 2.11758e+09 0 1
120 2 1 2.12047e+09 2.12072e+09 2.12174e+09 2.12394e+09 0 0
121 2 0 2.14436e+09 2.14462e+09 2.14564e+09 2.14646e+09 1 1
122 2 1 2.15626e+09 2.15652e+09 2.15754e+09 2.15808e+09 0 0
123 2 1 2.18251e+09 2.18277e+09 2.18379e+09 2.18465e+09 1 0
124 2 1 2.1951e+09 2.19535e+09 2.19637e+09 2.19777e+09 1 0
125 2 1 2.20647e+09 2.20673e+09 2.20775e+09 2.24072e+09 1 0
126 2 1 2.2533e+09 2.25356e+09 2.25458e+09 2.25497e+09 0 0
127 1 0 2.26318e+09 2.26343e+09 2.26445e+09 2.26578e+09 0 0
128 1 1 2.27942e+09 2.27969e+09 2.28071e+09 2.28222e+09 0 1
129 2 1 2.28704e+09 2.28729e+09 2.28831e+09 2.28832e+09 0 0
130 2 1 2.2971e+09 2.29736e+09 2.29838e+09 2.29845e+09 1 0
131 2 1 2.30687e+09 2.30712e+09 2.30815e+09 2.30837e+09 1 0
132 2 1 2.31686e+09 2.31711e+09 2.31813e+09 2.31829e+09 1 0
133 1 0 2.32697e+09 2.32724e+09 2.32826e+09 2.33128e+09 0 0
134 1 0 2.34571e+09 2.34596e+09 2.34699e+09 2.34884e+09 0 0
135 2 1 2.35852e+09 2.35878e+09 2.3598e+09 2.36064e+09 0 0
136 2 1 2.36928e+09 2.36954e+09 2.37056e+09 2.37407e+09 0 0
137 2 1 2.38136e+09 2.38162e+09 2.38264e+09 2.38324e+09 0 0
138 1 0 2.39585e+09 2.39611e+09 2.39713e+09 2.40168e+09 0 0
139 1 1 2.41089e+09 2.41115e+09 2.41217e+09 2.41223e+09 0 1
140 2 1 2.43657e+09 2.43683e+09 2.43785e+09 2.43786e+09 0 0
141 2 0 2.45009e+09 2.45034e+09 2.45136e+09 2.45146e+09 1 1
142 2 0 2.45706e+09 2.45732e+09 2.45834e+09 2.46015e+09 0 1
143 1 1 2.46779e+09 2.46806e+09 2.46908e+09 2.47035e+09 0 1
144 2 1 2.47757e+09 2.47782e+09 2.47884e+09 2.48014e+09 0 0
145 2 1 2.49134e+09 2.4916e+09 2.49262e+09 2.49264e+09 1 0
146 2 1 2.50614e+09 2.50639e+09 2.50742e+09 2.50744e+09 1 0
147 2 1 2.51463e+09 2.51489e+09 2.51591e+09 2.51765e+09 1 0
148 1 0 2.52491e+09 2.52516e+09 2.52618e+09 2.5263e+09 0 0
149 1 0 2.53639e+09 2.53665e+09 2.53767e+09 2.53771e+09 0 0
150 1 0 2.54665e+09 2.54692e+09 2.54794e+09 2.54801e+09 0 0
151 1 1 2.56201e+09 2.56225e+09 2.56327e+09 2.56419e+09 0 1
152 1 0 2.56839e+09 2.56864e+09 2.56966e+09 2.57032e+09 0 0
153 1 1 2.57951e+09 2.57976e+09 2.58078e+09 2.58348e+09 1 1
154 1 1 2.58709e+09 2.58735e+09 2.58837e+09 2.5885e+09 0 1
155 2 1 2.61103e+09 2.61129e+09 2.61231e+09 2.61244e+09 0 0
156 2 1 2.62e+09 2.62025e+09 2.62127e+09 2.6247e+09 1 0
157 2 0 2.64526e+09 2.64552e+09 2.64654e+09 2.64661e+09 1 1
158 1 1 2.65053e+09 2.65079e+09 2.65181e+09 2.65181e+09 0 1
159 2 0 2.65566e+09 2.65592e+09 2.65694e+09 2.65697e+09 0 1
160 2 1 2.66289e+09 2.66315e+09 2.66417e+09 2.66545e+09 0 0
161 2 1 2.68361e+09 2.68388e+09 2.6849e+09 2.68491e+09 1 0
162 2 1 2.69446e+09 2.69472e+09 2.69574e+09 2.6959e+09 1 0
163 2 1 2.70326e+09 2.70352e+09 2.70454e+09 2.70695e+09 1 0
164 2 0 2.7296e+09 2.72987e+09 2.73089e+09 2.73092e+09 0 1
165 1 1 2.73487e+09 2.73512e+09 2.73615e+09 2.7388e+09 0 1
166 1 0 2.74176e+09 2.74202e+09 2.74304e+09 2.74387e+09 0 0
167 1 1 2.75234e+09 2.75259e+09 2.75361e+09 2.75506e+09 1 1
168 2 0 2.78197e+09 2.78222e+09 2.78325e+09 2.78392e+09 0 1
169 2 1 2.78862e+09 2.78887e+09 2.7899e+09 2.78991e+09 0 0
170 2 0 2.79921e+09 2.79947e+09 2.80049e+09 2.80051e+09 1 1
171 1 1 2.80422e+09 2.80448e+09 2.8055e+09 2.81049e+09 0 1
172 2 1 2.81337e+09 2.81363e+09 2.81465e+09 2.81569e+09 0 0
173 2 1 2.84315e+09 2.8434e+09 2.84442e+09 2.84474e+09 1 0
174 2 1 2.85502e+09 2.85529e+09 2.85631e+09 2.85963e+09 1 0
175 2 1 2.87702e+09 2.87728e+09 2.8783e+09 2.88085e+09 1 0
176 1 1 2.8881e+09 2.88836e+09 2.88938e+09 2.88943e+09 0 1
177 1 1 2.8923e+09 2.89256e+09 2.89358e+09 2.8971e+09 0 1
178 2 0 2.90156e+09 2.90181e+09 2.90283e+09 2.9046e+09 0 1
179 1 1 2.91204e+09 2.91229e+09 2.91331e+09 2.91419e+09 0 1
180 2 1 2.92566e+09 2.92592e+09 2.92694e+09 2.92818e+09 0 0
181 2 1 2.94228e+09 2.94254e+09 2.94356e+09 2.94358e+09 1 0
182 2 1 2.95551e+09 2.95577e+09 2.95679e+09 2.9569e+09 1 0
183 2 0 2.96514e+09 2.9654e+09 2.96642e+09 2.967e+09 1 1
184 1 1 2.97928e+09 2.97954e+09 2.98056e+09 2.98267e+09 0 1
185 2 1 2.99014e+09 2.9904e+09 2.99142e+09 2.99181e+09 0 0
186 2 1 3.00231e+09 3.00257e+09 3.00359e+09 3.00394e+09 1 0
187 2 1 3.0147e+09 3.01496e+09 3.01598e+09 3.01749e+09 1 0
188 2 1 3.03177e+09 3.03203e+09 3.03305e+09 3.03639e+09 1 0
189 1 1 3.04597e+09 3.04624e+09 3.04726e+09 3.04727e+09 0 1
190 2 0 3.0511e+09 3.05135e+09 3.05238e+09 3.05482e+09 0 1
191 2 1 3.0686e+09 3.06886e+09 3.06988e+09 3.07033e+09 0 0
192 2 1 3.09262e+09 3.09288e+09 3.0939e+09 3.09396e+09 1 0
193 2 1 3.10122e+09 3.10149e+09 3.10251e+09 3.10347e+09 1 0
194 2 0 3.1121e+09 3.11236e+09 3.11338e+09 3.11352e+09 1 1
195 1 1 3.11992e+09 3.12018e+09 3.12121e+09 3.12189e+09 0 1
196 1 0 3.13284e+09 3.1331e+09 3.13412e+09 3.13427e+09 0 0
197 1 0 3.14139e+09 3.14166e+09 3.14268e+09 3.14285e+09 1 0
198 1 0 3.1504e+09 3.15065e+09 3.15167e+09 3.15333e+09 1 0
199 1 1 3.17637e+09 3.17662e+09 3.17764e+09 3.17982e+09 1 1
200 1 1 3.19375e+09 3.194e+09 3.19502e+09 3.19517e+09 0 1
201 2 1 3.20858e+09 3.20883e+09 3.20985e+09 3.21014e+09 0 0
202 2 1 3.21747e+09 3.21773e+09 3.21875e+09 3.21929e+09 1 0
203 2 1 3.22668e+09 3.22694e+09 3.22796e+09 3.22838e+09 1 0
204 2 1 3.23581e+09 3.23606e+09 3.23708e+09 3.24102e+09 1 0
205 1 1 3.24904e+09 3.24929e+09 3.25031e+09 3.25302e+09 0 1
206 1 1 3.25671e+09 3.25696e+09 3.25798e+09 3.25882e+09 0 1
207 1 1 3.27322e+09 3.27347e+09 3.27449e+09 3.2782e+09 0 1
208 2 0 3.28095e+09 3.2812e+09 3.28222e+09 3.28479e+09 0 1
209 2 1 3.29549e+09 3.29575e+09 3.29677e+09 3.29683e+09 0 0
210 2 1 3.30562e+09 3.30587e+09 3.30689e+09 3.30713e+09 1 0
211 2 1 3.32247e+09 3.32273e+09 3.32375e+09 3.32589e+09 1 0
212 2 0 3.33439e+09 3.33465e+09 3.33567e+09 3.33738e+09 1 1
213 2 1 3.34299e+09 3.34325e+09 3.34427e+09 3.34428e+09 0 0
214 2 0 3.35639e+09 3.35665e+09 3.35767e+09 3.36155e+09 1 1
215 2 1 3.36423e+09 3.3645e+09 3.36552e+09 3.36916e+09 0 0
216 2 0 3.3819e+09 3.38217e+09 3.38319e+09 3.38327e+09 1 1
217 1 1 3.39917e+09 3.39942e+09 3.40044e+09 3.40083e+09 0 1
218 2 1 3.40372e+09 3.40397e+09 3.40499e+09 3.40837e+09 0 0
219 2 1 3.41746e+09 3.41771e+09 3.41873e+09 3.41999e+09 1 0
220 2 1 3.43226e+09 3.43252e+09 3.43354e+09 3.43577e+09 1 0
221 2 1 3.45832e+09 3.45857e+09 3.4596e+09 3.46064e+09 1 0
222 1 1 3.4784e+09 3.47866e+09 3.47968e+09 3.47984e+09 0 1
223 1 1 3.48425e+09 3.48451e+09 3.48553e+09 3.48598e+09 0 1
224 2 1 3.49053e+09 3.49079e+09 3.49181e+09 3.493e+09 0 0
225 2 0 3.50348e+09 3.50373e+09 3.50475e+09 3.50713e+09 1 1
226 2 0 3.51786e+09 3.51812e+09 3.51914e+09 3.52239e+09 0 1
227 2 0 3.5256e+09 3.52587e+09 3.52689e+09 3.52691e+09 0 1
228 2 0 3.53045e+09 3.53071e+09 3.53173e+09 3.53216e+09 0 1
229 1 0 3.53475e+09 3.535e+09 3.53602e+09 3.54165e+09 0 0
230 1 0 3.55156e+09 3.55182e+09 3.55284e+09 3.55285e+09 1 0
231 1 1 3.56073e+09 3.56098e+09 3.562e+09 3.5633e+09 1 1
232 2 1 3.56965e+09 3.56992e+09 3.57094e+09 3.5731e+09 0 0
233 2 1 3.58167e+09 3.58192e+09 3.58294e+09 3.58316e+09 1 0
234 2 1 3.59206e+09 3.59232e+09 3.59334e+09 3.59393e+09 1 0
235 2 1 3.60317e+09 3.60343e+09 3.60445e+09 3.60496e+09 1 0
236 1 0 3.61603e+09 3.61628e+09 3.61731e+09 3.62093e+09 0 0
237 1 1 3.63125e+09 3.63151e+09 3.63253e+09 3.63448e+09 0 1
238 1 1 3.63752e+09 3.63777e+09 3.63879e+09 3.63935e+09 0 1
239 1 1 3.65238e+09 3.65265e+09 3.65367e+09 3.65437e+09 0 1
240 2 1 3.6609e+09 3.66115e+09 3.66217e+09 3.66251e+09 0 0
241 2 1 3.67416e+09 3.67443e+09 3.67545e+09 3.67552e+09 1 0
242 2 1 3.69038e+09 3.69064e+09 3.69166e+09 3.69169e+09 1 0
243 2 1 3.70044e+09 3.7007e+09 3.70172e+09 3.70252e+09 1 0
244 2 1 3.71074e+09 3.71099e+09 3.71201e+09 3.71571e+09 0 0
245 2 0 3.7311e+09 3.73136e+09 3.73238e+09 3.73475e+09 0 1
246 2 0 3.73726e+09 3.73751e+09 3.73853e+09 3.73856e+09 0 1
247 2 0 3.74223e+09 3.74249e+09 3.74351e+09 3.74408e+09 0 1
248 2 0 3.75011e+09 3.75036e+09 3.75138e+09 3.75241e+09 0 1
249 2 1 3.75751e+09 3.75778e+09 3.7588e+09 3.75886e+09 0 0
250 2 1 3.77713e+09 3.77738e+09 3.7784e+09 3.77915e+09 1 0
251 2 0 3.80821e+09 3.80847e+09 3.80949e+09 3.80955e+09 1 1
252 1 0 3.8152e+09 3.81545e+09 3.81648e+09 3.8165e+09 0 0
253 1 1 3.82609e+09 3.82635e+09 3.82737e+09 3.82852e+09 1 1
254 2 0 3.84345e+09 3.8437e+09 3.84472e+09 3.8455e+09 0 1
255 1 1 3.84816e+09 3.84842e+09 3.84945e+09 3.85112e+09 0 1
256 2 0 3.855e+09 3.85525e+09 3.85627e+09 3.85634e+09 0 1
257 1 1 3.85905e+09 3.85932e+09 3.86034e+09 3.86384e+09 0 1
258 2 1 3.86658e+09 3.86684e+09 3.86786e+09 3.87321e+09 0 0
259 2 1 3.88193e+09 3.88219e+09 3.88321e+09 3.88526e+09 1 0
260 2 0 3.89796e+09 3.89822e+09 3.89924e+09 3.8996e+09 1 1
261 2 1 3.92087e+09 3.92114e+09 3.92216e+09 3.92424e+09 0 0
262 2 1 3.94471e+09 3.94496e+09 3.94598e+09 3.94642e+09 1 0
263 2 1 3.95508e+09 3.95533e+09 3.95635e+09 3.95737e+09 1 0
264 2 1 3.96739e+09 3.96765e+09 3.96867e+09 3.96998e+09 1 0
265 1 0 3.98406e+09 3.98432e+09 3.98534e+09 3.98554e+09 0 0
266 2 1 4.00965e+09 4.0099e+09 4.01092e+09 4.01222e+09 0 0
267 1 1 4.01961e+09 4.01986e+09 4.02088e+09 4.02323e+09 0 1
268 1 1 4.03046e+09 4.03072e+09 4.03174e+09 4.03217e+09 0 1
269 2 1 4.04794e+09 4.0482e+09 4.04922e+09 4.04941e+09 0 0
270 2 1 4.0565e+09 4.05676e+09 4.05778e+09 4.06279e+09 1 0
271 2 1 4.07646e+09 4.07672e+09 4.07774e+09 4.08065e+09 1 0
272 2 1 4.0877e+09 4.08795e+09 4.08897e+09 4.08904e+09 1 0
273 2 1 4.10952e+09 4.10978e+09 4.1108e+09 4.11152e+09 0 0
274 1 1 4.11926e+09 4.11951e+09 4.12053e+09 4.12129e+09 0 1
275 1 1 4.13138e+09 4.13163e+09 4.13265e+09 4.13352e+09 0 1
276 1 1 4.13788e+09 4.13814e+09 4.13917e+09 4.1415e+09 0 1
277 2 0 4.14898e+09 4.14923e+09 4.15025e+09 4.15026e+09 0 1
278 1 0 4.15434e+09 4.15461e+09 4.15563e+09 4.15563e+09 0 0
279 1 1 4.16669e+09 4.16694e+09 4.16796e+09 4.17101e+09 1 1
280 1 1 4.17446e+09 4.17472e+09 4.17574e+09 4.17666e+09 0 1
281 1 1 4.18055e+09 4.1808e+09 4.18182e+09 4.18407e+09 0 1
282 2 1 4.19507e+09 4.19534e+09 4.19636e+09 4.19656e+09 0 0
283 2 1 4.20564e+09 4.20589e+09 4.20691e+09 4.20773e+09 1 0
284 2 1 4.21667e+09 4.21693e+09 4.21795e+09 4.21991e+09 1 0
285 2 1 4.2285e+09 4.22876e+09 4.22978e+09 4.23108e+09 1 0
286 1 1 4.24027e+09 4.24052e+09 4.24154e+09 4.24232e+09 0 1
287 1 0 4.25702e+09 4.25727e+09 4.25829e+09 4.26097e+09 0 0
288 1 0 4.2683e+09 4.26856e+09 4.26958e+09 4.27059e+09 1 0
289 1 1 4.27823e+09 4.27847e+09 4.27949e+09 4.28e+09 1 1
290 1 0 4.28594e+09 4.2862e+09 4.28722e+09 4.288e+09 0 0
291 1 1 4.85377e+06 5.12434e+06 6.14508e+06 7.96032e+06 1 1
292 1 1 1.33223e+07 1.35848e+07 1.46055e+07 1.59829e+07 0 1
293 1 1 2.68626e+07 2.7122e+07 2.81427e+07 2.82327e+07 0 1
294 2 1 3.38156e+07 3.40737e+07 3.50945e+07 3.6065e+07 0 0
295 2 1 4.41498e+07 4.44e+07 4.54208e+07 4.54348e+07 1 0
296 2 0 5.28312e+07 5.30833e+07 5.41041e+07 5.55042e+07 1 1
297 2 1 6.42017e+07 6.447e+07 6.54908e+07 6.7295e+07 0 0
298 2 1 8.10824e+07 8.13444e+07 8.23651e+07 8.26864e+07 1 0
299 2 1 9.27027e+07 9.29672e+07 9.3988e+07 9.67733e+07 1 0
300 2 1 1.04488e+08 1.0474e+08 1.05761e+08 1.05968e+08 1 0
301 2 1 1.15224e+08 1.15483e+08 1.16503e+08 1.22283e+08 0 0
302 1 1 1.31673e+08 1.31923e+08 1.32944e+08 1.3297e+08 0 1
303 2 1 1.45093e+08 1.45353e+08 1.46374e+08 1.47291e+08 0 0
304 2 0 1.61607e+08 1.61871e+08 1.62892e+08 1.65224e+08 1 1
305 2 1 1.76559e+08 1.76817e+08 1.77838e+08 1.80652e+08 0 0
306 2 1 1.897e+08 1.89964e+08 1.90985e+08 1.91532e+08 1 0
307 2 1 2.10674e+08 2.1094e+08 2.11961e+08 2.12753e+08 1 0
308 2 1 2.20071e+08 2.20321e+08 2.21342e+08 2.24216e+08 1 0
309 2 1 2.3132e+08 2.31568e+08 2.32589e+08 2.33863e+08 0 0
310 2 0 2.41367e+08 2.41633e+08 2.42653e+08 2.42832e+08 0 1
311 1 0 2.59575e+08 2.59841e+08 2.60862e+08 2.61895e+08 0 0
312 1 0 2.7063e+08 2.70899e+08 2.7192e+08 2.72909e+08 1 0
313 1 1 2.81823e+08 2.82072e+08 2.83092e+08 2.8667e+08 1 1
314 2 0 2.93262e+08 2.9351e+08 2.94531e+08 2.94576e+08 0 1
315 1 1 3.27171e+08 3.27429e+08 3.28449e+08 3.2884e+08 0 1
316 2 1 3.3739e+08 3.37646e+08 3.38667e+08 3.39644e+08 0 0
317 2 1 3.51729e+08 3.51991e+08 3.53011e+08 3.58698e+08 1 0
318 2 1 3.66059e+08 3.66328e+08 3.67349e+08 3.67672e+08 1 0
319 2 0 3.78498e+08 3.78757e+08 3.79778e+08 3.80423e+08 1 1
320 1 1 3.91057e+08 3.91309e+08 3.9233e+08 3.93623e+08 0 1
321 1 1 3.98267e+08 3.98527e+08 3.99547e+08 4.00849e+08 0 1
322 2 0 4.08035e+08 4.08304e+08 4.09325e+08 4.09332e+08 0 1
323 2 1 4.15062e+08 4.15314e+08 4.16335e+08 4.17152e+08 0 0
324 2 1 4.54541e+08 4.54798e+08 4.55819e+08 4.56168e+08 1 0
325 2 1 4.63589e+08 4.63836e+08 4.64857e+08 4.67777e+08 1 0
326 2 0 4.93477e+08 4.93741e+08 4.94762e+08 4.94886e+08 1 1
327 2 1 5.07033e+08 5.07288e+08 5.08309e+08 5.0917e+08 0 0
328 2 1 5.18229e+08 5.18485e+08 5.19506e+08 5.20187e+08 1 0
329 2 1 5.28427e+08 5.28685e+08 5.29706e+08 5.30182e+08 1 0
330 2 0 5.41545e+08 5.41798e+08 5.42819e+08 5.43521e+08 1 1
331 1 0 5.53245e+08 5.53497e+08 5.54517e+08 5.57427e+08 0 0
332 1 1 5.64827e+08 5.65075e+08 5.66096e+08 5.84417e+08 1 1
333 1 1 6.00263e+08 6.0051e+08 6.01531e+08 6.0155e+08 0 1
334 1 1 6.19203e+08 6.19461e+08 6.20482e+08 6.21512e+08 0 1
335 1 0 6.46239e+08 6.46487e+08 6.47508e+08 6.48703e+08 0 0
336 1 1 6.59754e+08 6.60001e+08 6.61022e+08 6.6142e+08 1 1
337 1 1 6.65704e+08 6.65961e+08 6.66981e+08 6.86548e+08 0 1
338 2 1 7.09872e+08 7.10132e+08 7.11153e+08 7.11654e+08 0 0
339 2 1 7.19094e+08 7.19359e+08 7.2038e+08 7.21631e+08 1 0
340 2 0 7.45674e+08 7.4593e+08 7.46951e+08 7.47293e+08 1 1
341 2 0 7.53332e+08 7.53585e+08 7.54606e+08 7.58105e+08 0 1
342 1 0 7.63636e+08 7.63893e+08 7.64914e+08 7.64927e+08 0 0
343 1 0 7.83768e+08 7.84015e+08 7.85036e+08 7.89786e+08 1 0
344 1 1 7.96876e+08 7.97123e+08 7.98144e+08 7.99069e+08 1 1
345 1 0 8.01675e+08 8.01924e+08 8.02945e+08 8.03219e+08 0 0
346 1 0 8.1778e+08 8.18043e+08 8.19064e+08 8.19778e+08 1 0
347 1 1 8.26809e+08 8.2706e+08 8.28081e+08 8.2854e+08 1 1
348 2 1 8.3901e+08 8.39269e+08 8.40289e+08 8.40336e+08 0 0
349 2 1 8.47492e+08 8.47747e+08 8.48767e+08 8.49489e+08 1 0
350 2 0 8.599e+08 8.60154e+08 8.61174e+08 8.7146e+08 1 1
351 1 0 8.75786e+08 8.76049e+08 8.7707e+08 8.77156e+08 0 0
352 1 1 8.84888e+08 8.85145e+08 8.86165e+08 8.86222e+08 1 1
353 2 1 9.05547e+08 9.058e+08 9.06821e+08 9.07148e+08 0 0
354 2 1 9.28158e+08 9.28418e+08 9.29439e+08 9.30114e+08 1 0
355 2 1 9.38658e+08 9.38906e+08 9.39927e+08 9.4139e+08 1 0
356 2 1 9.5034e+08 9.50588e+08 9.51608e+08 9.52103e+08 1 0
357 2 1 9.6282e+08 9.6308e+08 9.64101e+08 9.65011e+08 0 0
358 2 1 9.86844e+08 9.87106e+08 9.88127e+08 9.90536e+08 0 0
359 2 0 9.97853e+08 9.98108e+08 9.99128e+08 1.01835e+09 0 1
360 1 1 1.02545e+09 1.0257e+09 1.02672e+09 1.03326e+09 0 1
361 1 1 1.03582e+09 1.03608e+09 1.0371e+09 1.03776e+09 0 1
362 1 1 1.04969e+09 1.04994e+09 1.05096e+09 1.0521e+09 0 1
363 1 1 1.08729e+09 1.08755e+09 1.08857e+09 1.09136e+09 0 1
364 1 1 1.10407e+09 1.10433e+09 1.10535e+09 1.10638e+09 0 1
365 2 1 1.1202e+09 1.12045e+09 1.12147e+09 1.12252e+09 0 0
366 2 1 1.13455e+09 1.1348e+09 1.13583e+09 1.13817e+09 1 0
367 2 1 1.14739e+09 1.14764e+09 1.14866e+09 1.15084e+09 1 0
368 2 1 1.15814e+09 1.15839e+09 1.15941e+09 1.15966e+09 1 0
369 1 1 1.17105e+09 1.1713e+09 1.17232e+09 1.17317e+09 0 1
370 1 1 1.18681e+09 1.18706e+09 1.18808e+09 1.18973e+09 0 1
371 2 0 1.19272e+09 1.19299e+09 1.19401e+09 1.19915e+09 0 1
372 2 1 1.20908e+09 1.20934e+09 1.21036e+09 1.21176e+09 0 0
373 2 1 1.2207e+09 1.22096e+09 1.22198e+09 1.22453e+09 1 0
374 2 1 1.23822e+09 1.23849e+09 1.23951e+09 1.24076e+09 1 0
375 2 1 1.25041e+09 1.25067e+09 1.25169e+09 1.2526e+09 1 0
376 1 0 1.26533e+09 1.26559e+09 1.26661e+09 1.26665e+09 0 0
377 2 1 1.27875e+09 1.27902e+09 1.28004e+09 1.28079e+09 0 0
378 2 1 1.29191e+09 1.29216e+09 1.29318e+09 1.29382e+09 0 0
379 2 0 1.30222e+09 1.30247e+09 1.30349e+09 1.30586e+09 0 1
380 2 1 1.31446e+09 1.31473e+09 1.31575e+09 1.31672e+09 0 0
381 2 0 1.34199e+09 1.34224e+09 1.34326e+09 1.36533e+09 1 1
382 2 1 1.36795e+09 1.36822e+09 1.36924e+09 1.38998e+09 0 0
383 2 0 1.39904e+09 1.3993e+09 1.40032e+09 1.40164e+09 1 1
384 1 1 1.4072e+09 1.40747e+09 1.40849e+09 1.4122e+09 0 1
385 2 1 1.41518e+09 1.41544e+09 1.41646e+09 1.44624e+09 0 0
386 2 1 1.45351e+09 1.45377e+09 1.45479e+09 1.4601e+09 1 0
387 2 1 1.46891e+09 1.46917e+09 1.47019e+09 1.47415e+09 1 0
388 2 0 1.48137e+09 1.48163e+09 1.48265e+09 1.48892e+09 1 1
389 2 1 1.49418e+09 1.49443e+09 1.49545e+09 1.52272e+09 0 0
390 2 1 1.52976e+09 1.53002e+09 1.53104e+09 1.53147e+09 1 0
391 2 1 1.53853e+09 1.5388e+09 1.53982e+09 1.55083e+09 1 0
392 2 1 1.55812e+09 1.55838e+09 1.5594e+09 1.56123e+09 1 0
393 1 1 1.56833e+09 1.5686e+09 1.56962e+09 1.57071e+09 0 1
394 2 1 1.57639e+09 1.57664e+09 1.57766e+09 1.57851e+09 0 0
395 2 1 1.58739e+09 1.58765e+09 1.58867e+09 1.58977e+09 1 0
396 2 1 1.59724e+09 1.5975e+09 1.59852e+09 1.60202e+09 1 0
397 2 1 1.60933e+09 1.60959e+09 1.61061e+09 1.61661e+09 1 0
398 1 0 1.6241e+09 1.62436e+09 1.62538e+09 1.62999e+09 0 0
399 2 1 1.64282e+09 1.64307e+09 1.64409e+09 1.64591e+09 0 0
400 2 0 1.65307e+09 1.65332e+09 1.65434e+09 1.67402e+09 0 1
401 2 1 1.67888e+09 1.67914e+09 1.68016e+09 1.68155e+09 0 0
402 2 1 1.68863e+09 1.68889e+09 1.68991e+09 1.69058e+09 1 0
403 2 0 1.70141e+09 1.70165e+09 1.70267e+09 1.70348e+09 1 1
404 1 1 1.70724e+09 1.7075e+09 1.70852e+09 1.70898e+09 0 1
405 2 1 1.71521e+09 1.71546e+09 1.71648e+09 1.72034e+09 0 0
406 2 1 1.73923e+09 1.73948e+09 1.7405e+09 1.74517e+09 1 0
407 2 1 1.75814e+09 1.7584e+09 1.75942e+09 1.75949e+09 1 0
408 2 1 1.76863e+09 1.76889e+09 1.76991e+09 1.8036e+09 1 0
409 2 1 1.81073e+09 1.81099e+09 1.81201e+09 1.83946e+09 0 0
410 2 0 1.84679e+09 1.84704e+09 1.84806e+09 1.84991e+09 0 1
411 1 0 1.85667e+09 1.85693e+09 1.85795e+09 1.86631e+09 0 0
412 1 1 1.87464e+09 1.8749e+09 1.87592e+09 1.87923e+09 1 1
413 2 1 1.89416e+09 1.89442e+09 1.89544e+09 1.89565e+09 0 0
414 2 1 1.90301e+09 1.90326e+09 1.90428e+09 1.91708e+09 1 0
415 2 1 1.92578e+09 1.92604e+09 1.92706e+09 1.92722e+09 1 0
416 2 1 1.93518e+09 1.93545e+09 1.93647e+09 1.93798e+09 1 0
417 2 1 1.94534e+09 1.9456e+09 1.94662e+09 1.94699e+09 0 0
418 1 1 1.95798e+09 1.95823e+09 1.95925e+09 1.96555e+09 0 1
419 2 1 1.97297e+09 1.97321e+09 1.97423e+09 2.04135e+09 0 0
420 2 1 2.04886e+09 2.04911e+09 2.05014e+09 2.05363e+09 1 0
421 2 1 2.06091e+09 2.06116e+09 2.06218e+09 2.08965e+09 1 0
422 2 1 2.09714e+09 2.09739e+09 2.09841e+09 2.09873e+09 1 0
423 1 1 2.10603e+09 2.10629e+09 2.10731e+09 2.10787e+09 0 1
424 2 1 2.11526e+09 2.11551e+09 2.11654e+09 2.12361e+09 0 0
425 2 0 2.13285e+09 2.1331e+09 2.13412e+09 2.15366e+09 1 1
426 2 0 2.16206e+09 2.16233e+09 2.16335e+09 2.17384e+09 0 1
427 1 1 2.17726e+09 2.17752e+09 2.17854e+09 2.18002e+09 0 1
428 1 1 2.18282e+09 2.18307e+09 2.18409e+09 2.18503e+09 0 1
429 2 1 2.20048e+09 2.20073e+09 2.20176e+09 2.20287e+09 0 0
430 2 0 2.21019e+09 2.21045e+09 2.21147e+09 2.2115e+09 1 1
431 1 1 2.22357e+09 2.22382e+09 2.22485e+09 2.22486e+09 0 1
432 1 0 2.23125e+09 2.23151e+09 2.23253e+09 2.23533e+09 0 0
433 1 1 2.24586e+09 2.24611e+09 2.24713e+09 2.2482e+09 1 1
434 1 1 2.25142e+09 2.25167e+09 2.25269e+09 2.25326e+09 0 1
435 1 0 2.25923e+09 2.25949e+09 2.26051e+09 2.26351e+09 0 0
436 1 1 2.29062e+09 2.29089e+09 2.29191e+09 2.29398e+09 1 1
437 2 1 2.29856e+09 2.29882e+09 2.29984e+09 2.30003e+09 0 0
438 2 1 2.30747e+09 2.30774e+09 2.30876e+09 2.31061e+09 1 0
439 2 0 2.31797e+09 2.31823e+09 2.31925e+09 2.31928e+09 1 1
440 1 0 2.32587e+09 2.32614e+09 2.32716e+09 2.36515e+09 0 0
441 1 1 2.37653e+09 2.37679e+09 2.37781e+09 2.3783e+09 1 1
442 1 1 2.38187e+09 2.38213e+09 2.38315e+09 2.38359e+09 0 1
443 1 0 2.38795e+09 2.3882e+09 2.38922e+09 2.38954e+09 0 0
444 1 1 2.39668e+09 2.39695e+09 2.39797e+09 2.44339e+09 1 1
445 2 1 2.45513e+09 2.4554e+09 2.45642e+09 2.46267e+09 0 0
446 2 1 2.46977e+09 2.47002e+09 2.47104e+09 2.481e+09 1 0
447 2 1 2.48882e+09 2.48908e+09 2.4901e+09 2.49031e+09 1 0
448 2 1 2.50624e+09 2.5065e+09 2.50752e+09 2.5216e+09 1 0
449 1 1 2.52939e+09 2.52965e+09 2.53067e+09 2.53078e+09 0 1
450 2 1 2.53332e+09 2.53358e+09 2.5346e+09 2.53767e+09 0 0
451 2 0 2.54488e+09 2.54514e+09 2.54616e+09 2.54663e+09 1 1
452 1 1 2.5495e+09 2.54975e+09 2.55077e+09 2.55095e+09 0 1
453 2 1 2.55643e+09 2.55669e+09 2.55771e+09 2.55861e+09 0 0
454 2 1 2.56694e+09 2.5672e+09 2.56822e+09 2.57052e+09 1 0
455 2 0 2.5802e+09 2.58045e+09 2.58147e+09 2.60127e+09 1 1
456 1 0 2.60758e+09 2.60783e+09 2.60885e+09 2.61371e+09 0 0
457 1 0 2.62253e+09 2.62278e+09 2.6238e+09 2.62695e+09 1 0
458 1 1 2.63422e+09 2.63447e+09 2.63549e+09 2.6532e+09 1 1
459 1 0 2.65778e+09 2.65802e+09 2.65905e+09 2.65912e+09 0 0
460 1 1 2.6665e+09 2.66675e+09 2.66777e+09 2.66918e+09 1 1
461 1 1 2.67202e+09 2.67228e+09 2.67331e+09 3.04286e+09 0 1
