trial trialType response stillTime stimOnset stimOffset respTime correctionTrial correct
001 1 0 9.03784e+06 9.3455e+06 1.03662e+07 1.02633e+08 0
000 002 1 0 1.10419e+08 1.10698e+08 1.11719e+08 1.12329e+08 1
000 003 1 1 1.1944e+08 1.19719e+08 1.2074e+08 1.21119e+08 1
001 004 2 0 1.23531e+08 1.23782e+08 1.24803e+08 5.7279e+08 0
001 005 1 1 5.76994e+08 5.77254e+08 5.78275e+08 5.78279e+08 0
001 006 1 1 5.82791e+08 5.83048e+08 5.84069e+08 5.84072e+08 0
001 007 2 0 5.86347e+08 5.86605e+08 5.87626e+08 5.87728e+08 0
001 008 2 1 5.90333e+08 5.90594e+08 5.91615e+08 5.9163e+08 0
000 009 2 0 6.24381e+08 6.24628e+08 6.25649e+08 6.26342e+08 1
001 010 2 1 6.28768e+08 6.29022e+08 6.30043e+08 6.32022e+08 0
000 011 2 1 6.39508e+08 6.39777e+08 6.40798e+08 6.55794e+08 1
000 012 2 1 6.65246e+08 6.65504e+08 6.66524e+08 6.66564e+08 1
000 013 2 1 6.80889e+08 6.81142e+08 6.82162e+08 6.82667e+08 1
000 014 1 0 6.90016e+08 6.90276e+08 6.91297e+08 6.91306e+08 0
000 015 1 0 7.04193e+08 7.04462e+08 7.05483e+08 7.05491e+08 0
000 016 2 1 7.12594e+08 7.1284e+08 7.13861e+08 7.15414e+08 0
000 017 1 1 7.22844e+08 7.23097e+08 7.24118e+08 7.27527e+08 0
001 018 2 1 7.31955e+08 7.32216e+08 7.33236e+08 7.38037e+08 0
000 019 2 0 7.45988e+08 7.46251e+08 7.47271e+08 7.49822e+08 1
001 020 2 0 7.52155e+08 7.52425e+08 7.53446e+08 7.54298e+08 0
001 021 1 1 7.57761e+08 7.58021e+08 7.59042e+08 7.60828e+08 0
001 022 1 1 7.64032e+08 7.64284e+08 7.65305e+08 7.66501e+08 0
001 023 2 1 7.69339e+08 7.69604e+08 7.70625e+08 7.72765e+08 0
000 024 2 1 7.79948e+08 7.80212e+08 7.81233e+08 7.8213e+08 1
000 025 2 1 7.89233e+08 7.89497e+08 7.90518e+08 7.94332e+08 1
000 026 2 1 8.01881e+08 8.02137e+08 8.03158e+08 8.03371e+08 1
000 027 2 0 8.10558e+08 8.10806e+08 8.11827e+08 8.16553e+08 0
001 028 1 1 8.20485e+08 8.2074e+08 8.2176e+08 8.22006e+08 0
001 029 1 1 8.25575e+08 8.25832e+08 8.26853e+08 8.29131e+08 0
001 030 1 1 8.32402e+08 8.32654e+08 8.33675e+08 8.3688e+08 0
001 031 2 0 8.39198e+08 8.39462e+08 8.40483e+08 8.40534e+08 0
001 032 2 1 8.43403e+08 8.4366e+08 8.44681e+08 8.45373e+08 0
000 033 2 0 8.53201e+08 8.53465e+08 8.54485e+08 8.54526e+08 1
001 034 1 1 8.57908e+08 8.58174e+08 8.59195e+08 8.60456e+08 0
001 035 1 0 8.63143e+08 8.63399e+08 8.6442e+08 8.65465e+08 0
000 036 1 1 8.72822e+08 8.73081e+08 8.74102e+08 8.74551e+08 1
001 037 1 1 8.78048e+08 8.78304e+08 8.79324e+08 8.79654e+08 0
001 038 2 1 8.82358e+08 8.82624e+08 8.83645e+08 8.84434e+08 0
000 039 2 1 8.92392e+08 8.92648e+08 8.93669e+08 8.94279e+08 1
000 040 2 0 9.08886e+08 9.09149e+08 9.1017e+08 9.10293e+08 1
001 041 1 1 9.14426e+08 9.14682e+08 9.15703e+08 9.1775e+08 0
001 042 1 1 9.21643e+08 9.219e+08 9.22921e+08 9.22963e+08 0
001 043 2 1 9.27385e+08 9.27649e+08 9.2867e+08 9.32514e+08 0
000 044 2 1 9.41862e+08 9.42127e+08 9.43148e+08 9.46237e+08 1
000 045 2 0 9.54663e+08 9.54925e+08 9.55946e+08 9.57245e+08 1
001 046 1 1 9.60466e+08 9.60728e+08 9.61749e+08 9.61772e+08 0
001 047 1 0 9.64476e+08 9.64735e+08 9.65755e+08 9.66729e+08 0
000 048 1 1 9.73857e+08 9.74111e+08 9.75132e+08 9.77696e+08 1
001 049 1 0 9.81939e+08 9.82196e+08 9.83217e+08 9.83754e+08 0
000 050 1 1 9.91364e+08 9.91628e+08 9.92649e+08 9.93898e+08 1
001 051 2 1 9.96025e+08 9.96276e+08 9.97296e+08 1.00391e+09 0
000 052 2 0 1.01601e+09 1.01626e+09 1.01728e+09 1.01896e+09 1
001 053 1 0 1.02291e+09 1.02316e+09 1.02418e+09 1.02945e+09 0
000 054 1 1 1.03693e+09 1.0372e+09 1.03822e+09 1.04303e+09 1
001 055 2 0 1.04608e+09 1.04634e+09 1.04736e+09 1.04935e+09 0
001 056 1 1 1.05267e+09 1.05293e+09 1.05395e+09 1.05531e+09 0
001 057 2 1 1.05831e+09 1.05857e+09 1.05959e+09 1.06143e+09 0
000 058 2 1 1.06866e+09 1.06892e+09 1.06994e+09 1.07468e+09 1
000 059 2 1 1.08267e+09 1.08293e+09 1.08395e+09 1.09178e+09 1
000 060 2 1 1.09921e+09 1.09947e+09 1.10049e+09 1.10107e+09 1
000 061 2 0 1.10866e+09 1.10892e+09 1.10994e+09 1.11033e+09 0
001 062 2 1 1.11609e+09 1.11634e+09 1.11736e+09 1.11878e+09 0
000 063 2 0 1.13083e+09 1.13109e+09 1.13211e+09 1.133e+09 1
001 064 1 0 1.13714e+09 1.13739e+09 1.13841e+09 1.14254e+09 0
000 065 1 1 1.15129e+09 1.15155e+09 1.15257e+09 1.15397e+09 1
001 066 1 1 1.15684e+09 1.15711e+09 1.15813e+09 1.17023e+09 0
001 067 1 1 1.17472e+09 1.17498e+09 1.176e+09 1.18099e+09 0
001 068 1 1 1.18631e+09 1.18657e+09 1.1876e+09 1.18778e+09 0
001 069 1 1 1.19109e+09 1.19135e+09 1.19237e+09 1.19253e+09 0
001 070 1 1 1.19748e+09 1.19774e+09 1.19876e+09 1.2004e+09 0
001 071 2 0 1.20411e+09 1.20437e+09 1.20539e+09 1.20766e+09 0
001 072 2 0 1.21086e+09 1.21112e+09 1.21214e+09 1.21289e+09 0
001 073 1 0 1.21569e+09 1.21594e+09 1.21696e+09 1.21878e+09 0
000 074 1 0 1.22582e+09 1.22608e+09 1.2271e+09 1.22776e+09 1
000 075 1 1 1.23516e+09 1.23542e+09 1.23644e+09 1.23924e+09 1
001 076 1 1 1.24323e+09 1.2435e+09 1.24452e+09 1.24486e+09 0
001 077 2 1 1.24886e+09 1.24911e+09 1.25013e+09 1.25041e+09 0
000 078 2 1 1.25788e+09 1.25813e+09 1.25915e+09 1.25955e+09 1
000 079 2 1 1.26878e+09 1.26903e+09 1.27005e+09 1.27091e+09 1
000 080 2 0 1.27811e+09 1.27838e+09 1.2794e+09 1.27956e+09 1
001 081 2 1 1.28356e+09 1.28383e+09 1.28485e+09 1.28581e+09 0
000 082 2 1 1.29352e+09 1.29378e+09 1.2948e+09 1.29553e+09 1
000 083 2 1 1.30269e+09 1.30296e+09 1.30398e+09 1.30824e+09 1
000 084 2 1 1.31527e+09 1.31552e+09 1.31654e+09 1.32204e+09 1
000 085 1 0 1.32962e+09 1.32988e+09 1.3309e+09 1.33364e+09 0
000 086 2 1 1.34094e+09 1.34119e+09 1.34222e+09 1.34542e+09 0
000 087 2 1 1.3532e+09 1.35347e+09 1.35449e+09 1.35478e+09 0
000 088 2 1 1.36754e+09 1.3678e+09 1.36882e+09 1.3746e+09 0
000 089 1 1 1.38214e+09 1.38238e+09 1.38341e+09 1.38372e+09 0
001 090 2 1 1.38616e+09 1.38642e+09 1.38744e+09 1.39008e+09 0
000 091 2 1 1.39729e+09 1.39755e+09 1.39857e+09 1.40291e+09 1
000 092 2 0 1.41007e+09 1.41032e+09 1.41134e+09 1.41273e+09 1
001 093 2 1 1.41611e+09 1.41638e+09 1.4174e+09 1.4182e+09 0
000 094 2 0 1.42563e+09 1.42588e+09 1.4269e+09 1.42769e+09 1
001 095 2 1 1.43129e+09 1.43155e+09 1.43258e+09 1.43262e+09 0
000 096 2 0 1.43975e+09 1.44001e+09 1.44103e+09 1.44321e+09 1
001 097 1 0 1.44913e+09 1.44938e+09 1.4504e+09 1.45323e+09 0
000 098 1 1 1.4606e+09 1.46086e+09 1.46188e+09 1.46254e+09 1
001 099 2 1 1.46621e+09 1.46646e+09 1.46748e+09 1.47256e+09 0
000 100 2 0 1.48382e+09 1.48408e+09 1.4851e+09 1.48641e+09 1
001 101 2 1 1.49271e+09 1.49297e+09 1.49399e+09 1.49545e+09 0
000 102 2 1 1.50368e+09 1.50393e+09 1.50495e+09 1.50578e+09 1
000 103 2 0 1.51689e+09 1.51715e+09 1.51817e+09 1.52264e+09 1
001 104 2 1 1.52953e+09 1.52979e+09 1.53081e+09 1.53395e+09 0
000 105 2 1 1.54113e+09 1.54139e+09 1.54241e+09 1.54244e+09 1
000 106 2 1 1.55178e+09 1.55204e+09 1.55306e+09 1.55495e+09 1
000 107 2 1 1.56215e+09 1.56241e+09 1.56343e+09 1.56409e+09 1
000 108 1 0 1.57346e+09 1.57371e+09 1.57473e+09 1.57484e+09 0
000 109 1 1 1.58263e+09 1.58288e+09 1.5839e+09 1.59339e+09 0
001 110 2 1 1.60008e+09 1.60033e+09 1.60135e+09 1.60647e+09 0
000 111 2 1 1.6136e+09 1.61386e+09 1.61488e+09 1.61498e+09 1
000 112 2 1 1.62224e+09 1.62249e+09 1.62351e+09 1.62485e+09 1
000 113 2 0 1.63213e+09 1.63239e+09 1.63341e+09 1.6337e+09 1
001 114 2 1 1.63801e+09 1.63827e+09 1.63929e+09 1.64187e+09 0
000 115 2 1 1.64903e+09 1.64928e+09 1.65031e+09 1.65218e+09 1
000 116 2 1 1.6595e+09 1.65976e+09 1.66078e+09 1.66113e+09 1
000 117 2 1 1.66832e+09 1.66857e+09 1.66959e+09 1.6713e+09 1
000 118 2 1 1.67906e+09 1.67931e+09 1.68033e+09 1.68663e+09 0
000 119 1 1 1.69419e+09 1.69445e+09 1.69547e+09 1.69553e+09 0
001 120 2 1 1.70271e+09 1.70297e+09 1.70399e+09 1.7054e+09 0
000 121 2 1 1.71269e+09 1.71295e+09 1.71397e+09 1.73232e+09 1
000 122 2 1 1.74044e+09 1.74069e+09 1.74171e+09 1.74289e+09 1
000 123 2 0 1.75098e+09 1.75124e+09 1.75226e+09 1.75684e+09 1
001 124 1 1 1.76051e+09 1.76077e+09 1.76179e+09 1.7625e+09 0
001 125 1 1 1.76577e+09 1.76603e+09 1.76705e+09 1.77082e+09 0
001 126 2 1 1.77509e+09 1.77536e+09 1.77638e+09 1.77915e+09 0
000 127 2 1 1.78654e+09 1.7868e+09 1.78782e+09 1.79345e+09 1
000 128 2 0 1.80052e+09 1.80078e+09 1.8018e+09 1.80657e+09 1
001 129 1 1 1.81158e+09 1.81185e+09 1.81287e+09 1.81679e+09 0
001 130 2 1 1.82164e+09 1.8219e+09 1.82292e+09 1.82317e+09 0
000 131 2 1 1.83302e+09 1.83328e+09 1.83431e+09 1.83532e+09 1
000 132 2 1 1.84272e+09 1.84298e+09 1.844e+09 1.84571e+09 1
000 133 2 1 1.85284e+09 1.8531e+09 1.85412e+09 1.86204e+09 1
000 134 1 0 1.86948e+09 1.86975e+09 1.87077e+09 1.8719e+09 0
000 135 1 1 1.88034e+09 1.8806e+09 1.88162e+09 1.88852e+09 0
001 136 2 1 1.89276e+09 1.89302e+09 1.89404e+09 1.89816e+09 0
000 137 2 1 1.90572e+09 1.90598e+09 1.907e+09 1.91093e+09 1
000 138 2 1 1.91848e+09 1.91874e+09 1.91976e+09 1.92265e+09 1
000 139 2 1 1.92984e+09 1.9301e+09 1.93112e+09 1.93129e+09 1
000 140 2 1 1.93907e+09 1.93933e+09 1.94035e+09 1.94087e+09 0
000 141 2 0 1.95014e+09 1.95039e+09 1.95141e+09 1.95798e+09 0
001 142 1 1 1.96046e+09 1.96071e+09 1.96174e+09 1.9634e+09 0
001 143 1 1 1.96724e+09 1.9675e+09 1.96852e+09 1.96868e+09 0
001 144 1 1 1.97568e+09 1.97593e+09 1.97695e+09 1.97747e+09 0
001 145 2 1 1.98137e+09 1.98163e+09 1.98265e+09 1.98284e+09 0
000 146 2 1 1.99016e+09 1.99041e+09 1.99143e+09 1.99373e+09 1
000 147 2 0 2.00091e+09 2.00117e+09 2.00219e+09 2.00425e+09 1
001 148 2 1 2.00791e+09 2.00817e+09 2.00919e+09 2.00928e+09 0
000 149 2 1 2.01666e+09 2.01691e+09 2.01793e+09 2.02288e+09 1
000 150 2 1 2.03018e+09 2.03043e+09 2.03145e+09 2.03553e+09 1
000 151 2 1 2.04321e+09 2.04346e+09 2.04448e+09 2.05045e+09 1
000 152 2 0 2.05764e+09 2.0579e+09 2.05892e+09 2.06052e+09 0
001 153 2 0 2.06291e+09 2.06316e+09 2.06419e+09 2.06538e+09 0
001 154 1 1 2.06825e+09 2.06851e+09 2.06953e+09 2.07165e+09 0
001 155 1 0 2.07746e+09 2.07773e+09 2.07875e+09 2.08054e+09 0
000 156 1 0 2.08881e+09 2.08906e+09 2.09008e+09 2.09774e+09 1
000 157 1 0 2.10505e+09 2.1053e+09 2.10632e+09 2.10769e+09 1
000 158 1 0 2.11507e+09 2.11533e+09 2.11635e+09 2.11725e+09 1
000 159 2 1 2.12475e+09 2.12501e+09 2.12603e+09 2.12733e+09 0
000 160 2 1 2.13574e+09 2.136e+09 2.13702e+09 2.14434e+09 0
000 161 1 1 2.15155e+09 2.15182e+09 2.15284e+09 2.16092e+09 0
001 162 2 1 2.16418e+09 2.16444e+09 2.16546e+09 2.16555e+09 0
000 163 2 0 2.17289e+09 2.17316e+09 2.17418e+09 2.17541e+09 1
001 164 1 0 2.17904e+09 2.1793e+09 2.18032e+09 2.18146e+09 0
000 165 1 1 2.19193e+09 2.19219e+09 2.19321e+09 2.19563e+09 1
001 166 1 1 2.19787e+09 2.19813e+09 2.19915e+09 2.20177e+09 0
001 167 1 1 2.20543e+09 2.20569e+09 2.20671e+09 2.20972e+09 0
001 168 2 1 2.21265e+09 2.21292e+09 2.21394e+09 2.22066e+09 0
000 169 2 1 2.22805e+09 2.22829e+09 2.22931e+09 2.23047e+09 1
000 170 2 0 2.23755e+09 2.2378e+09 2.23882e+09 2.2411e+09 1
001 171 2 0 2.24474e+09 2.24499e+09 2.24602e+09 2.24684e+09 0
001 172 1 0 2.25091e+09 2.25117e+09 2.25219e+09 2.25221e+09 0
000 173 1 0 2.26032e+09 2.26058e+09 2.2616e+09 2.26287e+09 1
000 174 1 0 2.27015e+09 2.2704e+09 2.27142e+09 2.27492e+09 1
000 175 1 1 2.28229e+09 2.28254e+09 2.28356e+09 2.28366e+09 1
001 176 2 1 2.28851e+09 2.28877e+09 2.28979e+09 2.29053e+09 0
000 177 2 1 2.29763e+09 2.29788e+09 2.29891e+09 2.32454e+09 1
000 178 2 1 2.33173e+09 2.33199e+09 2.33301e+09 2.33689e+09 1
000 179 2 0 2.34404e+09 2.3443e+09 2.34532e+09 2.35064e+09 1
001 180 1 0 2.35496e+09 2.35522e+09 2.35624e+09 2.35634e+09 0
000 181 1 1 2.36377e+09 2.36403e+09 2.36505e+09 2.36824e+09 1
001 182 1 1 2.37295e+09 2.37321e+09 2.37423e+09 2.37728e+09 0
001 183 2 1 2.38321e+09 2.38348e+09 2.3845e+09 2.38468e+09 0
000 184 2 1 2.39287e+09 2.39312e+09 2.39415e+09 2.41038e+09 1
000 185 2 0 2.41767e+09 2.41793e+09 2.41895e+09 2.42656e+09 1
001 186 2 0 2.43424e+09 2.43449e+09 2.43551e+09 2.44747e+09 0
001 187 1 0 2.45281e+09 2.45307e+09 2.45409e+09 2.45414e+09 0
000 188 1 0 2.46155e+09 2.46181e+09 2.46283e+09 2.47106e+09 1
000 189 1 0 2.47821e+09 2.47847e+09 2.47949e+09 2.48006e+09 1
000 190 1 0 2.48751e+09 2.48777e+09 2.48879e+09 2.49026e+09 1
000 191 2 1 2.4983e+09 2.49857e+09 2.49959e+09 2.5009e+09 0
000 192 2 0 2.50846e+09 2.50871e+09 2.50974e+09 2.51788e+09 0
001 193 2 1 2.52026e+09 2.52051e+09 2.52153e+09 2.5257e+09 0
000 194 2 0 2.53316e+09 2.53342e+09 2.53444e+09 2.5469e+09 1
001 195 1 1 2.54917e+09 2.54942e+09 2.55044e+09 2.55102e+09 0
001 196 1 0 2.55668e+09 2.55694e+09 2.55797e+09 2.56061e+09 0
000 197 1 0 2.56769e+09 2.56795e+09 2.56897e+09 2.56941e+09 1
000 198 1 1 2.57644e+09 2.5767e+09 2.57772e+09 2.58423e+09 1
001 199 2 1 2.58716e+09 2.58741e+09 2.58843e+09 2.58902e+09 0
000 200 2 1 2.59621e+09 2.59647e+09 2.59749e+09 2.59836e+09 1
000 201 2 1 2.60564e+09 2.60589e+09 2.60691e+09 2.60914e+09 1
000 202 2 1 2.61772e+09 2.61797e+09 2.61899e+09 2.62598e+09 1
000 203 1 0 2.63367e+09 2.63393e+09 2.63495e+09 2.63924e+09 0
000 204 1 1 2.64937e+09 2.64962e+09 2.65065e+09 2.65594e+09 0
001 205 1 1 2.65882e+09 2.65908e+09 2.6601e+09 2.66182e+09 0
001 206 1 1 2.66829e+09 2.66855e+09 2.66957e+09 2.67554e+09 0
001 207 2 1 2.67944e+09 2.67969e+09 2.68071e+09 2.68546e+09 0
000 208 2 0 2.69252e+09 2.69277e+09 2.69379e+09 2.69964e+09 1
001 209 1 1 2.7037e+09 2.70397e+09 2.70499e+09 2.70532e+09 0
001 210 1 1 2.71096e+09 2.71122e+09 2.71224e+09 2.72056e+09 0
001 211 1 0 2.7248e+09 2.72507e+09 2.72609e+09 2.72802e+09 0
000 212 1 1 2.73536e+09 2.73561e+09 2.73663e+09 2.73755e+09 1
001 213 1 1 2.74154e+09 2.74179e+09 2.74281e+09 2.74768e+09 0
001 214 2 0 2.75444e+09 2.7547e+09 2.75572e+09 2.75758e+09 0
001 215 2 0 2.7613e+09 2.76155e+09 2.76257e+09 2.78106e+09 0
001 216 1 1 2.78492e+09 2.78519e+09 2.78621e+09 2.78703e+09 0
001 217 2 1 2.79116e+09 2.79143e+09 2.79245e+09 2.795e+09 0
000 218 2 1 2.8024e+09 2.80266e+09 2.80368e+09 2.81442e+09 1
000 219 2 1 2.8217e+09 2.82196e+09 2.82298e+09 2.82395e+09 1
000 220 2 0 2.83128e+09 2.83154e+09 2.83256e+09 2.83522e+09 1
001 221 1 0 2.83952e+09 2.83977e+09 2.84079e+09 2.84242e+09 0
000 222 1 0 2.85009e+09 2.85034e+09 2.85136e+09 2.85518e+09 1
000 223 1 1 2.8627e+09 2.86297e+09 2.86399e+09 2.86971e+09 1
001 224 2 0 2.8756e+09 2.87585e+09 2.87687e+09 2.87838e+09 0
001 225 1 0 2.88152e+09 2.88178e+09 2.88281e+09 2.90326e+09 0
000 226 1 0 2.91087e+09 2.91112e+09 2.91214e+09 2.91746e+09 1
000 227 1 1 2.92487e+09 2.92514e+09 2.92616e+09 2.93637e+09 1
001 228 1 1 2.94127e+09 2.94152e+09 2.94254e+09 2.94276e+09 0
001 229 1 0 2.94585e+09 2.9461e+09 2.94712e+09 2.94723e+09 0
000 230 1 0 2.95458e+09 2.95483e+09 2.95585e+09 2.95779e+09 1
000 231 1 0 2.96519e+09 2.96544e+09 2.96646e+09 2.97033e+09 1
000 232 1 1 2.97867e+09 2.97893e+09 2.97995e+09 2.98156e+09 1
001 233 2 1 2.98446e+09 2.98472e+09 2.98574e+09 2.99267e+09 0
000 234 2 1 3.0002e+09 3.00045e+09 3.00147e+09 3.00169e+09 1
000 235 2 0 3.00954e+09 3.0098e+09 3.01082e+09 3.01194e+09 1
001 236 2 1 3.01495e+09 3.0152e+09 3.01622e+09 3.0202e+09 0
000 237 2 1 3.02969e+09 3.02995e+09 3.03097e+09 3.0333e+09 1
000 238 2 1 3.04109e+09 3.04135e+09 3.04237e+09 3.04396e+09 1
000 239 2 1 3.05119e+09 3.05145e+09 3.05248e+09 3.0547e+09 1
000 240 1 0 3.06384e+09 3.0641e+09 3.06512e+09 3.06743e+09 0
000 241 1 1 3.07468e+09 3.07494e+09 3.07596e+09 3.07602e+09 0
001 242 2 0 3.08082e+09 3.08107e+09 3.08209e+09 3.09347e+09 0
001 243 1 0 3.09846e+09 3.09872e+09 3.09974e+09 3.10829e+09 0
000 244 1 1 3.11534e+09 3.1156e+09 3.11662e+09 3.11774e+09 1
001 245 2 1 3.12277e+09 3.12303e+09 3.12405e+09 3.12843e+09 0
000 246 2 1 3.13546e+09 3.13572e+09 3.13674e+09 3.14174e+09 1
000 247 2 1 3.14895e+09 3.14921e+09 3.15023e+09 3.15128e+09 1
000 248 2 0 3.1589e+09 3.15916e+09 3.16018e+09 3.16061e+09 1
001 249 1 1 3.16441e+09 3.16466e+09 3.16568e+09 3.17102e+09 0
001 250 2 1 3.17782e+09 3.17808e+09 3.1791e+09 3.19741e+09 0
000 251 2 1 3.20478e+09 3.20503e+09 3.20605e+09 3.21474e+09 1
000 252 2 1 3.22192e+09 3.22217e+09 3.22319e+09 3.22367e+09 1
000 253 2 1 3.23191e+09 3.23217e+09 3.23319e+09 3.23917e+09 1
000 254 1 1 3.24895e+09 3.24921e+09 3.25023e+09 3.2519e+09 0
001 255 2 1 3.25803e+09 3.2583e+09 3.25932e+09 3.26179e+09 0
000 256 2 1 3.27125e+09 3.27151e+09 3.27253e+09 3.27416e+09 1
000 257 2 1 3.28205e+09 3.28231e+09 3.28333e+09 3.28771e+09 1
000 258 2 0 3.29497e+09 3.29522e+09 3.29624e+09 3.31872e+09 1
001 259 1 1 3.32145e+09 3.32171e+09 3.32273e+09 3.32292e+09 0
001 260 2 1 3.32733e+09 3.32759e+09 3.32861e+09 3.33204e+09 0
000 261 2 1 3.34083e+09 3.34109e+09 3.34211e+09 3.34964e+09 1
000 262 2 1 3.35695e+09 3.35721e+09 3.35823e+09 3.35954e+09 1
000 263 2 1 3.36659e+09 3.36684e+09 3.36786e+09 3.38056e+09 1
000 264 2 1 3.38783e+09 3.38808e+09 3.3891e+09 3.40098e+09 0
000 265 1 0 3.40941e+09 3.40967e+09 3.4107e+09 3.44516e+09 0
000 266 2 0 3.45246e+09 3.45273e+09 3.45375e+09 3.4941e+09 0
001 267 2 1 3.49676e+09 3.49701e+09 3.49803e+09 3.49879e+09 0
000 268 2 1 3.50757e+09 3.50784e+09 3.50886e+09 3.5147e+09 1
000 269 2 1 3.52219e+09 3.52244e+09 3.52346e+09 3.54059e+09 1
000 270 2 0 3.55283e+09 3.55309e+09 3.55411e+09 3.55864e+09 1
001 271 1 1 3.56387e+09 3.56413e+09 3.56515e+09 3.56517e+09 0
001 272 1 1 3.56799e+09 3.56825e+09 3.56927e+09 3.56929e+09 0
001 273 1 0 3.57236e+09 3.57262e+09 3.57364e+09 3.57411e+09 0
000 274 1 1 3.58141e+09 3.58166e+09 3.58268e+09 3.59524e+09 1
001 275 2 1 3.59959e+09 3.59986e+09 3.60088e+09 3.6012e+09 0
000 276 2 0 3.60933e+09 3.60959e+09 3.61061e+09 3.61341e+09 1
001 277 2 1 3.61771e+09 3.61797e+09 3.61899e+09 3.62008e+09 0
000 278 2 1 3.62731e+09 3.62757e+09 3.62859e+09 3.63228e+09 1
000 279 2 1 3.63937e+09 3.63963e+09 3.64065e+09 3.64249e+09 1
000 280 2 0 3.6516e+09 3.65186e+09 3.65288e+09 3.65485e+09 1
001 281 2 0 3.66312e+09 3.66338e+09 3.6644e+09 3.6654e+09 0
001 282 1 1 3.66975e+09 3.67e+09 3.67102e+09 3.67305e+09 0
001 283 1 0 3.67529e+09 3.67555e+09 3.67657e+09 3.67881e+09 0
000 284 1 1 3.68815e+09 3.6884e+09 3.68942e+09 3.69096e+09 1
001 285 1 0 3.69453e+09 3.69479e+09 3.69581e+09 3.69584e+09 0
000 286 1 0 3.70332e+09 3.70359e+09 3.70461e+09 3.70756e+09 1
000 287 1 0 3.71648e+09 3.71674e+09 3.71776e+09 3.72527e+09 1
000 288 1 0 3.73339e+09 3.73365e+09 3.73467e+09 3.73515e+09 1
000 289 2 0 3.74261e+09 3.74286e+09 3.74388e+09 3.74759e+09 0
001 290 1 1 3.75119e+09 3.75145e+09 3.75247e+09 3.76111e+09 0
001 291 2 0 3.76528e+09 3.76554e+09 3.76656e+09 3.78619e+09 0
001 292 2 1 3.78897e+09 3.78924e+09 3.79026e+09 3.79636e+09 0
000 293 2 1 3.80445e+09 3.8047e+09 3.80573e+09 3.80861e+09 1
000 294 2 0 3.81614e+09 3.8164e+09 3.81742e+09 3.83052e+09 1
001 295 2 1 3.83313e+09 3.83339e+09 3.83441e+09 3.83959e+09 0
000 296 2 1 3.84674e+09 3.847e+09 3.84802e+09 3.85017e+09 1
000 297 2 0 3.86555e+09 3.86582e+09 3.86684e+09 3.88545e+09 1
001 298 2 0 3.88889e+09 3.88914e+09 3.89016e+09 3.89388e+09 0
001 299 2 1 3.89686e+09 3.89713e+09 3.89815e+09 3.899e+09 0
000 300 2 1 3.90621e+09 3.90647e+09 3.90749e+09 3.99285e+09 1
000 301 2 1 4.00012e+09 4.00037e+09 4.00139e+09 4.02216e+09 1
000 302 2 1 4.02941e+09 4.02966e+09 4.03069e+09 4.03157e+09 1
000 303 2 0 4.04027e+09 4.04054e+09 4.04156e+09 4.05257e+09 0
001 304 1 1 4.05551e+09 4.05577e+09 4.05679e+09 4.05758e+09 0
001 305 2 0 4.0609e+09 4.06116e+09 4.06218e+09 4.06694e+09 0
001 306 2 1 4.07066e+09 4.07093e+09 4.07195e+09 4.08271e+09 0
000 307 2 0 4.09011e+09 4.09037e+09 4.09139e+09 4.09615e+09 1
001 308 2 1 4.10222e+09 4.10248e+09 4.1035e+09 4.11453e+09 0
000 309 2 0 4.12158e+09 4.12185e+09 4.12287e+09 4.12806e+09 1
001 310 1 1 4.13365e+09 4.1339e+09 4.13492e+09 4.13782e+09 0
001 311 2 0 4.14223e+09 4.14248e+09 4.1435e+09 4.15364e+09 0
001 312 2 0 4.15594e+09 4.15622e+09 4.15724e+09 4.19383e+09 0
001 313 2 0 4.19721e+09 4.19747e+09 4.19849e+09 4.20551e+09 0
001 314 1 1 4.21037e+09 4.21062e+09 4.21164e+09 4.21807e+09 0
001 315 1 1 4.22114e+09 4.22139e+09 4.22241e+09 4.22636e+09 0
001 316 1 1 4.23018e+09 4.23045e+09 4.23147e+09 4.2342e+09 0
001 317 1 1 4.23931e+09 4.23957e+09 4.24059e+09 4.24103e+09 0
001 318 1 1 4.2434e+09 4.24366e+09 4.24468e+09 4.26235e+09 0
001 319 1 1 4.2649e+09 4.26516e+09 4.26618e+09 4.26627e+09 0
001 320 1 1 4.26855e+09 4.26881e+09 4.26983e+09 4.28146e+09 0
001 321 1 1 4.28585e+09 4.28611e+09 4.28713e+09 4.2903e+09 0
001 322 2 1 4.29272e+09 4.29298e+09 4.294e+09 2.96017e+07 0
000 323 2 1 3.75562e+07 3.7831e+07 3.88517e+07 4.48638e+07 1
000 324 2 1 5.19967e+07 5.22552e+07 5.32759e+07 5.88558e+07 1
000 325 2 1 6.61156e+07 6.63813e+07 6.74021e+07 7.09812e+07 1
000 326 2 1 7.83299e+07 7.8583e+07 7.96037e+07 8.58693e+07 0
000 327 2 0 9.30949e+07 9.3355e+07 9.43757e+07 9.88679e+07 0
001 328 2 1 1.04166e+08 1.0442e+08 1.0544e+08 1.10415e+08 0
000 329 2 1 1.17978e+08 1.1824e+08 1.1926e+08 1.30824e+08 1
000 330 2 0 1.37954e+08 1.38214e+08 1.39234e+08 1.40321e+08 1
001 331 1 1 1.43734e+08 1.43986e+08 1.45007e+08 1.4513e+08 0
001 332 1 0 1.47675e+08 1.47928e+08 1.48948e+08 1.58565e+08 0
000 333 1 1 1.65983e+08 1.6623e+08 1.67251e+08 1.81038e+08 1
001 334 2 0 1.8359e+08 1.83842e+08 1.84863e+08 1.93572e+08 0
001 335 2 1 1.97173e+08 1.97441e+08 1.98461e+08 2.0171e+08 0
000 336 2 1 2.08953e+08 2.09212e+08 2.10233e+08 2.46771e+08 1
000 337 2 1 2.54064e+08 2.54329e+08 2.55349e+08 2.62393e+08 1
000 338 2 1 2.69901e+08 2.70162e+08 2.71182e+08 2.82419e+08 1
000 339 1 0 2.91086e+08 2.91346e+08 2.92367e+08 3.20999e+08 0
000 340 1 1 3.28538e+08 3.28793e+08 3.29814e+08 3.36797e+08 0
001 341 2 1 3.39964e+08 3.4022e+08 3.41241e+08 3.41585e+08 0
000 342 2 1 3.48848e+08 3.49116e+08 3.50136e+08 3.70248e+08 1
000 343 2 0 3.77744e+08 3.78e+08 3.79021e+08 3.81555e+08 1
001 344 1 1 3.87657e+08 3.87909e+08 3.88929e+08 3.91639e+08 0
001 345 2 1 3.93929e+08 3.9418e+08 3.95201e+08 4.1045e+08 0
000 346 2 1 4.17735e+08 4.18004e+08 4.19025e+08 4.28053e+08 1
000 347 2 1 4.35791e+08 4.36049e+08 4.3707e+08 4.48988e+08 1
000 348 2 1 4.56451e+08 4.56705e+08 4.57726e+08 4.85375e+08 1
000 349 2 1 4.92495e+08 4.92757e+08 4.93778e+08 5.07266e+08 0
000 350 1 0 5.15406e+08 5.15661e+08 5.16682e+08 5.38949e+08 0
000 351 2 0 5.4615e+08 5.46406e+08 5.47426e+08 5.4799e+08 0
001 352 1 1 5.52037e+08 5.52297e+08 5.53318e+08 5.57241e+08 0
001 353 1 0 5.60542e+08 5.60796e+08 5.61816e+08 5.84916e+08 0
000 354 1 1 5.92313e+08 5.92573e+08 5.93594e+08 6.04988e+08 1
001 355 2 1 6.09668e+08 6.0992e+08 6.10941e+08 6.54205e+08 0
000 356 2 0 6.61651e+08 6.61913e+08 6.62934e+08 6.7076e+08 1
001 357 2 0 6.74196e+08 6.74461e+08 6.75481e+08 6.78448e+08 0
001 358 2 1 6.80693e+08 6.8095e+08 6.81971e+08 6.87256e+08 0
000 359 2 1 6.9452e+08 6.94771e+08 6.95792e+08 7.26406e+08 1
000 360 2 0 7.33452e+08 7.33717e+08 7.34738e+08 7.36228e+08 1
001 361 2 0 7.43886e+08 7.44142e+08 7.45162e+08 7.5268e+08 0
001 362 2 1 7.54944e+08 7.55206e+08 7.56226e+08 7.58063e+08 0
000 363 2 0 7.65522e+08 7.65773e+08 7.66794e+08 7.66865e+08 1
001 364 1 1 7.77103e+08 7.77358e+08 7.78379e+08 7.87592e+08 0
001 365 1 0 7.90213e+08 7.90466e+08 7.91487e+08 8.03082e+08 0
000 366 1 1 8.10584e+08 8.1084e+08 8.11861e+08 9.19853e+08 1
001 367 2 1 9.23245e+08 9.23507e+08 9.24528e+08 9.62765e+08 0
000 368 2 1 9.70851e+08 9.71117e+08 9.72138e+08 9.73346e+08 1
000 369 2 1 9.80991e+08 9.81239e+08 9.8226e+08 9.99674e+08 1
000 370 2 0 1.007e+09 1.00726e+09 1.00828e+09 1.04877e+09 1
001 371 2 0 1.0519e+09 1.05216e+09 1.05318e+09 1.06038e+09 0
001 372 1 0 1.06391e+09 1.06418e+09 1.0652e+09 1.07274e+09 0
000 373 1 1 1.08003e+09 1.08028e+09 1.0813e+09 1.08262e+09 1
001 374 2 1 1.08536e+09 1.08561e+09 1.08663e+09 1.12394e+09 0
000 375 2 1 1.13114e+09 1.13138e+09 1.1324e+09 1.13827e+09 1
000 376 2 0 1.14578e+09 1.14602e+09 1.14705e+09 1.16217e+09 1
001 377 2 0 1.16474e+09 1.16499e+09 1.16601e+09 1.16623e+09 0
001 378 1 1 1.16882e+09 1.16908e+09 1.1701e+09 1.18093e+09 0
001 379 1 0 1.18779e+09 1.18805e+09 1.18907e+09 1.19226e+09 0
000 380 1 0 1.19941e+09 1.19967e+09 1.20069e+09 1.20604e+09 1
000 381 1 0 1.21502e+09 1.21528e+09 1.2163e+09 1.22196e+09 1
000 382 1 0 1.22908e+09 1.22934e+09 1.23036e+09 1.23096e+09 1
000 383 2 0 1.23844e+09 1.2387e+09 1.23972e+09 1.25032e+09 0
001 384 1 1 1.25556e+09 1.25583e+09 1.25685e+09 1.25872e+09 0
001 385 2 1 1.26134e+09 1.26159e+09 1.26261e+09 1.27061e+09 0
000 386 2 0 1.27788e+09 1.27814e+09 1.27916e+09 1.28103e+09 1
001 387 2 0 1.2852e+09 1.28546e+09 1.28648e+09 1.30099e+09 0
001 388 2 0 1.30337e+09 1.30362e+09 1.30464e+09 1.31817e+09 0
001 389 2 0 1.32101e+09 1.32126e+09 1.32228e+09 1.32276e+09 0
001 390 1 0 1.32545e+09 1.3257e+09 1.32672e+09 1.32806e+09 0
000 391 1 1 1.33513e+09 1.33539e+09 1.33641e+09 1.34341e+09 1
001 392 1 1 1.34957e+09 1.34983e+09 1.35085e+09 1.35442e+09 0
001 393 2 1 1.35812e+09 1.35839e+09 1.35941e+09 1.35996e+09 0
000 394 2 0 1.36927e+09 1.36952e+09 1.37054e+09 1.3707e+09 1
001 395 2 0 1.37628e+09 1.37654e+09 1.37756e+09 1.38926e+09 0
001 396 1 1 1.39356e+09 1.39382e+09 1.39484e+09 1.39596e+09 0
001 397 1 1 1.3984e+09 1.39866e+09 1.39968e+09 1.40415e+09 0
001 398 2 1 1.40814e+09 1.40839e+09 1.40941e+09 1.41213e+09 0
000 399 2 0 1.42287e+09 1.42313e+09 1.42415e+09 1.42519e+09 1
001 400 1 0 1.42991e+09 1.43016e+09 1.43118e+09 1.43656e+09 0
000 401 1 1 1.44363e+09 1.44388e+09 1.4449e+09 1.4451e+09 1
001 402 2 0 1.44998e+09 1.45024e+09 1.45126e+09 1.45226e+09 0
001 403 1 1 1.45567e+09 1.45592e+09 1.45694e+09 1.46009e+09 0
001 404 2 1 1.46518e+09 1.46543e+09 1.46645e+09 1.4699e+09 0
000 405 2 0 1.47981e+09 1.48007e+09 1.48109e+09 1.48661e+09 1
001 406 1 0 1.49106e+09 1.49132e+09 1.49234e+09 1.49265e+09 0
000 407 1 1 1.50336e+09 1.50361e+09 1.50463e+09 1.50947e+09 1
001 408 2 1 1.51251e+09 1.51276e+09 1.51379e+09 1.53596e+09 0
000 409 2 1 1.54377e+09 1.54403e+09 1.54505e+09 1.55154e+09 1
000 410 2 1 1.5588e+09 1.55906e+09 1.56008e+09 1.5747e+09 1
000 411 2 0 1.5819e+09 1.58215e+09 1.58317e+09 1.58969e+09 1
001 412 2 0 1.59333e+09 1.59359e+09 1.59461e+09 1.62077e+09 0
001 413 1 0 1.62389e+09 1.62415e+09 1.62517e+09 1.63248e+09 0
000 414 1 0 1.63983e+09 1.64009e+09 1.64111e+09 1.6544e+09 1
000 415 1 0 1.66169e+09 1.66195e+09 1.66297e+09 1.66755e+09 1
000 416 1 1 1.67487e+09 1.67513e+09 1.67615e+09 1.67926e+09 1
001 417 2 1 1.68168e+09 1.68193e+09 1.68295e+09 1.683e+09 0
000 418 2 1 1.69116e+09 1.69143e+09 1.69245e+09 1.69598e+09 1
000 419 2 1 1.70434e+09 1.7046e+09 1.70562e+09 1.70609e+09 1
000 420 2 0 1.71324e+09 1.71349e+09 1.71451e+09 1.71778e+09 1
001 421 1 0 1.72407e+09 1.72432e+09 1.72534e+09 1.73453e+09 0
000 422 1 0 1.74256e+09 1.74282e+09 1.74384e+09 1.75084e+09 1
000 423 1 1 1.75807e+09 1.75833e+09 1.75935e+09 1.76306e+09 1
001 424 2 0 1.76648e+09 1.76673e+09 1.76775e+09 1.77245e+09 0
001 425 2 1 1.7756e+09 1.77586e+09 1.77688e+09 1.78783e+09 0
000 426 2 1 1.79493e+09 1.79519e+09 1.79621e+09 1.80911e+09 1
000 427 2 1 1.81623e+09 1.81649e+09 1.81751e+09 1.88314e+09 1
000 428 2 1 1.89042e+09 1.89067e+09 1.89169e+09 1.92396e+09 1
000 429 1 0 1.93908e+09 1.93934e+09 1.94036e+09 1.98405e+09 0
000 430 1 1 1.99135e+09 1.99162e+09 1.99264e+09 1.99914e+09 0
001 431 1 1 2.00154e+09 2.0018e+09 2.00282e+09 2.03616e+09 0
001 432 1 0 2.04914e+09 2.04939e+09 2.05041e+09 2.06028e+09 0
000 433 1 1 2.06751e+09 2.06777e+09 2.06879e+09 2.08033e+09 1
001 434 1 1 2.08643e+09 2.08669e+09 2.08771e+09 2.08899e+09 0
001 435 2 1 2.09158e+09 2.09185e+09 2.09287e+09 2.11938e+09 0
000 436 2 1 2.13623e+09 2.13649e+09 2.13751e+09 2.16257e+09 1
000 437 2 1 2.16975e+09 2.17002e+09 2.17104e+09 2.17473e+09 1
000 438 2 1 2.18238e+09 2.18264e+09 2.18366e+09 2.19079e+09 1
000 439 1 1 2.19818e+09 2.19844e+09 2.19947e+09 2.20408e+09 0
001 440 2 1 2.20739e+09 2.20767e+09 2.20869e+09 2.22196e+09 0
000 441 2 1 2.22899e+09 2.22924e+09 2.23026e+09 2.24137e+09 1
000 442 2 0 2.25683e+09 2.2571e+09 2.25812e+09 2.55356e+09 1
001 