trial trialType response stillTime stimOnset stimOffset respTime correctionTrial correct
001 2 1 6.90177e+06 7.21075e+06 8.23149e+06 1.12141e+07 0 0
002 2 1 4.8085e+07 4.83564e+07 4.93771e+07 4.93833e+07 1 0
003 2 1 6.18158e+07 6.21021e+07 6.31229e+07 6.52694e+07 1 0
004 2 0 7.45861e+07 7.4837e+07 7.58577e+07 7.72131e+07 1 1
005 1 0 9.28164e+07 9.30718e+07 9.40925e+07 9.5558e+07 0 0
006 1 0 1.16539e+08 1.16797e+08 1.17817e+08 1.17837e+08 1 0
007 1 0 1.29509e+08 1.29763e+08 1.30784e+08 1.31942e+08 1 0
008 1 1 1.62266e+08 1.62518e+08 1.63539e+08 1.64547e+08 1 1
009 2 1 1.68885e+08 1.69147e+08 1.70167e+08 1.71851e+08 0 0
010 2 0 1.81162e+08 1.81416e+08 1.82437e+08 1.83264e+08 1 1
011 1 0 1.86277e+08 1.86542e+08 1.87563e+08 1.89724e+08 0 0
012 1 0 1.98797e+08 1.99062e+08 2.00083e+08 2.01464e+08 1 0
013 1 1 2.16512e+08 2.16772e+08 2.17792e+08 2.18008e+08 1 1
014 1 0 2.29803e+08 2.30067e+08 2.31088e+08 2.3283e+08 0 0
015 1 0 2.42629e+08 2.4289e+08 2.4391e+08 2.45347e+08 1 0
016 1 0 2.534e+08 2.53662e+08 2.54682e+08 2.56462e+08 1 0
017 1 0 2.64896e+08 2.65158e+08 2.66179e+08 2.66262e+08 1 0
018 1 0 2.77593e+08 2.77854e+08 2.78875e+08 2.79027e+08 0 0
019 1 0 2.89995e+08 2.90244e+08 2.91265e+08 2.91521e+08 0 0
020 2 0 3.02665e+08 3.02916e+08 3.03937e+08 3.04178e+08 0 1
021 2 1 3.43689e+08 3.43943e+08 3.44964e+08 3.46621e+08 0 0
022 2 0 3.54226e+08 3.5448e+08 3.55501e+08 3.55511e+08 1 1
023 2 1 3.58279e+08 3.58535e+08 3.59556e+08 3.68113e+08 0 0
024 2 0 3.77551e+08 3.77816e+08 3.78837e+08 3.79039e+08 1 1
025 1 1 3.83632e+08 3.83885e+08 3.84906e+08 3.88813e+08 0 1
026 1 0 4.1047e+08 4.10739e+08 4.1176e+08 4.13381e+08 0 0
027 1 0 4.20516e+08 4.20772e+08 4.21792e+08 4.23033e+08 1 0
028 1 0 4.38808e+08 4.39077e+08 4.40097e+08 4.40433e+08 1 0
029 1 0 4.6777e+08 4.68029e+08 4.6905e+08 4.72466e+08 1 0
030 2 0 4.80145e+08 4.80391e+08 4.81412e+08 4.81581e+08 0 1
031 2 0 4.84386e+08 4.84648e+08 4.85668e+08 4.89974e+08 0 1
032 1 1 4.92851e+08 4.93111e+08 4.94132e+08 4.98576e+08 0 1
033 2 0 5.02108e+08 5.02376e+08 5.03397e+08 5.05675e+08 0 1
034 1 1 5.24226e+08 5.24486e+08 5.25507e+08 5.26787e+08 0 1
035 2 1 5.68617e+08 5.68868e+08 5.69889e+08 5.72679e+08 0 0
036 2 1 5.93372e+08 5.93621e+08 5.94642e+08 5.94669e+08 1 0
037 2 0 6.10894e+08 6.11151e+08 6.12172e+08 6.12215e+08 1 1
038 2 0 6.36671e+08 6.36929e+08 6.3795e+08 6.38403e+08 0 1
039 1 0 6.42497e+08 6.42763e+08 6.43784e+08 6.44864e+08 0 0
040 1 1 6.55896e+08 6.56154e+08 6.57175e+08 6.57427e+08 1 1
041 2 0 6.69087e+08 6.69356e+08 6.70376e+08 6.71203e+08 0 1
042 2 0 6.74517e+08 6.74774e+08 6.75794e+08 6.76772e+08 0 1
043 2 1 6.8852e+08 6.88776e+08 6.89797e+08 6.90465e+08 0 0
044 2 0 7.22896e+08 7.23157e+08 7.24178e+08 7.29163e+08 1 1
045 2 0 7.32244e+08 7.32507e+08 7.33527e+08 7.36508e+08 0 1
046 1 0 7.3936e+08 7.39619e+08 7.4064e+08 7.40984e+08 0 0
047 1 0 7.80591e+08 7.80839e+08 7.8186e+08 7.84133e+08 1 0
048 1 0 8.01571e+08 8.01834e+08 8.02854e+08 8.03213e+08 1 0
049 1 1 8.14652e+08 8.14912e+08 8.15933e+08 8.17218e+08 1 1
050 1 0 8.42016e+08 8.42272e+08 8.43293e+08 8.43568e+08 0 0
051 1 1 8.56215e+08 8.56482e+08 8.57503e+08 8.58759e+08 1 1
052 2 1 9.11854e+08 9.12115e+08 9.13136e+08 9.1328e+08 0 0
053 2 0 9.28605e+08 9.28856e+08 9.29877e+08 9.31417e+08 1 1
054 2 0 9.47626e+08 9.47882e+08 9.48903e+08 9.54399e+08 0 1
055 1 1 9.5717e+08 9.57428e+08 9.58449e+08 9.62916e+08 0 1
056 1 1 9.65905e+08 9.6617e+08 9.67191e+08 9.74318e+08 0 1
057 1 1 9.77132e+08 9.77394e+08 9.78414e+08 9.78993e+08 0 1
058 2 1 9.94536e+08 9.94792e+08 9.95813e+08 9.96486e+08 0 0
059 2 0 1.02392e+09 1.02418e+09 1.0252e+09 1.0333e+09 1 1
060 2 1 1.04446e+09 1.04472e+09 1.04575e+09 1.04622e+09 0 0
061 2 1 1.06101e+09 1.06128e+09 1.0623e+09 1.06541e+09 1 0
062 2 1 1.07261e+09 1.07287e+09 1.07389e+09 1.07493e+09 1 0
063 2 1 1.0856e+09 1.08586e+09 1.08688e+09 1.08881e+09 1 0
064 2 1 1.09681e+09 1.09708e+09 1.0981e+09 1.09817e+09 0 0
065 1 0 1.11508e+09 1.11533e+09 1.11635e+09 1.11672e+09 0 0
066 2 1 1.12716e+09 1.12742e+09 1.12844e+09 1.13087e+09 0 0
067 1 0 1.15617e+09 1.15643e+09 1.15745e+09 1.15791e+09 0 0
068 1 1 1.17276e+09 1.17301e+09 1.17404e+09 1.17624e+09 0 1
069 2 0 1.17987e+09 1.18014e+09 1.18116e+09 1.18268e+09 0 1
070 1 0 1.19016e+09 1.19043e+09 1.19145e+09 1.19416e+09 0 0
071 1 0 1.21242e+09 1.21267e+09 1.21369e+09 1.21411e+09 1 0
072 1 0 1.22973e+09 1.22998e+09 1.231e+09 1.23207e+09 1 0
073 1 0 1.25345e+09 1.2537e+09 1.25473e+09 1.25547e+09 1 0
074 2 1 1.26305e+09 1.26331e+09 1.26433e+09 1.26823e+09 0 0
075 2 0 1.2911e+09 1.29136e+09 1.29238e+09 1.29455e+09 0 1
076 1 0 1.30806e+09 1.30833e+09 1.30935e+09 1.30937e+09 0 0
077 1 0 1.3179e+09 1.31815e+09 1.31917e+09 1.31973e+09 1 0
078 1 1 1.3308e+09 1.33105e+09 1.33207e+09 1.33301e+09 1 1
079 2 1 1.33642e+09 1.33668e+09 1.3377e+09 1.33903e+09 0 0
080 2 0 1.35633e+09 1.3566e+09 1.35762e+09 1.36043e+09 1 1
081 2 0 1.37051e+09 1.37077e+09 1.37179e+09 1.3727e+09 0 1
082 1 0 1.3753e+09 1.37556e+09 1.37658e+09 1.38208e+09 0 0
083 1 1 1.39638e+09 1.39664e+09 1.39766e+09 1.3982e+09 1 1
084 2 0 1.40377e+09 1.40404e+09 1.40506e+09 1.40663e+09 0 1
085 1 0 1.40916e+09 1.40941e+09 1.41043e+09 1.41145e+09 0 0
086 1 0 1.42369e+09 1.42394e+09 1.42496e+09 1.4251e+09 1 0
087 1 0 1.4347e+09 1.43495e+09 1.43597e+09 1.43734e+09 1 0
088 1 1 1.45726e+09 1.45751e+09 1.45853e+09 1.45873e+09 1 1
089 1 0 1.56843e+09 1.56868e+09 1.56971e+09 1.56998e+09 0 0
090 1 0 1.58407e+09 1.58432e+09 1.58534e+09 1.58701e+09 1 0
091 1 1 1.61209e+09 1.61235e+09 1.61337e+09 1.61445e+09 1 1
092 1 1 1.63001e+09 1.63027e+09 1.63129e+09 1.6335e+09 0 1
093 1 1 1.63601e+09 1.63627e+09 1.63729e+09 1.638e+09 0 1
094 1 0 1.66091e+09 1.66116e+09 1.66218e+09 1.66239e+09 0 0
095 1 1 1.66966e+09 1.66993e+09 1.67095e+09 1.6713e+09 1 1
096 2 0 1.69059e+09 1.69085e+09 1.69187e+09 1.69209e+09 0 1
097 1 0 1.71868e+09 1.71894e+09 1.71996e+09 1.72017e+09 0 0
098 1 0 1.73811e+09 1.73836e+09 1.73938e+09 1.73968e+09 1 0
099 1 1 1.77504e+09 1.77531e+09 1.77633e+09 1.77715e+09 1 1
100 2 1 1.7798e+09 1.78005e+09 1.78107e+09 1.78435e+09 0 0
101 2 0 1.79172e+09 1.79198e+09 1.793e+09 1.79312e+09 1 1
102 1 0 1.84252e+09 1.84277e+09 1.84379e+09 1.84427e+09 0 0
103 1 1 1.8557e+09 1.85595e+09 1.85697e+09 1.85711e+09 1 1
104 2 1 1.88728e+09 1.88754e+09 1.88857e+09 1.89059e+09 0 0
105 2 0 1.89776e+09 1.89802e+09 1.89904e+09 1.90064e+09 1 1
106 1 1 1.9042e+09 1.90446e+09 1.90548e+09 1.91537e+09 0 1
107 1 0 1.94333e+09 1.94359e+09 1.94461e+09 1.94485e+09 0 0
108 1 1 1.96056e+09 1.96083e+09 1.96185e+09 1.96268e+09 1 1
109 2 0 1.98417e+09 1.98443e+09 1.98545e+09 1.98568e+09 0 1
110 2 1 1.98859e+09 1.98884e+09 1.98986e+09 1.99247e+09 0 0
111 2 0 2.00399e+09 2.00425e+09 2.00527e+09 2.00545e+09 1 1
112 2 1 2.03741e+09 2.03768e+09 2.0387e+09 2.03945e+09 0 0
113 2 1 2.05629e+09 2.05656e+09 2.05758e+09 2.05782e+09 1 0
114 2 1 2.0765e+09 2.07676e+09 2.07778e+09 2.0782e+09 1 0
115 2 0 2.09629e+09 2.09655e+09 2.09757e+09 2.09795e+09 1 1
116 2 1 2.1339e+09 2.13417e+09 2.13519e+09 2.13688e+09 0 0
117 2 0 2.15042e+09 2.15069e+09 2.15171e+09 2.15262e+09 1 1
118 1 0 2.1575e+09 2.15776e+09 2.15878e+09 2.16056e+09 0 0
119 1 1 2.18055e+09 2.18081e+09 2.18184e+09 2.18559e+09 1 1
120 1 1 2.1913e+09 2.19156e+09 2.19258e+09 2.19323e+09 0 1
121 2 0 2.25707e+09 2.25733e+09 2.25835e+09 2.25914e+09 0 1
122 2 1 2.27521e+09 2.27545e+09 2.27647e+09 2.27671e+09 0 0
123 2 0 2.28384e+09 2.2841e+09 2.28512e+09 2.28576e+09 1 1
124 1 1 2.32959e+09 2.32985e+09 2.33087e+09 2.33133e+09 0 1
125 1 1 2.45325e+09 2.45351e+09 2.45453e+09 2.45651e+09 0 1
126 1 0 2.52054e+09 2.52081e+09 2.52183e+09 2.52213e+09 0 0
127 1 0 2.53346e+09 2.53372e+09 2.53474e+09 2.5392e+09 1 0
128 1 0 2.55961e+09 2.55987e+09 2.56089e+09 2.56126e+09 1 0
129 1 0 2.57272e+09 2.57297e+09 2.57399e+09 2.5741e+09 1 0
130 2 0 2.58197e+09 2.58223e+09 2.58325e+09 2.58346e+09 0 1
131 2 1 2.61343e+09 2.61367e+09 2.6147e+09 2.6148e+09 0 0
132 2 0 2.62291e+09 2.62317e+09 2.62419e+09 2.62654e+09 1 1
133 2 0 2.6397e+09 2.63995e+09 2.64097e+09 2.64329e+09 0 1
134 1 0 2.66818e+09 2.66843e+09 2.66945e+09 2.67363e+09 0 0
135 1 0 2.74825e+09 2.7485e+09 2.74952e+09 2.75081e+09 1 0
136 1 0 2.77534e+09 2.77559e+09 2.77661e+09 2.77693e+09 1 0
137 1 0 2.79149e+09 2.79174e+09 2.79277e+09 2.79294e+09 1 0
138 2 1 2.80933e+09 2.80959e+09 2.81061e+09 2.81069e+09 0 0
139 1 0 2.83178e+09 2.83204e+09 2.83306e+09 2.83341e+09 0 0
140 1 0 2.86879e+09 2.86905e+09 2.87007e+09 2.87021e+09 0 0
141 2 0 2.88725e+09 2.8875e+09 2.88852e+09 2.88866e+09 0 1
142 1 1 2.92647e+09 2.92673e+09 2.92775e+09 2.92781e+09 0 1
143 1 1 2.99807e+09 2.99832e+09 2.99934e+09 3.00003e+09 0 1
144 2 0 3.00993e+09 3.01019e+09 3.01121e+09 3.01246e+09 0 1
145 2 0 3.02928e+09 3.02954e+09 3.03056e+09 3.03104e+09 0 1
146 1 0 3.04167e+09 3.04193e+09 3.04295e+09 3.04374e+09 0 0
147 1 1 3.05421e+09 3.05446e+09 3.05548e+09 3.056e+09 1 1
148 2 0 3.12905e+09 3.12931e+09 3.13033e+09 3.13103e+09 0 1
149 1 0 3.13638e+09 3.13665e+09 3.13767e+09 3.13772e+09 0 0
150 1 0 3.18205e+09 3.18231e+09 3.18333e+09 3.1835e+09 1 0
151 1 0 3.23884e+09 3.2391e+09 3.24012e+09 3.24019e+09 1 0
152 1 0 3.28161e+09 3.28186e+09 3.28289e+09 3.28363e+09 1 0
153 2 0 3.31957e+09 3.31982e+09 3.32084e+09 3.32219e+09 0 1
154 2 1 3.32882e+09 3.32907e+09 3.33009e+09 3.33078e+09 0 0
155 2 0 3.43193e+09 3.43219e+09 3.43321e+09 3.43501e+09 1 1
156 1 0 3.48929e+09 3.48957e+09 3.4906e+09 3.49219e+09 0 0
157 1 1 3.52523e+09 3.52548e+09 3.5265e+09 3.52765e+09 1 1
158 2 0 3.53043e+09 3.53069e+09 3.53171e+09 3.5321e+09 0 1
159 2 0 3.63957e+09 3.63982e+09 3.64084e+09 3.64093e+09 0 1
160 1 0 3.64359e+09 3.64385e+09 3.64487e+09 3.64519e+09 0 0
161 1 0 3.65373e+09 3.65399e+09 3.65502e+09 3.65549e+09 1 0
162 1 0 3.67782e+09 3.67807e+09 3.67909e+09 3.67911e+09 1 0
163 1 0 3.70376e+09 3.70402e+09 3.70504e+09 3.70511e+09 1 0
164 2 0 3.71371e+09 3.71396e+09 3.71498e+09 3.71588e+09 0 1
165 1 0 3.71864e+09 3.7189e+09 3.71992e+09 3.72332e+09 0 0
166 1 0 3.73269e+09 3.73295e+09 3.73397e+09 3.73461e+09 1 0
167 1 0 3.7453e+09 3.74555e+09 3.74657e+09 3.75207e+09 1 0
168 1 0 3.80037e+09 3.80063e+09 3.80165e+09 3.80301e+09 1 0
169 2 0 3.81499e+09 3.81524e+09 3.81626e+09 3.81711e+09 0 1
170 1 0 3.81966e+09 3.81992e+09 3.82094e+09 3.82396e+09 0 0
171 1 0 3.86038e+09 3.86063e+09 3.86165e+09 3.86205e+09 1 0
172 1 0 3.88412e+09 3.88437e+09 3.88539e+09 3.88642e+09 1 0
173 1 0 3.95564e+09 3.95591e+09 3.95693e+09 3.96068e+09 1 0
174 1 1 3.97758e+09 3.97784e+09 3.97886e+09 3.97899e+09 0 1
175 1 0 3.98208e+09 3.98235e+09 3.98337e+09 3.98759e+09 0 0
176 1 0 4.02499e+09 4.02524e+09 4.02626e+09 4.02663e+09 1 0
177 1 0 4.0353e+09 4.03555e+09 4.03657e+09 4.03659e+09 1 0
178 1 1 4.0951e+09 4.09536e+09 4.09638e+09 4.09785e+09 1 1
179 1 0 4.10251e+09 4.10276e+09 4.10378e+09 4.10396e+09 0 0
180 1 0 4.23002e+09 4.23029e+09 4.23131e+09 4.23135e+09 1 0
181 1 0 4.27402e+09 4.27428e+09 4.27531e+09 4.27638e+09 1 0
182 1 0 4.28432e+09 4.28457e+09 4.28559e+09 4.28679e+09 1 0
183 2 0 1.35272e+06 1.61287e+06 2.63362e+06 2.63908e+06 0 1
184 1 0 5.43336e+06 5.68423e+06 6.70497e+06 1.20299e+07 0 0
185 1 1 3.58339e+07 3.60941e+07 3.71148e+07 5.09605e+07 1 1
186 1 0 6.08727e+07 6.11281e+07 6.21488e+07 6.22579e+07 0 0
187 1 1 7.19452e+07 7.2203e+07 7.32237e+07 9.1186e+07 1 1
188 1 0 9.408e+07 9.43299e+07 9.53506e+07 1.00383e+08 0 0
189 1 0 1.08908e+08 1.09162e+08 1.10183e+08 1.1065e+08 1 0
190 1 0 1.19214e+08 1.19471e+08 1.20492e+08 1.33115e+08 1 0
191 1 0 1.4265e+08 1.42914e+08 1.43934e+08 1.49741e+08 1 0
192 1 0 1.60783e+08 1.61032e+08 1.62053e+08 1.7299e+08 0 0
193 2 0 1.80323e+08 1.80579e+08 1.816e+08 1.82542e+08 0 1
194 1 1 1.85469e+08 1.85716e+08 1.86736e+08 1.88999e+08 0 1
195 2 0 1.91655e+08 1.91902e+08 1.92923e+08 1.93215e+08 0 1
196 2 1 2.35279e+08 2.3553e+08 2.3655e+08 2.36584e+08 0 0
197 2 0 2.46228e+08 2.46481e+08 2.47502e+08 2.48014e+08 1 1
198 1 0 2.5055e+08 2.50815e+08 2.51836e+08 2.54983e+08 0 0
199 1 0 2.70445e+08 2.70697e+08 2.71718e+08 2.72682e+08 1 0
200 1 0 2.80713e+08 2.80963e+08 2.81984e+08 2.82993e+08 1 0
201 1 1 3.10387e+08 3.1064e+08 3.11661e+08 3.1188e+08 1 1
202 2 1 3.51866e+08 3.52114e+08 3.53134e+08 3.53438e+08 0 0
203 2 1 3.72041e+08 3.72286e+08 3.73307e+08 3.75766e+08 1 0
204 2 0 3.8331e+08 3.83566e+08 3.84587e+08 3.86561e+08 1 1
205 2 0 3.89268e+08 3.89523e+08 3.90543e+08 3.95254e+08 0 1
206 2 0 3.98089e+08 3.98349e+08 3.9937e+08 4.0484e+08 0 1
207 2 1 4.07843e+08 4.081e+08 4.09121e+08 4.13669e+08 0 0
208 2 0 4.27964e+08 4.28218e+08 4.29238e+08 4.29648e+08 1 1
209 2 1 4.5659e+08 4.56847e+08 4.57868e+08 4.59474e+08 0 0
210 2 0 4.67819e+08 4.68079e+08 4.691e+08 4.70386e+08 1 1
211 1 1 4.81829e+08 4.82084e+08 4.83105e+08 4.84283e+08 0 1
212 1 0 4.8994e+08 4.90195e+08 4.91216e+08 4.91292e+08 0 0
213 1 0 5.51833e+08 5.52086e+08 5.53106e+08 5.53242e+08 1 0
214 1 1 5.78948e+08 5.79209e+08 5.8023e+08 5.80828e+08 1 1
215 2 1 5.84528e+08 5.84781e+08 5.85802e+08 5.85869e+08 0 0
216 2 0 6.02757e+08 6.03014e+08 6.04035e+08 6.1785e+08 1 1
217 2 1 6.40512e+08 6.40765e+08 6.41786e+08 6.4233e+08 0 0
218 2 0 6.54479e+08 6.54737e+08 6.55758e+08 6.56823e+08 1 1
219 1 1 6.80657e+08 6.80916e+08 6.81937e+08 6.84244e+08 0 1
220 1 1 7.10166e+08 7.1042e+08 7.1144e+08 7.12031e+08 0 1
221 2 1 7.26692e+08 7.2695e+08 7.2797e+08 7.3279e+08 0 0
222 2 0 7.41054e+08 7.41301e+08 7.42322e+08 7.56301e+08 1 1
223 2 0 7.75713e+08 7.75967e+08 7.76987e+08 7.77258e+08 0 1
224 1 1 8.64101e+08 8.64355e+08 8.65376e+08 8.66828e+08 0 1
225 1 0 9.06206e+08 9.06457e+08 9.07478e+08 9.08622e+08 0 0
226 1 0 9.32857e+08 9.33116e+08 9.34137e+08 9.42172e+08 1 0
227 1 0 9.53789e+08 9.54047e+08 9.55067e+08 9.62546e+08 1 0
228 1 0 9.69901e+08 9.70147e+08 9.71168e+08 9.73726e+08 1 0
229 2 1 9.84055e+08 9.84318e+08 9.85339e+08 9.92957e+08 0 0
230 1 0 1.00081e+09 1.00106e+09 1.00208e+09 1.00257e+09 0 0
231 1 1 1.01003e+09 1.01029e+09 1.01131e+09 1.01155e+09 0 1
232 2 1 1.0232e+09 1.02345e+09 1.02447e+09 1.02646e+09 0 0
233 2 0 1.03589e+09 1.03614e+09 1.03717e+09 1.05599e+09 1 1
234 2 1 1.06576e+09 1.06602e+09 1.06704e+09 1.0683e+09 0 0
235 2 0 1.08337e+09 1.08362e+09 1.08465e+09 1.08471e+09 1 1
236 2 0 1.09138e+09 1.09164e+09 1.09266e+09 1.0943e+09 0 1
237 1 0 1.11632e+09 1.11657e+09 1.11759e+09 1.11768e+09 0 0
238 1 0 1.13618e+09 1.13643e+09 1.13745e+09 1.1395e+09 1 0
239 1 1 1.14743e+09 1.14768e+09 1.1487e+09 1.15156e+09 1 1
240 2 1 1.21293e+09 1.21319e+09 1.21421e+09 1.22715e+09 0 0
241 2 1 1.23626e+09 1.23652e+09 1.23754e+09 1.23764e+09 1 0
242 2 0 1.27636e+09 1.27661e+09 1.27763e+09 1.27873e+09 1 1
243 2 1 1.3025e+09 1.30276e+09 1.30378e+09 1.30383e+09 0 0
244 2 0 1.312e+09 1.31225e+09 1.31327e+09 1.3373e+09 1 1
245 2 1 1.34669e+09 1.34695e+09 1.34797e+09 1.34976e+09 0 0
246 2 0 1.36163e+09 1.36188e+09 1.3629e+09 1.36605e+09 1 1
247 1 0 1.4065e+09 1.40676e+09 1.40778e+09 1.4085e+09 0 0
248 1 0 1.4239e+09 1.42416e+09 1.42518e+09 1.42548e+09 1 0
249 1 0 1.44997e+09 1.45021e+09 1.45124e+09 1.45198e+09 1 0
250 1 1 1.47426e+09 1.47452e+09 1.47554e+09 1.47565e+09 1 1
251 1 0 1.50732e+09 1.50758e+09 1.5086e+09 1.50866e+09 0 0
252 1 1 1.51632e+09 1.51658e+09 1.5176e+09 1.51831e+09 1 1
253 1 0 1.53667e+09 1.53693e+09 1.53795e+09 1.53858e+09 0 0
254 1 0 1.55263e+09 1.55289e+09 1.55391e+09 1.55451e+09 1 0
255 1 0 1.56579e+09 1.56605e+09 1.56707e+09 1.60477e+09 1 0
256 1 0 1.61595e+09 1.61621e+09 1.61723e+09 1.6179e+09 1 0
257 2 0 1.6324e+09 1.63265e+09 1.63367e+09 1.63375e+09 0 1
258 2 0 1.64546e+09 1.64572e+09 1.64674e+09 1.6468e+09 0 1
259 1 1 1.6887e+09 1.68894e+09 1.68997e+09 1.69031e+09 0 1
260 2 0 1.69425e+09 1.69451e+09 1.69553e+09 1.69858e+09 0 1
261 2 1 1.7043e+09 1.70455e+09 1.70557e+09 1.70624e+09 0 0
262 2 1 1.71574e+09 1.71599e+09 1.71701e+09 1.71872e+09 1 0
263 2 0 1.76014e+09 1.76039e+09 1.76141e+09 1.76273e+09 1 1
264 1 0 1.7748e+09 1.77504e+09 1.77607e+09 1.77608e+09 0 0
265 1 0 1.8002e+09 1.80045e+09 1.80147e+09 1.80246e+09 1 0
266 1 0 1.8307e+09 1.83095e+09 1.83197e+09 1.83199e+09 1 0
267 1 0 1.84195e+09 1.84221e+09 1.84323e+09 1.84363e+09 1 0
268 1 0 1.86598e+09 1.86623e+09 1.86725e+09 1.89264e+09 0 0
269 2 0 1.90769e+09 1.90794e+09 1.90896e+09 1.90997e+09 0 1
270 2 1 1.92007e+09 1.92032e+09 1.92134e+09 1.92198e+09 0 0
271 2 1 1.92985e+09 1.9301e+09 1.93112e+09 1.93397e+09 1 0
272 2 1 1.94463e+09 1.94489e+09 1.94591e+09 1.94677e+09 1 0
273 2 0 1.97354e+09 1.9738e+09 1.97482e+09 1.98007e+09 1 1
274 1 0 2.03151e+09 2.03176e+09 2.03278e+09 2.03318e+09 0 0
275 1 1 2.052e+09 2.05225e+09 2.05327e+09 2.05329e+09 1 1
276 2 1 2.07097e+09 2.07122e+09 2.07224e+09 2.07252e+09 0 0
277 2 0 2.08319e+09 2.08344e+09 2.08446e+09 2.12325e+09 1 1
278 2 0 2.12598e+09 2.12623e+09 2.12725e+09 2.12783e+09 0 1
279 1 1 2.13086e+09 2.13111e+09 2.13213e+09 2.13218e+09 0 1
280 2 1 2.13571e+09 2.13595e+09 2.13697e+09 2.13833e+09 0 0
281 2 0 2.15782e+09 2.15807e+09 2.15909e+09 2.19299e+09 1 1
282 1 0 2.19595e+09 2.19621e+09 2.19723e+09 2.19883e+09 0 0
283 1 1 2.21653e+09 2.21678e+09 2.2178e+09 2.21791e+09 1 1
284 1 1 2.27574e+09 2.276e+09 2.27702e+09 2.27727e+09 0 1
285 1 0 2.27981e+09 2.28006e+09 2.28108e+09 2.28126e+09 0 0
286 1 1 2.29331e+09 2.29357e+09 2.29459e+09 2.29483e+09 1 1
287 2 0 2.30339e+09 2.30365e+09 2.30467e+09 2.30495e+09 0 1
288 1 0 2.30791e+09 2.30816e+09 2.30918e+09 2.30945e+09 0 0
289 1 0 2.31887e+09 2.31913e+09 2.32015e+09 2.32352e+09 1 0
290 1 0 2.35735e+09 2.3576e+09 2.35862e+09 2.41848e+09 1 0
