trial trialType response stillTime stimOnset stimOffset respTime correctionTrial correct
001 1 0 6.79835e+06 7.10657e+06 8.1273e+06 7.17214e+08 0
000 002 1 0 7.26113e+08 7.2638e+08 7.27401e+08 7.27736e+08 1
000 003 1 0 7.37901e+08 7.38185e+08 7.39206e+08 7.39561e+08 1
000 004 1 1 7.51223e+08 7.51481e+08 7.52502e+08 7.53566e+08 1
001 005 1 0 7.57171e+08 7.5743e+08 7.58451e+08 7.58645e+08 0
000 006 1 0 7.68446e+08 7.68709e+08 7.6973e+08 7.73491e+08 1
000 007 1 1 7.84172e+08 7.8444e+08 7.85461e+08 7.865e+08 1
001 008 2 0 7.90997e+08 7.91266e+08 7.92287e+08 8.02524e+08 0
001 009 2 0 8.05492e+08 8.05752e+08 8.06773e+08 8.08599e+08 0
001 010 2 1 8.21883e+08 8.22142e+08 8.23163e+08 8.27316e+08 0
000 011 2 1 8.39416e+08 8.39672e+08 8.40693e+08 8.40697e+08 1
000 012 2 1 8.52361e+08 8.52613e+08 8.53634e+08 8.53636e+08 1
000 013 2 0 8.61428e+08 8.61679e+08 8.627e+08 8.704e+08 1
001 014 2 0 8.74153e+08 8.74401e+08 8.75422e+08 8.7664e+08 0
001 015 2 1 8.80914e+08 8.81172e+08 8.82193e+08 8.83106e+08 0
000 016 2 1 8.90152e+08 8.90406e+08 8.91426e+08 8.93749e+08 1
000 017 2 0 9.0914e+08 9.09395e+08 9.10415e+08 9.46607e+08 1
001 018 2 1 9.49378e+08 9.49635e+08 9.50656e+08 9.53517e+08 0
000 019 2 0 9.70199e+08 9.7046e+08 9.71481e+08 9.72636e+08 1
001 020 1 1 9.80025e+08 9.80275e+08 9.81296e+08 9.8645e+08 0
001 021 1 0 9.89715e+08 9.89978e+08 9.90998e+08 1.00548e+09 0
000 022 1 1 1.01343e+09 1.01369e+09 1.01471e+09 1.01618e+09 1
001 023 1 1 1.01894e+09 1.0192e+09 1.02022e+09 1.02406e+09 0
001 024 1 1 1.02678e+09 1.02703e+09 1.02805e+09 1.02984e+09 0
001 025 1 0 1.03547e+09 1.03573e+09 1.03675e+09 1.03956e+09 0
000 026 1 1 1.04703e+09 1.04729e+09 1.04831e+09 1.07177e+09 1
001 027 1 1 1.07659e+09 1.07683e+09 1.07786e+09 1.08153e+09 0
001 028 1 1 1.08645e+09 1.08671e+09 1.08773e+09 1.10603e+09 0
001 029 2 0 1.1097e+09 1.10995e+09 1.11097e+09 1.11401e+09 0
001 030 1 0 1.11694e+09 1.1172e+09 1.11822e+09 1.13063e+09 0
000 031 1 1 1.13836e+09 1.13863e+09 1.13965e+09 1.15519e+09 1
001 032 2 0 1.16046e+09 1.16072e+09 1.16174e+09 1.16332e+09 0
001 033 1 0 1.16586e+09 1.16613e+09 1.16715e+09 1.18345e+09 0
000 034 1 1 1.19716e+09 1.19742e+09 1.19845e+09 1.22127e+09 1
001 035 1 0 1.22407e+09 1.22433e+09 1.22535e+09 1.23308e+09 0
000 036 1 0 1.24025e+09 1.24051e+09 1.24153e+09 1.24181e+09 1
000 037 1 1 1.24933e+09 1.24959e+09 1.25061e+09 1.2527e+09 1
001 038 1 0 1.25697e+09 1.25722e+09 1.25824e+09 1.25847e+09 0
000 039 1 0 1.26559e+09 1.26584e+09 1.26686e+09 1.28199e+09 1
000 040 1 0 1.28934e+09 1.28961e+09 1.29063e+09 1.31216e+09 1
000 041 1 0 1.31967e+09 1.31992e+09 1.32094e+09 1.37551e+09 1
000 042 2 0 1.38278e+09 1.38303e+09 1.38405e+09 1.39104e+09 0
001 043 1 0 1.39723e+09 1.39752e+09 1.39854e+09 1.43187e+09 0
000 044 1 1 1.43924e+09 1.4395e+09 1.44052e+09 1.44298e+09 1
001 045 2 0 1.44745e+09 1.44771e+09 1.44873e+09 1.47144e+09 0
001 046 2 0 1.47424e+09 1.47449e+09 1.47551e+09 1.52165e+09 0
001 047 2 1 1.52542e+09 1.52568e+09 1.5267e+09 1.52758e+09 0
000 048 2 1 1.5347e+09 1.53497e+09 1.53599e+09 1.5423e+09 1
000 049 2 0 1.55041e+09 1.55067e+09 1.55169e+09 1.55731e+09 1
001 050 1 0 1.56133e+09 1.56158e+09 1.5626e+09 1.5843e+09 0
000 051 1 1 1.59134e+09 1.59159e+09 1.59261e+09 1.5972e+09 1
001 052 2 0 1.59983e+09 1.60008e+09 1.6011e+09 1.60403e+09 0
001 053 2 0 1.60729e+09 1.60755e+09 1.60857e+09 1.65474e+09 0
001 054 2 0 1.65874e+09 1.65899e+09 1.66001e+09 1.66285e+09 0
001 055 1 0 1.66562e+09 1.66589e+09 1.66691e+09 1.66766e+09 0
000 056 1 0 1.67655e+09 1.6768e+09 1.67782e+09 1.6952e+09 1
000 057 1 0 1.70997e+09 1.71022e+09 1.71124e+09 1.71128e+09 1
000 058 1 0 1.72071e+09 1.72097e+09 1.72199e+09 1.77369e+09 1
000 059 1 0 1.78082e+09 1.78108e+09 1.7821e+09 1.78466e+09 0
000 060 2 0 1.79242e+09 1.79269e+09 1.79371e+09 1.84552e+09 0
001 061 1 0 1.84963e+09 1.84988e+09 1.8509e+09 1.94574e+09 0
000 062 1 1 1.95395e+09 1.95423e+09 1.95525e+09 1.95551e+09 1
001 063 2 1 1.96378e+09 1.96405e+09 1.96507e+09 1.96511e+09 0
000 064 2 0 1.9733e+09 1.97356e+09 1.97458e+09 1.97709e+09 1
001 065 2 0 1.99202e+09 1.99228e+09 1.9933e+09 2.06174e+09 0
001 066 2 0 2.08103e+09 2.08129e+09 2.08231e+09 2.08557e+09 0
001 067 2 1 2.08862e+09 2.08887e+09 2.08989e+09 2.09058e+09 0
000 068 2 0 2.11086e+09 2.11112e+09 2.11215e+09 2.11439e+09 1
001 069 1 0 2.12746e+09 2.12772e+09 2.12874e+09 2.14148e+09 0
000 070 1 0 2.14895e+09 2.14921e+09 2.15023e+09 2.15082e+09 1
000 071 1 0 2.16197e+09 2.16223e+09 2.16325e+09 2.16371e+09 1
000 072 1 1 2.17471e+09 2.17498e+09 2.176e+09 2.21262e+09 1
001 073 2 0 2.21532e+09 2.21558e+09 2.2166e+09 2.2246e+09 0
001 074 1 1 2.22802e+09 2.22828e+09 2.2293e+09 2.23437e+09 0
001 075 1 0 2.24252e+09 2.24277e+09 2.24379e+09 2.2444e+09 0
000 076 1 0 2.25284e+09 2.25309e+09 2.25411e+09 2.25657e+09 1
000 077 1 1 2.26395e+09 2.26421e+09 2.26523e+09 2.27698e+09 1
001 078 1 0 2.27961e+09 2.27987e+09 2.28089e+09 2.29481e+09 0
000 079 1 0 2.30227e+09 2.30252e+09 2.30355e+09 2.30629e+09 1
000 080 1 0 2.31348e+09 2.31374e+09 2.31476e+09 2.32202e+09 1
000 081 1 0 2.33134e+09 2.33159e+09 2.33261e+09 2.33463e+09 1
000 082 1 0 2.34184e+09 2.34209e+09 2.34311e+09 2.3521e+09 0
000 083 1 0 2.36061e+09 2.36089e+09 2.36191e+09 2.36317e+09 0
000 084 2 0 2.37196e+09 2.37222e+09 2.37324e+09 2.37444e+09 0
001 085 2 0 2.37936e+09 2.37961e+09 2.38063e+09 2.38135e+09 0
001 086 1 0 2.38444e+09 2.38471e+09 2.38573e+09 2.38708e+09 0
000 087 1 0 2.39494e+09 2.39519e+09 2.39621e+09 2.39997e+09 1
000 088 1 0 2.40742e+09 2.40768e+09 2.4087e+09 2.41271e+09 1
000 089 1 0 2.42147e+09 2.42172e+09 2.42275e+09 2.42382e+09 1
000 090 1 0 2.43496e+09 2.43521e+09 2.43623e+09 2.44793e+09 0
000 091 2 0 2.45651e+09 2.45677e+09 2.4578e+09 2.45925e+09 0
001 092 2 0 2.463e+09 2.46325e+09 2.46427e+09 2.46451e+09 0
001 093 1 0 2.49517e+09 2.49543e+09 2.49645e+09 2.50315e+09 0
000 094 1 0 2.51245e+09 2.51272e+09 2.51374e+09 2.51544e+09 1
000 095 1 0 2.52602e+09 2.52628e+09 2.52731e+09 2.53105e+09 1
000 096 1 0 2.53815e+09 2.5384e+09 2.53942e+09 2.54357e+09 1
000 097 2 0 2.55117e+09 2.55142e+09 2.55244e+09 2.55302e+09 0
001 098 1 0 2.55684e+09 2.55711e+09 2.55813e+09 2.56012e+09 0
000 099 1 0 2.56792e+09 2.56818e+09 2.5692e+09 2.57288e+09 1
000 100 1 0 2.58005e+09 2.5803e+09 2.58132e+09 2.58487e+09 1
000 101 1 0 2.59333e+09 2.59359e+09 2.59462e+09 2.59653e+09 1
000 102 2 1 2.6051e+09 2.60534e+09 2.60637e+09 2.6084e+09 0
000 103 1 0 2.61585e+09 2.61611e+09 2.61713e+09 2.61733e+09 0
000 104 1 0 2.62597e+09 2.62622e+09 2.62724e+09 2.62931e+09 0
000 105 2 1 2.63655e+09 2.63682e+09 2.63784e+09 2.63864e+09 0
000 106 2 0 2.64608e+09 2.64633e+09 2.64735e+09 2.67483e+09 0
001 107 1 0 2.67749e+09 2.67775e+09 2.67877e+09 2.67884e+09 0
000 108 1 0 2.70108e+09 2.70134e+09 2.70237e+09 2.70493e+09 1
000 109 1 0 2.71226e+09 2.71252e+09 2.71354e+09 2.71359e+09 1
000 110 1 1 2.72103e+09 2.72128e+09 2.7223e+09 2.73041e+09 1
001 111 1 1 2.73311e+09 2.73335e+09 2.73437e+09 2.73604e+09 0
001 112 2 0 2.74195e+09 2.7422e+09 2.74322e+09 2.74347e+09 0
001 113 2 0 2.76309e+09 2.76335e+09 2.76437e+09 2.76505e+09 0
001 114 2 1 2.77609e+09 2.77635e+09 2.77737e+09 2.77759e+09 0
000 115 2 1 2.79223e+09 2.79249e+09 2.79351e+09 2.8421e+09 1
000 116 2 0 2.85093e+09 2.85119e+09 2.85221e+09 2.85427e+09 1
001 117 2 0 2.86449e+09 2.86474e+09 2.86576e+09 2.86606e+09 0
001 118 2 0 2.87056e+09 2.87083e+09 2.87185e+09 2.8725e+09 0
001 119 2 1 2.8819e+09 2.88216e+09 2.88318e+09 2.88329e+09 0
000 120 2 0 2.89267e+09 2.89294e+09 2.89396e+09 2.89515e+09 1
001 121 1 0 2.90112e+09 2.90139e+09 2.90241e+09 2.90484e+09 0
000 122 1 1 2.91193e+09 2.91219e+09 2.91321e+09 2.95413e+09 1
001 123 1 0 2.96037e+09 2.96062e+09 2.96164e+09 2.96192e+09 0
000 124 1 0 2.97198e+09 2.97223e+09 2.97326e+09 2.97691e+09 1
000 125 1 1 2.98902e+09 2.98928e+09 2.9903e+09 2.99315e+09 1
001 126 2 1 2.998e+09 2.99825e+09 2.99927e+09 3.00467e+09 0
000 127 2 1 3.01181e+09 3.01206e+09 3.01308e+09 3.01635e+09 1
000 128 2 0 3.024e+09 3.02426e+09 3.02528e+09 3.03118e+09 1
001 129 2 0 3.03545e+09 3.0357e+09 3.03672e+09 3.07096e+09 0
001 130 1 1 3.07532e+09 3.07557e+09 3.07659e+09 3.08173e+09 0
001 131 1 1 3.08922e+09 3.08947e+09 3.09049e+09 3.09212e+09 0
001 132 1 0 3.0952e+09 3.09545e+09 3.09647e+09 3.1074e+09 0
000 133 1 1 3.11451e+09 3.11477e+09 3.11579e+09 3.11592e+09 1
001 134 1 0 3.12503e+09 3.12528e+09 3.12631e+09 3.18193e+09 0
000 135 1 0 3.19017e+09 3.19042e+09 3.19144e+09 3.19522e+09 1
000 136 1 1 3.20321e+09 3.20348e+09 3.2045e+09 3.20541e+09 1
001 137 2 1 3.2102e+09 3.21047e+09 3.21149e+09 3.21314e+09 0
000 138 2 1 3.22038e+09 3.22063e+09 3.22165e+09 3.22758e+09 1
000 139 2 0 3.23478e+09 3.23503e+09 3.23605e+09 3.35354e+09 1
001 140 1 1 3.35881e+09 3.35906e+09 3.36008e+09 3.36164e+09 0
001 141 2 1 3.36699e+09 3.36725e+09 3.36827e+09 3.3683e+09 0
000 142 2 0 3.37619e+09 3.37644e+09 3.37746e+09 3.37928e+09 1
001 143 2 0 3.38657e+09 3.38682e+09 3.38784e+09 3.45045e+09 0
001 144 1 1 3.45888e+09 3.45914e+09 3.46016e+09 3.46378e+09 0
001 145 1 1 3.46817e+09 3.46843e+09 3.46945e+09 3.47022e+09 0
001 146 2 1 3.47392e+09 3.47417e+09 3.47519e+09 3.48088e+09 0
000 147 2 1 3.48807e+09 3.48832e+09 3.48934e+09 3.49025e+09 1
000 148 2 0 3.49747e+09 3.49773e+09 3.49875e+09 3.51243e+09 1
001 149 2 1 3.51788e+09 3.51814e+09 3.51916e+09 3.51971e+09 0
000 150 2 0 3.52679e+09 3.52704e+09 3.52806e+09 3.52945e+09 1
001 151 2 1 3.53537e+09 3.53562e+09 3.53664e+09 3.64829e+09 0
000 152 2 0 3.65542e+09 3.65567e+09 3.65669e+09 3.69989e+09 1
001 153 2 0 3.70668e+09 3.70694e+09 3.70796e+09 3.72992e+09 0
001 154 2 1 3.73834e+09 3.7386e+09 3.73962e+09 3.74065e+09 0
000 155 2 1 3.75149e+09 3.75176e+09 3.75278e+09 3.76482e+09 1
000 156 2 1 3.7759e+09 3.77616e+09 3.77718e+09 3.78031e+09 1
000 157 2 1 3.78764e+09 3.7879e+09 3.78892e+09 3.80217e+09 1
000 158 1 1 3.80953e+09 3.80978e+09 3.8108e+09 3.81728e+09 0
001 159 2 1 3.82715e+09 3.8274e+09 3.82842e+09 3.82946e+09 0
000 160 2 1 3.83777e+09 3.83803e+09 3.83905e+09 3.84034e+09 1
000 161 2 1 3.84997e+09 3.85022e+09 3.85125e+09 3.86331e+09 1
000 162 2 1 3.87143e+09 3.87168e+09 3.8727e+09 3.91239e+09 1
000 163 2 1 3.93362e+09 3.93387e+09 3.93489e+09 3.94605e+09 0
000 164 1 0 3.95768e+09 3.95794e+09 3.95896e+09 3.95943e+09 0
000 165 1 0 3.96881e+09 3.96906e+09 3.97008e+09 3.98199e+09 0
000 166 1 0 3.98972e+09 3.99e+09 3.99102e+09 3.99105e+09 0
000 167 1 0 3.99836e+09 3.99862e+09 3.99964e+09 4.00529e+09 0
000 168 1 0 4.01394e+09 4.01419e+09 4.01522e+09 4.01523e+09 0
000 169 2 1 4.02286e+09 4.0231e+09 4.02412e+09 4.02837e+09 0
000 170 1 1 4.0358e+09 4.03606e+09 4.03708e+09 4.038e+09 0
001 171 1 1 4.04258e+09 4.04283e+09 4.04386e+09 4.0477e+09 0
001 172 1 0 4.05059e+09 4.05085e+09 4.05187e+09 4.05701e+09 0
000 173 1 0 4.0662e+09 4.06646e+09 4.06748e+09 4.10755e+09 1
000 174 1 1 4.12092e+09 4.12118e+09 4.1222e+09 4.12401e+09 1
001 175 2 0 4.13338e+09 4.13363e+09 4.13465e+09 4.16504e+09 0
001 176 2 0 4.17485e+09 4.1751e+09 4.17612e+09 4.1933e+09 0
001 177 2 0 4.2038e+09 4.20405e+09 4.20507e+09 4.22354e+09 0
001 178 2 1 4.22976e+09 4.23002e+09 4.23104e+09 4.23331e+09 0
000 179 2 0 4.24047e+09 4.24074e+09 4.24176e+09 4.27464e+09 1
001 180 1 1 4.27989e+09 4.28014e+09 4.28116e+09 4.28186e+09 0
001 181 2 0 4.28474e+09 4.28499e+09 4.28601e+09 1.591e+08 0
001 182 2 1 1.65891e+08 1.66142e+08 1.67162e+08 1.6718e+08 0
000 183 2 0 1.74488e+08 1.74739e+08 1.7576e+08 1.8174e+08 1
001 184 1 1 1.86425e+08 1.86695e+08 1.87716e+08 1.88295e+08 0
001 185 2 1 1.91027e+08 1.91274e+08 1.92295e+08 3.16833e+08 0
000 186 2 1 3.24257e+08 3.24516e+08 3.25537e+08 3.68002e+08 1
000 187 2 0 3.75534e+08 3.75796e+08 3.76817e+08 3.79684e+08 1
001 188 2 1 3.92727e+08 3.92988e+08 3.94008e+08 3.94018e+08 0
000 189 2 0 4.01185e+08 4.01441e+08 4.02461e+08 4.02829e+08 1
001 190 2 1 4.0816e+08 4.08424e+08 4.09445e+08 4.11004e+08 0
000 191 2 0 4.20062e+08 4.20315e+08 4.21336e+08 4.23799e+08 1
001 192 2 1 4.27609e+08 4.27871e+08 4.28892e+08 4.31126e+08 0
000 193 2 1 4.38387e+08 4.38651e+08 4.39672e+08 5.08064e+08 1
000 194 2 0 5.15512e+08 5.15775e+08 5.16796e+08 5.20242e+08 1
001 195 2 0 5.25097e+08 5.25347e+08 5.26368e+08 5.27507e+08 0
001 196 1 1 5.33763e+08 5.34021e+08 5.35042e+08 5.3513e+08 0
001 197 2 1 5.40416e+08 5.40684e+08 5.41705e+08 5.418e+08 0
000 198 2 0 5.48894e+08 5.49147e+08 5.50168e+08 6.71385e+08 1
001 199 2 1 6.77845e+08 6.78093e+08 6.79114e+08 6.79437e+08 0
000 200 2 1 6.86618e+08 6.86881e+08 6.87902e+08 6.90181e+08 1
000 201 2 0 6.97454e+08 6.97711e+08 6.98732e+08 7.08809e+08 1
001 202 2 0 7.13491e+08 7.13752e+08 7.14773e+08 7.19536e+08 0
001 203 1 0 7.27747e+08 7.28001e+08 7.29022e+08 8.06194e+08 0
000 204 1 0 8.14762e+08 8.15026e+08 8.16046e+08 8.57704e+08 1
000 205 1 0 8.64938e+08 8.65194e+08 8.66215e+08 9.16119e+08 1
000 206 1 0 9.23469e+08 9.23728e+08 9.24749e+08 9.51024e+08 1
000 207 2 0 9.58604e+08 9.58862e+08 9.59883e+08 9.66102e+08 0
001 208 1 0 9.7052e+08 9.70775e+08 9.71796e+08 9.72421e+08 0
000 209 1 1 9.80665e+08 9.80914e+08 9.81935e+08 9.90017e+08 1
001 210 2 0 9.97617e+08 9.97875e+08 9.98895e+08 9.99394e+08 0
001 211 1 0 1.00195e+09 1.00221e+09 1.00323e+09 1.0945e+09 0
000 212 1 0 1.10207e+09 1.10232e+09 1.10334e+09 1.10531e+09 1
000 213 1 0 1.11364e+09 1.1139e+09 1.11492e+09 1.11502e+09 1
000 214 1 0 1.12226e+09 1.1225e+09 1.12352e+09 1.12443e+09 1
000 215 2 0 1.13754e+09 1.1378e+09 1.13882e+09 1.14126e+09 0
001 216 2 1 1.14542e+09 1.14569e+09 1.14671e+09 1.15079e+09 0
000 217 2 0 1.15813e+09 1.15839e+09 1.15941e+09 1.19006e+09 1
001 218 2 1 1.19628e+09 1.19654e+09 1.19756e+09 1.19768e+09 0
000 219 2 0 1.20498e+09 1.20523e+09 1.20626e+09 1.21771e+09 1
001 220 2 1 1.22281e+09 1.22308e+09 1.2241e+09 1.22586e+09 0
000 221 2 0 1.23502e+09 1.23528e+09 1.2363e+09 1.27847e+09 1
001 222 1 1 1.29085e+09 1.29111e+09 1.29213e+09 1.29276e+09 0
001 223 1 1 1.30014e+09 1.3004e+09 1.30142e+09 1.30143e+09 0
001 224 2 0 1.3078e+09 1.30808e+09 1.3091e+09 1.32413e+09 0
001 225 1 1 1.32954e+09 1.3298e+09 1.33082e+09 1.33378e+09 0
001 226 2 0 1.33673e+09 1.33699e+09 1.33801e+09 1.40508e+09 0
001 227 1 1 1.4112e+09 1.41146e+09 1.41248e+09 1.41409e+09 0
001 228 2 0 1.41991e+09 1.42017e+09 1.42119e+09 1.5053e+09 0
001 229 2 1 1.50953e+09 1.50979e+09 1.51081e+09 1.51229e+09 0
000 230 2 1 1.51963e+09 1.51988e+09 1.5209e+09 1.52474e+09 1
000 231 2 1 1.53215e+09 1.53241e+09 1.53343e+09 1.54464e+09 1
000 232 2 1 1.55174e+09 1.55199e+09 1.55301e+09 1.58891e+09 1
000 233 2 1 1.59608e+09 1.59634e+09 1.59736e+09 1.65545e+09 0
000 234 2 1 1.66303e+09 1.66329e+09 1.66432e+09 1.66786e+09 0
000 235 2 0 1.6752e+09 1.67545e+09 1.67647e+09 1.69639e+09 0
001 236 1 1 1.70386e+09 1.70411e+09 1.70513e+09 1.71071e+09 0
001 237 2 1 1.71886e+09 1.71911e+09 1.72013e+09 1.745e+09 0
000 238 2 1 1.75773e+09 1.75798e+09 1.759e+09 1.76342e+09 1
000 239 2 1 1.77167e+09 1.77193e+09 1.77296e+09 1.77305e+09 1
000 240 2 1 1.7866e+09 1.78686e+09 1.78788e+09 1.78824e+09 1
000 241 1 1 1.79672e+09 1.79697e+09 1.79799e+09 1.80555e+09 0
001 242 2 0 1.81053e+09 1.8108e+09 1.81182e+09 1.81248e+09 0
001 243 2 1 1.82756e+09 1.82781e+09 1.82883e+09 1.82977e+09 0
000 244 2 0 1.8368e+09 1.83705e+09 1.83807e+09 1.91773e+09 1
001 245 1 0 1.94421e+09 1.94447e+09 1.94549e+09 2.03325e+09 0
000 246 1 0 2.04027e+09 2.04053e+09 2.04155e+09 2.04691e+09 1
000 247 1 0 2.05412e+09 2.05438e+09 2.0554e+09 2.05735e+09 1
000 248 1 0 2.0645e+09 2.06475e+09 2.06577e+09 2.08996e+09 1
000 249 1 1 2.09787e+09 2.09814e+09 2.09916e+09 2.10234e+09 0
001 250 1 1 2.1152e+09 2.11546e+09 2.11648e+09 2.12344e+09 0
001 251 1 1 2.13046e+09 2.13072e+09 2.13174e+09 2.13486e+09 0
001 252 1 0 2.13951e+09 2.13977e+09 2.14079e+09 2.14643e+09 0
000 253 1 1 2.15402e+09 2.15428e+09 2.1553e+09 2.16063e+09 1
001 254 2 0 2.1692e+09 2.16945e+09 2.17047e+09 2.24244e+09 0
001 255 2 1 2.25137e+09 2.25163e+09 2.25265e+09 2.25397e+09 0
000 256 2 0 2.26135e+09 2.26159e+09 2.26262e+09 2.34007e+09 1
001 257 1 1 2.3481e+09 2.34835e+09 2.34937e+09 2.35475e+09 0
001 258 2 0 2.35929e+09 2.35955e+09 2.36057e+09 2.36112e+09 0
001 259 2 0 2.36792e+09 2.36817e+09 2.36919e+09 2.37781e+09 0
001 260 1 0 2.38234e+09 2.3826e+09 2.38362e+09 2.39017e+09 0
000 261 1 1 2.3994e+09 2.39966e+09 2.40068e+09 2.53739e+09 1
001 262 1 0 2.54671e+09 2.54697e+09 2.54799e+09 2.54899e+09 0
000 263 1 0 2.55653e+09 2.55679e+09 2.55781e+09 2.55787e+09 1
000 264 1 0 2.5663e+09 2.56656e+09 2.56758e+09 2.57727e+09 1
000 265 1 0 2.58473e+09 2.58497e+09 2.58599e+09 2.60205e+09 1
000 266 1 1 2.61208e+09 2.61234e+09 2.61336e+09 2.6154e+09 0
001 267 1 1 2.61981e+09 2.62006e+09 2.62108e+09 2.62117e+09 0
001 268 1 0 2.63046e+09 2.6307e+09 2.63172e+09 2.69401e+09 0
000 269 1 1 2.70128e+09 2.70153e+09 2.70255e+09 3.00047e+09 1
001 