trial trialType response stillTime stimOnset stimOffset respTime correctionTrial correct
001 5 1 1.78627e+07 1.81908e+07 1.92115e+07 1.92154e+07 0 0
002 5 1 3.14788e+07 3.17557e+07 3.27764e+07 3.27811e+07 1 0
003 5 1 3.98971e+07 4.01797e+07 4.12004e+07 4.41979e+07 1 0
004 5 1 5.39085e+07 5.41812e+07 5.5202e+07 5.59667e+07 1 0
005 1 1 6.43379e+07 6.46097e+07 6.56304e+07 6.56339e+07 0 1
006 5 1 6.84882e+07 6.87521e+07 6.97728e+07 7.1038e+07 0 0
007 5 1 7.81097e+07 7.83763e+07 7.93971e+07 7.962e+07 1 0
008 5 1 8.90911e+07 8.93536e+07 9.03743e+07 9.18504e+07 1 0
009 5 0 1.02738e+08 1.02995e+08 1.04016e+08 1.07949e+08 1 1
010 5 1 1.1207e+08 1.12333e+08 1.13353e+08 1.13566e+08 0 0
011 5 0 1.24533e+08 1.24802e+08 1.25822e+08 1.26986e+08 1 1
012 3 1 1.30441e+08 1.30694e+08 1.31715e+08 1.31722e+08 0 99
013 1 1 1.36609e+08 1.36882e+08 1.37903e+08 1.40458e+08 0 1
014 1 1 1.43512e+08 1.43776e+08 1.44796e+08 1.44939e+08 0 1
015 1 1 1.48141e+08 1.48403e+08 1.49424e+08 1.49493e+08 0 1
016 5 1 1.55403e+08 1.55659e+08 1.5668e+08 1.85027e+08 0 0
017 5 0 1.92283e+08 1.92534e+08 1.93555e+08 2.17881e+08 1 1
018 1 1 2.22631e+08 2.22892e+08 2.23913e+08 2.26196e+08 0 1
019 4 1 2.30817e+08 2.31071e+08 2.32091e+08 2.40447e+08 0 99
020 5 0 2.44808e+08 2.45073e+08 2.46094e+08 2.481e+08 0 1
021 1 1 2.53684e+08 2.53941e+08 2.54962e+08 2.56041e+08 0 1
022 1 1 2.58766e+08 2.59035e+08 2.60056e+08 2.60202e+08 0 1
023 5 1 2.62839e+08 2.63102e+08 2.64123e+08 2.77793e+08 0 0
024 5 1 2.88571e+08 2.88842e+08 2.89863e+08 2.97231e+08 1 0
025 5 1 3.05559e+08 3.05834e+08 3.06855e+08 3.11851e+08 1 0
026 5 1 3.19157e+08 3.19429e+08 3.20449e+08 3.20712e+08 1 0
027 1 1 3.30837e+08 3.31103e+08 3.32123e+08 3.32139e+08 0 1
028 1 1 3.38898e+08 3.39167e+08 3.40188e+08 3.41102e+08 0 1
029 4 1 3.44928e+08 3.45196e+08 3.46217e+08 3.47508e+08 0 99
030 2 1 3.50938e+08 3.5119e+08 3.5221e+08 3.55118e+08 0 99
031 5 1 3.5926e+08 3.59513e+08 3.60534e+08 3.62189e+08 0 0
032 5 1 3.69348e+08 3.69606e+08 3.70627e+08 3.74633e+08 1 0
033 5 1 3.82147e+08 3.82419e+08 3.8344e+08 3.84866e+08 1 0
034 5 1 3.92044e+08 3.92307e+08 3.93327e+08 3.94229e+08 1 0
035 5 0 4.01395e+08 4.01665e+08 4.02686e+08 4.0486e+08 0 1
036 4 1 4.08228e+08 4.08491e+08 4.09512e+08 4.10153e+08 0 99
037 5 0 4.13045e+08 4.13301e+08 4.14322e+08 4.16635e+08 0 1
038 1 1 4.19634e+08 4.19905e+08 4.20926e+08 4.21111e+08 0 1
039 1 1 4.25875e+08 4.26133e+08 4.27154e+08 4.27168e+08 0 1
040 5 0 4.33963e+08 4.34223e+08 4.35243e+08 4.3578e+08 0 1
041 5 1 4.38529e+08 4.38784e+08 4.39805e+08 4.39835e+08 0 0
042 5 0 4.47096e+08 4.47356e+08 4.48376e+08 4.48543e+08 1 1
043 4 1 4.52513e+08 4.52772e+08 4.53793e+08 4.64528e+08 0 99
044 5 0 4.71993e+08 4.72254e+08 4.73274e+08 4.9094e+08 0 1
045 3 0 4.94297e+08 4.94556e+08 4.95577e+08 4.98662e+08 0 99
046 5 1 5.05634e+08 5.05899e+08 5.06919e+08 5.07002e+08 0 0
047 5 1 5.14471e+08 5.14734e+08 5.15755e+08 5.25993e+08 1 0
048 5 1 5.33201e+08 5.33462e+08 5.34483e+08 5.58574e+08 1 0
049 5 1 5.69108e+08 5.69385e+08 5.70406e+08 5.93115e+08 1 0
050 1 1 6.00707e+08 6.00973e+08 6.01994e+08 6.02395e+08 0 1
051 3 1 6.06795e+08 6.07071e+08 6.08091e+08 6.35109e+08 0 99
052 2 0 6.37995e+08 6.38249e+08 6.3927e+08 6.56146e+08 0 99
053 1 1 6.58807e+08 6.59065e+08 6.60086e+08 6.64014e+08 0 1
054 5 1 6.72378e+08 6.7263e+08 6.73651e+08 6.75143e+08 0 0
055 5 1 6.82195e+08 6.82452e+08 6.83473e+08 6.87264e+08 1 0
056 5 0 7.00861e+08 7.01118e+08 7.02139e+08 7.02544e+08 1 1
057 3 1 7.0848e+08 7.08737e+08 7.09758e+08 7.11718e+08 0 99
058 2 1 7.15971e+08 7.16243e+08 7.17263e+08 7.182e+08 0 99
059 5 1 7.23282e+08 7.2355e+08 7.24571e+08 7.25051e+08 0 0
060 5 1 7.32374e+08 7.32636e+08 7.33657e+08 7.37438e+08 1 0
061 5 1 7.44951e+08 7.45207e+08 7.46228e+08 8.2862e+08 1 0
062 5 0 8.35786e+08 8.36056e+08 8.37077e+08 8.38796e+08 1 1
063 5 0 8.43566e+08 8.43835e+08 8.44856e+08 8.46935e+08 0 1
064 4 0 8.51377e+08 8.51629e+08 8.5265e+08 8.64059e+08 0 99
065 1 1 8.69264e+08 8.69539e+08 8.7056e+08 8.70582e+08 0 1
066 5 1 8.81262e+08 8.81532e+08 8.82553e+08 8.87082e+08 0 0
067 5 1 9.02284e+08 9.02542e+08 9.03563e+08 9.10317e+08 1 0
068 5 1 9.18761e+08 9.19017e+08 9.20038e+08 9.2332e+08 1 0
069 5 1 9.30467e+08 9.30734e+08 9.31755e+08 9.342e+08 1 0
070 5 1 9.41371e+08 9.41629e+08 9.42649e+08 9.43427e+08 0 0
071 5 1 9.50626e+08 9.50891e+08 9.51912e+08 9.63416e+08 0 0
072 5 1 9.71184e+08 9.71443e+08 9.72464e+08 9.72492e+08 0 0
073 1 1 9.79583e+08 9.79845e+08 9.80865e+08 9.80875e+08 0 1
074 5 1 9.85607e+08 9.85868e+08 9.86888e+08 1.00873e+09 0 0
075 5 0 1.01628e+09 1.01655e+09 1.01757e+09 1.01789e+09 1 1
076 5 0 1.02087e+09 1.02114e+09 1.02216e+09 1.0222e+09 0 1
077 5 0 1.02523e+09 1.02549e+09 1.02651e+09 1.0366e+09 0 1
078 1 1 1.03947e+09 1.03973e+09 1.04075e+09 1.04085e+09 0 1
079 1 1 1.04362e+09 1.04389e+09 1.04491e+09 1.04492e+09 0 1
080 1 1 1.04876e+09 1.04903e+09 1.05005e+09 1.0582e+09 0 1
081 2 1 1.06157e+09 1.06183e+09 1.06285e+09 1.06378e+09 0 99
082 1 1 1.06828e+09 1.06855e+09 1.06957e+09 1.06958e+09 0 1
083 3 1 1.0729e+09 1.07316e+09 1.07418e+09 1.0787e+09 0 99
084 5 1 1.08152e+09 1.08179e+09 1.08281e+09 1.08294e+09 0 0
085 5 0 1.09313e+09 1.09338e+09 1.0944e+09 1.09872e+09 1 1
086 1 1 1.10914e+09 1.1094e+09 1.11042e+09 1.11095e+09 0 1
087 2 1 1.11557e+09 1.11583e+09 1.11685e+09 1.11715e+09 0 99
088 4 1 1.12253e+09 1.12279e+09 1.12382e+09 1.12518e+09 0 99
089 5 0 1.12782e+09 1.12807e+09 1.12909e+09 1.12987e+09 0 1
090 5 1 1.13274e+09 1.133e+09 1.13402e+09 1.13927e+09 0 0
091 5 0 1.14717e+09 1.14744e+09 1.14846e+09 1.14863e+09 1 1
092 3 1 1.15614e+09 1.1564e+09 1.15742e+09 1.15758e+09 0 99
093 5 1 1.16311e+09 1.16337e+09 1.16439e+09 1.17401e+09 0 0
094 5 1 1.18175e+09 1.18202e+09 1.18304e+09 1.18528e+09 1 0
095 5 1 1.19329e+09 1.19356e+09 1.19458e+09 1.2034e+09 1 0
096 5 0 1.21619e+09 1.21646e+09 1.21748e+09 1.21751e+09 1 1
097 1 1 1.22067e+09 1.22092e+09 1.22194e+09 1.22196e+09 0 1
098 2 1 1.22568e+09 1.22594e+09 1.22696e+09 1.241e+09 0 99
099 1 1 1.24418e+09 1.24445e+09 1.24547e+09 1.24549e+09 0 1
100 1 0 1.24842e+09 1.24868e+09 1.2497e+09 1.27836e+09 0 0
101 1 1 1.28586e+09 1.28612e+09 1.28714e+09 1.28718e+09 1 1
102 2 1 1.29434e+09 1.29461e+09 1.29563e+09 1.38357e+09 0 99
103 1 1 1.38613e+09 1.3864e+09 1.38742e+09 1.3875e+09 0 1
104 5 1 1.39091e+09 1.39116e+09 1.39218e+09 1.40678e+09 0 0
105 5 0 1.41381e+09 1.41407e+09 1.41509e+09 1.4701e+09 1 1
106 4 1 1.47302e+09 1.47328e+09 1.4743e+09 1.47491e+09 0 99
107 1 1 1.47755e+09 1.47781e+09 1.47883e+09 1.47912e+09 0 1
108 1 0 1.48469e+09 1.48494e+09 1.48596e+09 1.49315e+09 0 0
109 1 1 1.50019e+09 1.50044e+09 1.50146e+09 1.50147e+09 1 1
110 5 1 1.50837e+09 1.50862e+09 1.50964e+09 1.53376e+09 0 0
111 5 0 1.542e+09 1.54226e+09 1.54328e+09 1.54567e+09 1 1
112 4 0 1.54948e+09 1.54975e+09 1.55077e+09 1.55327e+09 0 99
113 1 1 1.55755e+09 1.55781e+09 1.55883e+09 1.55885e+09 0 1
114 3 1 1.56346e+09 1.56372e+09 1.56474e+09 1.56562e+09 0 99
115 1 1 1.5694e+09 1.56965e+09 1.57067e+09 1.57094e+09 0 1
116 3 1 1.57613e+09 1.57639e+09 1.57741e+09 1.57947e+09 0 99
117 1 1 1.58338e+09 1.58364e+09 1.58466e+09 1.58655e+09 0 1
118 5 1 1.5913e+09 1.59156e+09 1.59258e+09 1.59774e+09 0 0
119 5 0 1.6051e+09 1.60535e+09 1.60637e+09 1.61255e+09 1 1
120 1 1 1.61714e+09 1.61741e+09 1.61843e+09 1.61867e+09 0 1
121 1 1 1.62378e+09 1.62405e+09 1.62507e+09 1.62508e+09 0 1
122 1 0 1.62852e+09 1.62878e+09 1.6298e+09 1.63737e+09 0 0
123 1 0 1.64471e+09 1.64497e+09 1.64599e+09 1.64861e+09 1 0
124 1 1 1.65656e+09 1.65683e+09 1.65785e+09 1.6579e+09 1 1
125 1 1 1.66068e+09 1.66094e+09 1.66196e+09 1.66236e+09 0 1
126 1 1 1.66788e+09 1.66814e+09 1.66916e+09 1.66918e+09 0 1
127 1 1 1.67414e+09 1.6744e+09 1.67542e+09 1.67543e+09 0 1
128 5 1 1.67908e+09 1.67935e+09 1.68037e+09 1.68242e+09 0 0
129 5 1 1.68955e+09 1.68981e+09 1.69084e+09 1.69969e+09 1 0
130 5 0 1.70682e+09 1.70707e+09 1.70809e+09 1.73909e+09 1 1
131 5 0 1.74247e+09 1.74272e+09 1.74375e+09 1.75033e+09 0 1
132 2 1 1.75412e+09 1.75439e+09 1.75541e+09 1.75555e+09 0 99
133 5 0 1.76064e+09 1.76091e+09 1.76193e+09 1.77683e+09 0 1
134 5 0 1.78109e+09 1.78135e+09 1.78237e+09 1.81045e+09 0 1
135 1 1 1.81346e+09 1.81372e+09 1.81475e+09 1.81476e+09 0 1
136 5 1 1.8193e+09 1.81955e+09 1.82057e+09 1.82729e+09 0 0
137 5 1 1.83651e+09 1.83677e+09 1.83779e+09 1.83813e+09 1 0
138 5 0 1.84516e+09 1.84542e+09 1.84644e+09 1.85745e+09 1 1
139 5 1 1.86394e+09 1.86421e+09 1.86523e+09 1.86961e+09 0 0
140 5 0 1.87754e+09 1.8778e+09 1.87882e+09 1.87883e+09 1 1
141 5 0 1.88999e+09 1.89025e+09 1.89127e+09 1.92851e+09 0 1
142 5 1 1.93113e+09 1.9314e+09 1.93242e+09 1.94092e+09 0 0
143 5 0 1.94818e+09 1.94843e+09 1.94945e+09 2.04791e+09 1 1
144 1 1 2.05077e+09 2.05104e+09 2.05206e+09 2.05333e+09 0 1
145 1 1 2.05694e+09 2.0572e+09 2.05822e+09 2.0602e+09 0 1
146 5 0 2.06392e+09 2.06419e+09 2.06521e+09 2.07233e+09 0 1
147 1 1 2.07508e+09 2.07534e+09 2.07636e+09 2.07651e+09 0 1
148 1 1 2.08111e+09 2.08137e+09 2.08239e+09 2.08241e+09 0 1
149 3 1 2.08599e+09 2.08624e+09 2.08726e+09 2.08729e+09 0 99
150 1 1 2.09275e+09 2.09301e+09 2.09403e+09 2.09404e+09 0 1
151 2 1 2.09698e+09 2.09723e+09 2.09825e+09 2.10196e+09 0 99
152 1 1 2.10732e+09 2.10758e+09 2.1086e+09 2.10861e+09 0 1
153 4 1 2.11262e+09 2.11288e+09 2.1139e+09 2.1139e+09 0 99
154 5 0 2.12073e+09 2.12098e+09 2.122e+09 2.17954e+09 0 1
155 5 0 2.18437e+09 2.18462e+09 2.18564e+09 2.20879e+09 0 1
156 5 0 2.21161e+09 2.21187e+09 2.21289e+09 2.27287e+09 0 1
157 4 0 2.27615e+09 2.27642e+09 2.27744e+09 2.27822e+09 0 99
158 1 1 2.28115e+09 2.28141e+09 2.28243e+09 2.28255e+09 0 1
159 5 0 2.28742e+09 2.28768e+09 2.2887e+09 2.29583e+09 0 1
160 5 0 2.29878e+09 2.29904e+09 2.30006e+09 2.31883e+09 0 1
161 1 1 2.32255e+09 2.32283e+09 2.32385e+09 2.32394e+09 0 1
162 4 0 2.32813e+09 2.32839e+09 2.32941e+09 2.32981e+09 0 99
163 1 1 2.33421e+09 2.33447e+09 2.33549e+09 2.3355e+09 0 1
164 1 0 2.3444e+09 2.34466e+09 2.34568e+09 2.43478e+09 0 0
165 1 1 2.44223e+09 2.4425e+09 2.44352e+09 2.44353e+09 1 1
166 1 1 2.44627e+09 2.44653e+09 2.44755e+09 2.44823e+09 0 1
167 4 1 2.45232e+09 2.45258e+09 2.4536e+09 2.45972e+09 0 99
168 1 1 2.46277e+09 2.46304e+09 2.46406e+09 2.46451e+09 0 1
169 5 1 2.46732e+09 2.46759e+09 2.46861e+09 2.53892e+09 0 0
170 5 1 2.5461e+09 2.54637e+09 2.54739e+09 2.59129e+09 1 0
171 5 1 2.60083e+09 2.60108e+09 2.6021e+09 2.61509e+09 1 0
172 5 0 2.6227e+09 2.62296e+09 2.62398e+09 2.63433e+09 1 1
173 5 0 2.63726e+09 2.63753e+09 2.63855e+09 2.66876e+09 0 1
174 1 1 2.67282e+09 2.67307e+09 2.67409e+09 2.67526e+09 0 1
175 5 1 2.67881e+09 2.67908e+09 2.6801e+09 2.71242e+09 0 0
176 5 1 2.71976e+09 2.72003e+09 2.72105e+09 2.73436e+09 1 0
177 5 0 2.74416e+09 2.74442e+09 2.74544e+09 2.75674e+09 1 1
178 5 1 2.76142e+09 2.76168e+09 2.7627e+09 2.77158e+09 0 0
179 5 1 2.77879e+09 2.77905e+09 2.78007e+09 2.81627e+09 1 0
180 5 1 2.83473e+09 2.83498e+09 2.836e+09 2.84985e+09 1 0
181 5 0 2.85714e+09 2.8574e+09 2.85842e+09 2.8613e+09 1 1
182 5 0 2.87122e+09 2.87148e+09 2.8725e+09 2.87893e+09 0 1
183 5 1 2.88189e+09 2.88215e+09 2.88317e+09 2.90795e+09 0 0
184 5 0 2.91519e+09 2.91545e+09 2.91647e+09 2.92028e+09 1 1
185 1 1 2.92413e+09 2.92439e+09 2.92541e+09 2.92713e+09 0 1
186 5 1 2.93307e+09 2.93333e+09 2.93435e+09 2.93489e+09 0 0
187 5 0 2.94222e+09 2.94247e+09 2.94349e+09 2.97946e+09 1 1
188 5 0 2.98246e+09 2.98272e+09 2.98374e+09 2.98489e+09 0 1
189 1 1 2.98867e+09 2.98894e+09 2.98996e+09 2.99112e+09 0 1
190 5 1 2.99687e+09 2.99713e+09 2.99815e+09 2.99922e+09 0 0
191 5 0 3.00705e+09 3.00731e+09 3.00833e+09 3.03539e+09 1 1
192 3 1 3.03874e+09 3.039e+09 3.04003e+09 3.04057e+09 0 99
193 5 0 3.04791e+09 3.04817e+09 3.04919e+09 3.05514e+09 0 1
194 5 0 3.05809e+09 3.05835e+09 3.05937e+09 3.09206e+09 0 1
195 1 1 3.09645e+09 3.09671e+09 3.09773e+09 3.09845e+09 0 1
196 3 1 3.10264e+09 3.10291e+09 3.10393e+09 3.10399e+09 0 99
197 2 0 3.1072e+09 3.10746e+09 3.10848e+09 3.13025e+09 0 99
198 2 1 3.13364e+09 3.1339e+09 3.13492e+09 3.13507e+09 0 99
199 1 1 3.13808e+09 3.13834e+09 3.13936e+09 3.14031e+09 0 1
200 5 0 3.14584e+09 3.1461e+09 3.14712e+09 3.18591e+09 0 1
201 5 0 3.18934e+09 3.18959e+09 3.19061e+09 3.22551e+09 0 1
202 4 1 3.23082e+09 3.23108e+09 3.2321e+09 3.23639e+09 0 99
203 5 0 3.23907e+09 3.23934e+09 3.24036e+09 3.24851e+09 0 1
204 5 0 3.2568e+09 3.25706e+09 3.25808e+09 3.25949e+09 0 1
205 2 1 3.26726e+09 3.26752e+09 3.26854e+09 3.26855e+09 0 99
206 3 1 3.27384e+09 3.27411e+09 3.27513e+09 3.27515e+09 0 99
207 5 1 3.27782e+09 3.27808e+09 3.2791e+09 3.28106e+09 0 0
208 5 1 3.28856e+09 3.28882e+09 3.28984e+09 3.2942e+09 1 0
209 5 0 3.30242e+09 3.30267e+09 3.30369e+09 3.31387e+09 1 1
210 1 0 3.32233e+09 3.32259e+09 3.32361e+09 3.3357e+09 0 0
211 1 1 3.34284e+09 3.34311e+09 3.34413e+09 3.34414e+09 1 1
212 5 0 3.35228e+09 3.35254e+09 3.35356e+09 3.36919e+09 0 1
213 1 1 3.37454e+09 3.37481e+09 3.37583e+09 3.37889e+09 0 1
214 3 1 3.38626e+09 3.38651e+09 3.38753e+09 3.38754e+09 0 99
215 1 1 3.393e+09 3.39327e+09 3.39429e+09 3.3943e+09 0 1
216 5 1 3.40663e+09 3.40689e+09 3.40791e+09 3.41324e+09 0 0
217 5 1 3.42155e+09 3.42181e+09 3.42283e+09 3.42867e+09 1 0
218 5 0 3.43686e+09 3.43711e+09 3.43813e+09 3.44749e+09 1 1
219 1 1 3.45578e+09 3.45603e+09 3.45705e+09 3.45706e+09 0 1
220 5 0 3.46076e+09 3.46102e+09 3.46204e+09 3.47014e+09 0 1
221 1 1 3.47403e+09 3.47428e+09 3.47531e+09 3.47532e+09 0 1
222 4 0 3.47948e+09 3.47973e+09 3.48075e+09 3.48113e+09 0 99
223 1 0 3.48697e+09 3.48722e+09 3.48824e+09 3.50246e+09 0 0
224 1 1 3.51821e+09 3.51848e+09 3.5195e+09 3.51968e+09 1 1
225 1 1 3.52472e+09 3.52497e+09 3.52599e+09 3.5261e+09 0 1
226 4 1 3.52964e+09 3.52991e+09 3.53093e+09 3.53492e+09 0 99
227 1 1 3.5377e+09 3.53796e+09 3.53898e+09 3.54019e+09 0 1
228 5 0 3.54428e+09 3.54454e+09 3.54556e+09 3.55046e+09 0 1
229 5 0 3.55455e+09 3.5548e+09 3.55582e+09 3.56789e+09 0 1
230 1 0 3.57141e+09 3.57168e+09 3.5727e+09 3.58063e+09 0 0
231 1 1 3.58845e+09 3.58871e+09 3.58973e+09 3.58975e+09 1 1
232 2 1 3.59333e+09 3.59358e+09 3.59461e+09 3.59777e+09 0 99
233 5 0 3.60727e+09 3.60752e+09 3.60854e+09 3.62465e+09 0 1
234 5 1 3.62807e+09 3.62834e+09 3.62936e+09 3.63439e+09 0 0
235 5 0 3.64151e+09 3.64177e+09 3.64279e+09 3.66297e+09 1 1
236 1 1 3.66589e+09 3.66616e+09 3.66718e+09 3.66859e+09 0 1
237 1 1 3.67353e+09 3.67381e+09 3.67483e+09 3.67485e+09 0 1
238 5 0 3.68137e+09 3.68163e+09 3.68265e+09 3.70955e+09 0 1
239 1 1 3.71325e+09 3.71352e+09 3.71454e+09 3.71535e+09 0 1
240 5 0 3.71905e+09 3.71931e+09 3.72033e+09 3.74311e+09 0 1
241 1 0 3.74632e+09 3.74657e+09 3.74759e+09 3.83087e+09 0 0
242 1 1 3.83813e+09 3.8384e+09 3.83942e+09 3.84047e+09 1 1
243 1 1 3.84394e+09 3.84419e+09 3.84521e+09 3.84522e+09 0 1
244 3 1 3.84994e+09 3.8502e+09 3.85122e+09 3.85125e+09 0 99
245 2 1 3.85427e+09 3.85452e+09 3.85554e+09 3.8556e+09 0 99
246 2 0 3.86113e+09 3.8614e+09 3.86242e+09 3.86248e+09 0 99
247 4 0 3.86547e+09 3.86574e+09 3.86676e+09 3.88252e+09 0 99
248 5 0 3.88855e+09 3.88881e+09 3.88983e+09 3.88984e+09 0 1
249 1 1 3.89316e+09 3.89343e+09 3.89445e+09 3.8952e+09 0 1
250 5 0 3.89946e+09 3.89973e+09 3.90075e+09 3.93114e+09 0 1
251 1 1 3.93522e+09 3.93548e+09 3.9365e+09 3.93651e+09 0 1
252 2 1 3.94424e+09 3.9445e+09 3.94552e+09 3.94553e+09 0 99
253 1 1 3.9515e+09 3.95175e+09 3.95277e+09 3.95279e+09 0 1
254 3 1 3.95622e+09 3.95648e+09 3.9575e+09 3.96408e+09 0 99
255 5 0 3.96713e+09 3.96739e+09 3.96841e+09 3.97057e+09 0 1
256 3 0 3.97437e+09 3.97463e+09 3.97565e+09 3.99422e+09 0 99
257 5 0 3.99742e+09 3.99769e+09 3.99871e+09 3.99956e+09 0 1
258 1 0 4.00307e+09 4.00334e+09 4.00436e+09 4.00849e+09 0 0
259 1 1 4.01688e+09 4.01714e+09 4.01816e+09 4.01817e+09 1 1
260 5 1 4.02131e+09 4.02158e+09 4.0226e+09 4.0227e+09 0 0
261 5 0 4.02974e+09 4.03001e+09 4.03103e+09 4.04094e+09 1 1
262 1 0 4.04879e+09 4.04904e+09 4.05006e+09 4.05921e+09 0 0
263 1 1 4.06775e+09 4.06801e+09 4.06903e+09 4.06998e+09 1 1
264 5 0 4.07458e+09 4.07485e+09 4.07587e+09 4.07602e+09 0 1
265 1 0 4.07952e+09 4.07978e+09 4.0808e+09 4.09842e+09 0 0
266 1 1 4.10813e+09 4.1084e+09 4.10942e+09 4.10954e+09 1 1
267 1 1 4.11606e+09 4.11632e+09 4.11734e+09 4.11735e+09 0 1
268 1 1 4.12132e+09 4.12158e+09 4.1226e+09 4.12325e+09 0 1
269 5 0 4.12834e+09 4.12859e+09 4.12961e+09 4.12988e+09 0 1
270 1 1 4.13524e+09 4.13551e+09 4.13653e+09 4.13679e+09 0 1
271 4 0 4.14163e+09 4.1419e+09 4.14292e+09 4.15061e+09 0 99
272 4 1 4.15381e+09 4.15406e+09 4.15509e+09 4.16233e+09 0 99
273 5 0 4.16697e+09 4.16724e+09 4.16826e+09 4.18516e+09 0 1
274 5 0 4.18817e+09 4.18844e+09 4.18946e+09 4.20763e+09 0 1
275 5 0 4.21418e+09 4.21444e+09 4.21546e+09 4.2167e+09 0 1
276 5 0 4.22082e+09 4.22109e+09 4.22211e+09 4.23289e+09 0 1
277 1 1 4.23674e+09 4.237e+09 4.23802e+09 4.23806e+09 0 1
278 2 1 4.24242e+09 4.24269e+09 4.24371e+09 4.24382e+09 0 99
279 5 1 4.24853e+09 4.24879e+09 4.24981e+09 4.25376e+09 0 0
280 5 0 4.2609e+09 4.26115e+09 4.26217e+09 4.26586e+09 1 1
281 1 1 4.27518e+09 4.27545e+09 4.27647e+09 4.27649e+09 0 1
282 1 1 4.28601e+09 4.28626e+09 4.28728e+09 4.28729e+09 0 1
283 3 0 4.29082e+09 4.29109e+09 4.29211e+09 1.93237e+07 0 99
284 5 0 2.55816e+07 2.58473e+07 2.68681e+07 2.68772e+07 0 1
285 5 0 3.46122e+07 3.48873e+07 3.5908e+07 5.8733e+07 0 1
286 4 0 6.21517e+07 6.24099e+07 6.34306e+07 6.43724e+07 0 99
287 1 1 6.77335e+07 6.79892e+07 6.90099e+07 6.9609e+07 0 1
288 5 0 7.48145e+07 7.50773e+07 7.6098e+07 7.62343e+07 0 1
289 5 0 8.09329e+07 8.12063e+07 8.2227e+07 8.48427e+07 0 1
290 2 1 9.16736e+07 9.19254e+07 9.29462e+07 9.29771e+07 0 99
291 5 0 9.6213e+07 9.64748e+07 9.74955e+07 1.04626e+08 0 1
292 1 1 1.13423e+08 1.13696e+08 1.14717e+08 1.16491e+08 0 1
293 5 0 1.20157e+08 1.20423e+08 1.21443e+08 1.33383e+08 0 1
294 1 1 1.39127e+08 1.39385e+08 1.40406e+08 1.41224e+08 0 1
295 3 0 1.44389e+08 1.44649e+08 1.4567e+08 1.48552e+08 0 99
296 1 0 1.52595e+08 1.52866e+08 1.53886e+08 1.54925e+08 0 0
297 1 1 1.63141e+08 1.63398e+08 1.64419e+08 1.64448e+08 1 1
298 1 0 1.70451e+08 1.70706e+08 1.71727e+08 1.75571e+08 0 0
299 1 1 1.8386e+08 1.8412e+08 1.85141e+08 1.85146e+08 1 1
300 2 1 1.90542e+08 1.90798e+08 1.91819e+08 1.91872e+08 0 99
301 3 0 1.97367e+08 1.97632e+08 1.98653e+08 2.08402e+08 0 99
302 4 1 2.12665e+08 2.12921e+08 2.13941e+08 2.14786e+08 0 99
303 5 0 2.20082e+08 2.20347e+08 2.21368e+08 2.228e+08 0 1
304 5 0 2.281e+08 2.2837e+08 2.29391e+08 2.38544e+08 0 1
305 1 1 2.42975e+08 2.43236e+08 2.44257e+08 2.44561e+08 0 1
306 1 0 2.49416e+08 2.4969e+08 2.50711e+08 2.56158e+08 0 0
307 1 0 2.63602e+08 2.63863e+08 2.64884e+08 2.67605e+08 1 0
308 1 1 2.81072e+08 2.81324e+08 2.82345e+08 2.82956e+08 1 1
309 5 0 2.88593e+08 2.88862e+08 2.89883e+08 2.99564e+08 0 1
310 1 1 3.13077e+08 3.13328e+08 3.14348e+08 3.14772e+08 0 1
311 4 1 3.40739e+08 3.40998e+08 3.42019e+08 3.45646e+08 0 99
312 2 1 3.55517e+08 3.55782e+08 3.56802e+08 3.5681e+08 0 99
313 1 0 3.6151e+08 3.61766e+08 3.62786e+08 3.67294e+08 0 0
314 1 1 3.80737e+08 3.81002e+08 3.82022e+08 3.8205e+08 1 1
315 1 1 3.96788e+08 3.97044e+08 3.98064e+08 3.98411e+08 0 1
316 1 1 4.05708e+08 4.05969e+08 4.0699e+08 4.07685e+08 0 1
317 5 0 4.1324e+08 4.13507e+08 4.14528e+08 4.20198e+08 0 1
318 1 1 4.24381e+08 4.24636e+08 4.25656e+08 4.25662e+08 0 1
319 1 1 4.3048e+08 4.30737e+08 4.31758e+08 4.33099e+08 0 1
320 5 0 4.38615e+08 4.38888e+08 4.39909e+08 4.68143e+08 0 1
321 5 0 4.79866e+08 4.80128e+08 4.81149e+08 4.83308e+08 0 1
322 1 1 4.87676e+08 4.87933e+08 4.88953e+08 4.92357e+08 0 1
323 1 1 5.0386e+08 5.04117e+08 5.05138e+08 5.05163e+08 0 1
324 2 1 5.10319e+08 5.10573e+08 5.11594e+08 5.11619e+08 0 99
325 5 0 5.14884e+08 5.15139e+08 5.16159e+08 5.39984e+08 0 1
326 1 1 5.43559e+08 5.43821e+08 5.44841e+08 5.50593e+08 0 1
327 3 1 5.57619e+08 5.57884e+08 5.58905e+08 5.59885e+08 0 99
328 5 1 5.65045e+08 5.65319e+08 5.66339e+08 5.6785e+08 0 0
329 5 0 5.74924e+08 5.75178e+08 5.76199e+08 5.82766e+08 1 1
330 4 1 5.89042e+08 5.89307e+08 5.90327e+08 5.91906e+08 0 99
331 1 0 5.95121e+08 5.95375e+08 5.96396e+08 6.05976e+08 0 0
332 1 1 6.17861e+08 6.18116e+08 6.19137e+08 6.19299e+08 1 1
333 1 1 6.3263e+08 6.32887e+08 6.33907e+08 6.3439e+08 0 1
334 3 0 6.39134e+08 6.39391e+08 6.40412e+08 6.52469e+08 0 99
335 1 0 6.55951e+08 6.56208e+08 6.57229e+08 6.61579e+08 0 0
336 1 1 6.68682e+08 6.68946e+08 6.69967e+08 6.69993e+08 1 1
337 5 0 6.74951e+08 6.7521e+08 6.7623e+08 6.92593e+08 0 1
338 5 0 6.95762e+08 6.96015e+08 6.97035e+08 6.99601e+08 0 1
339 1 0 7.03574e+08 7.03838e+08 7.04858e+08 7.05421e+08 0 0
340 1 1 7.12718e+08 7.1297e+08 7.1399e+08 7.14259e+08 1 1
341 1 0 7.1929e+08 7.19555e+08 7.20576e+08 7.25688e+08 0 0
342 1 1 7.33091e+08 7.3335e+08 7.34371e+08 7.35424e+08 1 1
343 1 0 7.40189e+08 7.40461e+08 7.41481e+08 7.44937e+08 0 0
344 1 0 7.61805e+08 7.62064e+08 7.63085e+08 7.63424e+08 1 0
345 1 0 7.72021e+08 7.72285e+08 7.73306e+08 7.74406e+08 1 0
346 1 1 7.82746e+08 7.82999e+08 7.8402e+08 7.85352e+08 1 1
347 5 1 7.89449e+08 7.89709e+08 7.90729e+08 7.924e+08 0 0
348 5 0 7.99917e+08 8.00175e+08 8.01196e+08 8.05178e+08 1 1
349 1 0 8.08806e+08 8.09074e+08 8.10094e+08 8.13931e+08 0 0
350 1 1 8.21277e+08 8.21541e+08 8.22561e+08 8.22987e+08 1 1
351 1 0 8.27708e+08 8.27962e+08 8.28983e+08 8.38858e+08 0 0
352 1 0 8.48312e+08 8.48581e+08 8.49602e+08 8.50782e+08 1 0
353 1 1 8.58043e+08 8.58296e+08 8.59316e+08 8.59559e+08 1 1
354 5 1 8.63603e+08 8.63855e+08 8.64876e+08 8.68069e+08 0 0
355 5 1 8.75377e+08 8.75638e+08 8.76658e+08 8.77495e+08 1 0
356 5 0 8.90315e+08 8.90572e+08 8.91593e+08 8.96835e+08 1 1
357 2 1 9.0153e+08 9.01787e+08 9.02808e+08 9.02824e+08 0 99
358 5 1 9.11008e+08 9.11273e+08 9.12293e+08 9.15172e+08 0 0
359 5 0 9.24023e+08 9.24277e+08 9.25298e+08 9.30938e+08 1 1
360 3 0 9.34859e+08 9.3512e+08 9.36141e+08 9.3646e+08 0 99
361 5 0 9.39713e+08 9.39971e+08 9.40992e+08 9.46053e+08 0 1
362 1 1 9.50193e+08 9.50451e+08 9.51471e+08 9.53617e+08 0 1
363 1 1 9.62031e+08 9.62296e+08 9.63316e+08 9.63425e+08 0 1
364 5 0 9.68197e+08 9.68452e+08 9.69473e+08 9.70559e+08 0 1
365 1 0 9.74443e+08 9.74708e+08 9.75729e+08 9.7592e+08 0 0
366 1 0 9.88186e+08 9.88439e+08 9.8946e+08 9.89489e+08 1 0
367 1 0 1.00023e+09 1.00048e+09 1.0015e+09 1.00184e+09 1 0
368 1 0 1.01285e+09 1.01311e+09 1.01413e+09 1.0165e+09 1 0
369 1 0 1.02399e+09 1.02425e+09 1.02527e+09 1.02766e+09 0 0
370 1 0 1.03621e+09 1.03649e+09 1.03751e+09 1.03752e+09 0 0
371 5 1 1.05233e+09 1.05258e+09 1.0536e+09 1.34471e+09 0 0
