trial trialType response stillTime stimOnset stimOffset respTime correctionTrial correct
001 2 0 6.83112e+06 7.13548e+06 8.1544e+06 3.26536e+07 0 1
002 1 1 4.18038e+07 4.20722e+07 4.30912e+07 4.82464e+07 0 1
003 1 0 5.29828e+07 5.32671e+07 5.4286e+07 7.89896e+07 0 0
004 1 0 8.6185e+07 8.64521e+07 8.74711e+07 9.26009e+07 1 0
005 1 1 1.01063e+08 1.0132e+08 1.02339e+08 1.05774e+08 1 1
006 1 0 1.10193e+08 1.10447e+08 1.11466e+08 1.11791e+08 0 0
007 1 0 1.18871e+08 1.19124e+08 1.20143e+08 1.2022e+08 1 0
008 1 1 1.32688e+08 1.32939e+08 1.33958e+08 1.33985e+08 1 1
009 2 1 1.61902e+08 1.62162e+08 1.63181e+08 1.63253e+08 0 0
010 2 1 2.06547e+08 2.06802e+08 2.07821e+08 2.09037e+08 1 0
011 2 0 2.20857e+08 2.21111e+08 2.2213e+08 2.2473e+08 1 1
012 1 1 2.45059e+08 2.45317e+08 2.46336e+08 2.46365e+08 0 1
013 2 1 2.65162e+08 2.65428e+08 2.66447e+08 2.66473e+08 0 0
014 2 1 2.7356e+08 2.73816e+08 2.74835e+08 2.74858e+08 1 0
015 2 1 2.82391e+08 2.8265e+08 2.83669e+08 2.83865e+08 1 0
016 2 1 2.90904e+08 2.91159e+08 2.92178e+08 2.92213e+08 1 0
017 1 1 3.10927e+08 3.11203e+08 3.12222e+08 3.12231e+08 0 1
018 2 1 3.38578e+08 3.38839e+08 3.39857e+08 3.39863e+08 0 0
019 2 1 3.58489e+08 3.58749e+08 3.59768e+08 3.59791e+08 1 0
020 2 1 3.66926e+08 3.67184e+08 3.68203e+08 3.68212e+08 1 0
021 2 1 3.79167e+08 3.79429e+08 3.80448e+08 3.80466e+08 1 0
022 1 1 3.8772e+08 3.87981e+08 3.89e+08 3.89021e+08 0 1
023 1 1 4.02914e+08 4.03168e+08 4.04187e+08 4.04215e+08 0 1
024 2 1 4.28338e+08 4.2859e+08 4.29609e+08 4.29685e+08 0 0
025 2 1 4.36779e+08 4.37036e+08 4.38055e+08 4.38084e+08 1 0
026 2 1 4.46699e+08 4.46955e+08 4.47974e+08 4.48024e+08 1 0
027 2 1 4.55979e+08 4.56245e+08 4.57263e+08 4.57846e+08 1 0
028 2 1 4.78808e+08 4.79061e+08 4.8008e+08 4.80424e+08 0 0
029 2 1 4.8783e+08 4.88086e+08 4.89105e+08 4.89175e+08 0 0
030 1 1 4.96597e+08 4.96858e+08 4.97877e+08 4.97889e+08 0 1
031 1 0 5.19204e+08 5.1947e+08 5.20489e+08 5.20501e+08 0 0
032 1 1 5.27862e+08 5.28115e+08 5.29134e+08 5.29142e+08 1 1
033 1 0 5.31635e+08 5.31893e+08 5.32912e+08 5.45348e+08 0 0
034 1 1 5.5616e+08 5.56427e+08 5.57446e+08 5.5774e+08 1 1
035 2 1 5.77792e+08 5.78054e+08 5.79073e+08 5.80378e+08 0 0
036 2 1 5.87546e+08 5.87803e+08 5.88822e+08 5.88978e+08 1 0
037 2 0 5.96481e+08 5.9674e+08 5.97759e+08 5.97778e+08 1 1
038 1 0 6.0049e+08 6.00755e+08 6.01774e+08 6.18256e+08 0 0
039 1 1 6.26902e+08 6.27163e+08 6.28182e+08 6.282e+08 1 1
040 1 1 6.41909e+08 6.42172e+08 6.43191e+08 6.4322e+08 0 1
041 2 1 6.61557e+08 6.61821e+08 6.6284e+08 6.62925e+08 0 0
042 2 1 6.75717e+08 6.75981e+08 6.77e+08 6.77646e+08 1 0
043 2 1 6.86767e+08 6.87029e+08 6.88048e+08 6.88126e+08 1 0
044 2 1 6.97793e+08 6.98056e+08 6.99075e+08 6.99087e+08 1 0
045 2 1 7.24305e+08 7.24556e+08 7.25575e+08 7.25659e+08 0 0
046 1 1 7.33005e+08 7.33264e+08 7.34283e+08 7.34448e+08 0 1
047 1 0 7.43482e+08 7.43751e+08 7.4477e+08 7.46362e+08 0 0
048 1 1 7.68248e+08 7.68491e+08 7.6951e+08 7.69571e+08 1 1
049 1 1 7.81037e+08 7.81306e+08 7.82325e+08 7.82343e+08 0 1
050 2 1 7.91376e+08 7.91634e+08 7.92653e+08 7.92669e+08 0 0
051 2 1 7.99702e+08 7.99949e+08 8.00968e+08 8.01952e+08 1 0
052 2 0 8.09144e+08 8.09406e+08 8.10424e+08 8.15669e+08 1 1
053 2 1 8.20491e+08 8.20744e+08 8.21763e+08 8.21998e+08 0 0
054 2 1 8.29477e+08 8.29747e+08 8.30766e+08 8.30772e+08 1 0
055 2 0 8.37981e+08 8.38239e+08 8.39258e+08 8.54957e+08 1 1
056 1 1 8.81575e+08 8.81843e+08 8.82862e+08 8.82903e+08 0 1
057 2 1 8.89112e+08 8.89369e+08 8.90388e+08 8.90397e+08 0 0
058 2 0 8.9763e+08 8.97892e+08 8.98911e+08 8.98923e+08 1 1
059 2 1 9.42144e+08 9.42411e+08 9.4343e+08 9.43443e+08 0 0
060 2 1 9.51727e+08 9.51993e+08 9.53012e+08 9.53104e+08 1 0
061 2 1 9.61296e+08 9.61555e+08 9.62574e+08 9.62588e+08 1 0
062 2 1 9.75533e+08 9.75787e+08 9.76806e+08 9.76847e+08 1 0
063 2 1 9.86625e+08 9.86886e+08 9.87905e+08 9.87958e+08 0 0
064 1 1 9.95082e+08 9.95338e+08 9.96357e+08 9.9649e+08 0 1
065 2 1 1.00571e+09 1.00596e+09 1.00698e+09 1.01971e+09 0 0
066 2 1 1.03202e+09 1.03228e+09 1.0333e+09 1.03351e+09 1 0
067 2 1 1.04457e+09 1.04483e+09 1.04585e+09 1.04661e+09 1 0
068 2 1 1.05891e+09 1.05916e+09 1.06018e+09 1.0602e+09 1 0
069 1 1 1.06753e+09 1.06778e+09 1.0688e+09 1.0692e+09 0 1
070 1 1 1.07611e+09 1.07638e+09 1.0774e+09 1.07854e+09 0 1
071 1 1 1.08688e+09 1.08713e+09 1.08815e+09 1.08817e+09 0 1
072 2 1 1.1034e+09 1.10367e+09 1.10469e+09 1.1047e+09 0 0
073 2 0 1.11188e+09 1.11215e+09 1.11317e+09 1.11348e+09 1 1
074 2 0 1.11607e+09 1.11632e+09 1.11734e+09 1.11776e+09 0 1
075 1 1 1.12459e+09 1.12485e+09 1.12587e+09 1.1259e+09 0 1
076 1 1 1.14586e+09 1.14612e+09 1.14714e+09 1.14715e+09 0 1
077 2 1 1.16417e+09 1.16443e+09 1.16545e+09 1.16546e+09 0 0
078 2 1 1.17952e+09 1.17977e+09 1.18079e+09 1.1808e+09 1 0
079 2 0 1.19771e+09 1.19796e+09 1.19898e+09 1.19906e+09 1 1
080 1 0 1.20486e+09 1.20512e+09 1.20614e+09 1.20923e+09 0 0
081 1 1 1.21908e+09 1.21933e+09 1.22035e+09 1.2205e+09 1 1
082 1 1 1.2333e+09 1.23356e+09 1.23458e+09 1.23461e+09 0 1
083 2 1 1.24154e+09 1.2418e+09 1.24282e+09 1.24287e+09 0 0
084 2 1 1.25354e+09 1.25381e+09 1.25482e+09 1.25485e+09 1 0
085 2 1 1.26473e+09 1.265e+09 1.26602e+09 1.26678e+09 1 0
086 2 1 1.28048e+09 1.28073e+09 1.28175e+09 1.29026e+09 1 0
087 1 1 1.30051e+09 1.30078e+09 1.3018e+09 1.30183e+09 0 1
088 2 0 1.31711e+09 1.31737e+09 1.31839e+09 1.32017e+09 0 1
089 1 1 1.32617e+09 1.32643e+09 1.32745e+09 1.32748e+09 0 1
090 2 1 1.33025e+09 1.33051e+09 1.33153e+09 1.33161e+09 0 0
091 2 0 1.34185e+09 1.3421e+09 1.34312e+09 1.34655e+09 1 1
092 2 1 1.35352e+09 1.35379e+09 1.35481e+09 1.35482e+09 0 0
093 2 1 1.36377e+09 1.36403e+09 1.36505e+09 1.36584e+09 1 0
094 2 0 1.37325e+09 1.37351e+09 1.37453e+09 1.3754e+09 1 1
095 1 1 1.39075e+09 1.39102e+09 1.39204e+09 1.39207e+09 0 1
096 2 0 1.41645e+09 1.41672e+09 1.41774e+09 1.41855e+09 0 1
097 1 1 1.42671e+09 1.42696e+09 1.42798e+09 1.42816e+09 0 1
098 1 1 1.43695e+09 1.43722e+09 1.43824e+09 1.43826e+09 0 1
099 2 1 1.45396e+09 1.45422e+09 1.45524e+09 1.45525e+09 0 0
100 2 1 1.46387e+09 1.46413e+09 1.46515e+09 1.46522e+09 1 0
101 2 0 1.47226e+09 1.47252e+09 1.47354e+09 1.47356e+09 1 1
102 1 1 1.47644e+09 1.47669e+09 1.4777e+09 1.48034e+09 0 1
103 1 1 1.51481e+09 1.51507e+09 1.51609e+09 1.51611e+09 0 1
104 2 1 1.53547e+09 1.53573e+09 1.53675e+09 1.53677e+09 0 0
105 2 0 1.55031e+09 1.55056e+09 1.55158e+09 1.55199e+09 1 1
106 1 1 1.56075e+09 1.56102e+09 1.56203e+09 1.56206e+09 0 1
107 2 1 1.56601e+09 1.56627e+09 1.56729e+09 1.5673e+09 0 0
108 2 0 1.57473e+09 1.57499e+09 1.57601e+09 1.57617e+09 1 1
109 2 1 1.57995e+09 1.5802e+09 1.58122e+09 1.58125e+09 0 0
110 2 0 1.58869e+09 1.58896e+09 1.58998e+09 1.58999e+09 1 1
111 1 1 1.59257e+09 1.59283e+09 1.59385e+09 1.59522e+09 0 1
112 1 1 1.61938e+09 1.61964e+09 1.62066e+09 1.62071e+09 0 1
113 1 1 1.62722e+09 1.62748e+09 1.6285e+09 1.62857e+09 0 1
114 2 1 1.63379e+09 1.63405e+09 1.63507e+09 1.63581e+09 0 0
115 2 1 1.64298e+09 1.64324e+09 1.64426e+09 1.64443e+09 1 0
116 2 1 1.65176e+09 1.65202e+09 1.65304e+09 1.65305e+09 1 0
117 2 1 1.66023e+09 1.6605e+09 1.66152e+09 1.66153e+09 1 0
118 2 1 1.66904e+09 1.6693e+09 1.67031e+09 1.67037e+09 0 0
119 2 1 1.68833e+09 1.68859e+09 1.68961e+09 1.68962e+09 0 0
120 1 0 1.69713e+09 1.69739e+09 1.69841e+09 1.69847e+09 0 0
121 2 0 1.70582e+09 1.70606e+09 1.70708e+09 1.70765e+09 0 1
122 2 0 1.71487e+09 1.71513e+09 1.71615e+09 1.72363e+09 0 1
123 2 1 1.74221e+09 1.74247e+09 1.74349e+09 1.7436e+09 0 0
124 2 0 1.75064e+09 1.7509e+09 1.75192e+09 1.75195e+09 1 1
125 2 0 1.75537e+09 1.75562e+09 1.75664e+09 1.75713e+09 0 1
126 2 1 1.76182e+09 1.76209e+09 1.76311e+09 1.76526e+09 0 0
127 2 1 1.78194e+09 1.7822e+09 1.78322e+09 1.78323e+09 1 0
128 2 0 1.79308e+09 1.79332e+09 1.79434e+09 1.79444e+09 1 1
129 2 0 1.79931e+09 1.79955e+09 1.80057e+09 1.80059e+09 0 1
130 2 1 1.81227e+09 1.81252e+09 1.81354e+09 1.81375e+09 0 0
131 2 1 1.82366e+09 1.82392e+09 1.82494e+09 1.82501e+09 1 0
132 2 1 1.83607e+09 1.83632e+09 1.83734e+09 1.83744e+09 1 0
133 2 0 1.85289e+09 1.85316e+09 1.85418e+09 1.85433e+09 1 1
134 1 1 1.86339e+09 1.86364e+09 1.86466e+09 1.86483e+09 0 1
135 2 1 1.88936e+09 1.88961e+09 1.89063e+09 1.89066e+09 0 0
136 2 1 1.91001e+09 1.91026e+09 1.91127e+09 1.9113e+09 1 0
137 2 1 1.9275e+09 1.92776e+09 1.92878e+09 1.92879e+09 1 0
138 2 0 1.9458e+09 1.94606e+09 1.94708e+09 1.94722e+09 1 1
139 1 0 1.95291e+09 1.95318e+09 1.9542e+09 1.96307e+09 0 0
140 1 1 1.98137e+09 1.98163e+09 1.98264e+09 1.98267e+09 1 1
141 2 0 1.98819e+09 1.98844e+09 1.98946e+09 1.98965e+09 0 1
142 2 1 1.99299e+09 1.99325e+09 1.99427e+09 1.9943e+09 0 0
143 2 1 2.00157e+09 2.00184e+09 2.00285e+09 2.00286e+09 1 0
144 2 0 2.01065e+09 2.01091e+09 2.01192e+09 2.01204e+09 1 1
145 1 1 2.01476e+09 2.01501e+09 2.01603e+09 2.01609e+09 0 1
146 1 0 2.02356e+09 2.0238e+09 2.02482e+09 2.02711e+09 0 0
147 1 1 2.03881e+09 2.03907e+09 2.04009e+09 2.04013e+09 1 1
148 2 1 2.06487e+09 2.06512e+09 2.06614e+09 2.06617e+09 0 0
149 2 1 2.07638e+09 2.07662e+09 2.07764e+09 2.07769e+09 1 0
150 2 0 2.08473e+09 2.08498e+09 2.086e+09 2.08663e+09 1 1
151 1 1 2.12054e+09 2.12079e+09 2.12181e+09 2.12191e+09 0 1
152 1 1 2.14029e+09 2.14054e+09 2.14156e+09 2.14171e+09 0 1
153 2 1 2.15215e+09 2.15241e+09 2.15343e+09 2.15361e+09 0 0
154 2 1 2.16265e+09 2.1629e+09 2.16392e+09 2.16393e+09 1 0
155 2 1 2.17143e+09 2.17168e+09 2.17269e+09 2.17332e+09 1 0
156 2 0 2.18058e+09 2.18083e+09 2.18185e+09 2.18682e+09 1 1
157 2 0 2.19807e+09 2.19833e+09 2.19935e+09 2.19937e+09 0 1
158 1 0 2.20541e+09 2.20566e+09 2.20668e+09 2.20672e+09 0 0
159 1 1 2.2201e+09 2.22035e+09 2.22137e+09 2.22138e+09 1 1
160 1 1 2.22904e+09 2.2293e+09 2.23032e+09 2.23035e+09 0 1
161 1 1 2.23964e+09 2.23989e+09 2.24091e+09 2.24094e+09 0 1
162 1 0 2.24488e+09 2.24515e+09 2.24617e+09 2.24992e+09 0 0
163 1 1 2.25726e+09 2.25751e+09 2.25853e+09 2.25856e+09 1 1
164 2 1 2.26665e+09 2.2669e+09 2.26792e+09 2.26795e+09 0 0
165 2 1 2.2759e+09 2.27615e+09 2.27717e+09 2.27722e+09 1 0
166 2 0 2.28556e+09 2.2858e+09 2.28682e+09 2.28764e+09 1 1
167 2 1 2.29034e+09 2.29061e+09 2.29163e+09 2.29321e+09 0 0
168 2 1 2.32897e+09 2.32924e+09 2.33025e+09 2.3303e+09 1 0
169 2 1 2.33824e+09 2.33851e+09 2.33952e+09 2.34012e+09 1 0
170 2 1 2.36788e+09 2.36814e+09 2.36915e+09 2.36937e+09 1 0
171 2 0 2.38238e+09 2.38264e+09 2.38366e+09 2.38668e+09 0 1
172 1 1 2.41443e+09 2.41468e+09 2.4157e+09 2.41574e+09 0 1
173 1 1 2.42209e+09 2.42234e+09 2.42336e+09 2.42339e+09 0 1
174 2 0 2.42678e+09 2.42702e+09 2.42804e+09 2.42908e+09 0 1
175 1 1 2.4319e+09 2.43217e+09 2.43318e+09 2.43347e+09 0 1
176 2 1 2.43997e+09 2.44023e+09 2.44125e+09 2.44126e+09 0 0
177 2 1 2.44833e+09 2.44859e+09 2.44961e+09 2.44964e+09 1 0
178 2 0 2.45682e+09 2.45707e+09 2.45809e+09 2.45811e+09 1 1
179 1 1 2.46631e+09 2.46657e+09 2.46759e+09 2.46764e+09 0 1
180 2 1 2.47359e+09 2.47384e+09 2.47486e+09 2.47492e+09 0 0
181 2 1 2.48303e+09 2.48329e+09 2.48431e+09 2.48433e+09 1 0
182 2 1 2.49158e+09 2.49183e+09 2.49285e+09 2.49287e+09 1 0
183 2 1 2.50016e+09 2.50041e+09 2.50143e+09 2.50176e+09 1 0
184 2 0 2.50891e+09 2.50916e+09 2.51018e+09 2.51036e+09 0 1
185 1 1 2.5134e+09 2.51366e+09 2.51468e+09 2.51488e+09 0 1
186 1 0 2.5182e+09 2.51845e+09 2.51947e+09 2.51959e+09 0 0
187 1 1 2.55503e+09 2.55528e+09 2.5563e+09 2.55634e+09 1 1
188 1 0 2.56248e+09 2.56272e+09 2.56374e+09 2.57112e+09 0 0
189 1 1 2.57922e+09 2.57947e+09 2.58049e+09 2.58051e+09 1 1
190 2 1 2.6037e+09 2.60396e+09 2.60497e+09 2.60524e+09 0 0
191 2 0 2.61313e+09 2.61338e+09 2.6144e+09 2.61492e+09 1 1
192 1 1 2.62232e+09 2.62259e+09 2.62361e+09 2.62363e+09 0 1
193 2 1 2.63273e+09 2.63299e+09 2.634e+09 2.63404e+09 0 0
194 2 0 2.64149e+09 2.64175e+09 2.64277e+09 2.64324e+09 1 1
195 2 1 2.64715e+09 2.6474e+09 2.64842e+09 2.64843e+09 0 0
196 2 1 2.65551e+09 2.65576e+09 2.65678e+09 2.65682e+09 1 0
197 2 1 2.66389e+09 2.66414e+09 2.66516e+09 2.66642e+09 1 0
198 2 1 2.68162e+09 2.68187e+09 2.68289e+09 2.6829e+09 1 0
199 1 1 2.69213e+09 2.69238e+09 2.6934e+09 2.69345e+09 0 1
200 1 1 2.70306e+09 2.70332e+09 2.70434e+09 2.70716e+09 0 1
201 2 1 2.73128e+09 2.73154e+09 2.73255e+09 2.73258e+09 0 0
202 2 1 2.74975e+09 2.75001e+09 2.75103e+09 2.75111e+09 1 0
203 2 0 2.76099e+09 2.76124e+09 2.76225e+09 2.76252e+09 1 1
204 1 1 2.7826e+09 2.78286e+09 2.78388e+09 2.78393e+09 0 1
205 1 1 2.79915e+09 2.7994e+09 2.80041e+09 2.80043e+09 0 1
206 1 1 2.82182e+09 2.82209e+09 2.82311e+09 2.82313e+09 0 1
207 1 0 2.82772e+09 2.82797e+09 2.82899e+09 2.83388e+09 0 0
208 1 1 2.84726e+09 2.84752e+09 2.84854e+09 2.84856e+09 1 1
209 1 1 2.86023e+09 2.86048e+09 2.8615e+09 2.86153e+09 0 1
210 1 1 2.87542e+09 2.87567e+09 2.87669e+09 2.87672e+09 0 1
211 2 1 2.89039e+09 2.89064e+09 2.89166e+09 2.89215e+09 0 0
212 2 1 2.91525e+09 2.91551e+09 2.91653e+09 2.91655e+09 1 0
213 2 0 2.9275e+09 2.92775e+09 2.92877e+09 2.93553e+09 1 1
214 1 1 2.96259e+09 2.96284e+09 2.96386e+09 2.96388e+09 0 1
215 1 1 2.97489e+09 2.97514e+09 2.97616e+09 2.97617e+09 0 1
216 2 0 2.98023e+09 2.98048e+09 2.9815e+09 2.9822e+09 0 1
217 2 1 2.99765e+09 2.99791e+09 2.99893e+09 2.99931e+09 0 0
218 2 0 3.00673e+09 3.00698e+09 3.008e+09 3.00817e+09 1 1
219 1 1 3.01596e+09 3.01621e+09 3.01723e+09 3.01732e+09 0 1
220 2 1 3.03292e+09 3.03317e+09 3.03419e+09 3.03421e+09 0 0
221 2 1 3.04158e+09 3.04184e+09 3.04285e+09 3.04288e+09 1 0
222 2 1 3.05145e+09 3.05171e+09 3.05273e+09 3.05337e+09 1 0
223 2 1 3.07151e+09 3.07176e+09 3.07278e+09 3.07281e+09 1 0
224 1 1 3.08079e+09 3.08105e+09 3.08207e+09 3.08212e+09 0 1
225 1 1 3.09237e+09 3.09263e+09 3.09365e+09 3.09369e+09 0 1
226 1 1 3.10523e+09 3.10548e+09 3.1065e+09 3.10653e+09 0 1
227 1 1 3.12436e+09 3.12461e+09 3.12563e+09 3.12566e+09 0 1
228 2 1 3.14003e+09 3.14028e+09 3.1413e+09 3.14134e+09 0 0
229 2 0 3.14844e+09 3.14869e+09 3.1497e+09 3.15129e+09 1 1
230 2 1 3.16895e+09 3.16921e+09 3.17023e+09 3.17026e+09 0 0
231 2 1 3.17767e+09 3.17792e+09 3.17894e+09 3.17941e+09 1 0
232 2 0 3.1865e+09 3.18675e+09 3.18777e+09 3.18806e+09 1 1
233 1 0 3.19119e+09 3.19144e+09 3.19246e+09 3.19418e+09 0 0
234 1 1 3.20896e+09 3.20921e+09 3.21023e+09 3.21025e+09 1 1
235 2 1 3.21511e+09 3.21536e+09 3.21638e+09 3.21649e+09 0 0
236 2 1 3.22382e+09 3.22407e+09 3.22509e+09 3.22565e+09 1 0
237 2 1 3.23334e+09 3.2336e+09 3.23462e+09 3.23464e+09 1 0
238 2 1 3.24646e+09 3.24672e+09 3.24774e+09 3.24965e+09 1 0
239 2 1 3.25695e+09 3.25721e+09 3.25823e+09 3.25825e+09 0 0
240 1 1 3.26706e+09 3.26732e+09 3.26834e+09 3.26835e+09 0 1
241 2 0 3.27129e+09 3.27155e+09 3.27257e+09 3.27371e+09 0 1
242 2 0 3.28398e+09 3.28424e+09 3.28526e+09 3.28574e+09 0 1
243 2 1 3.31063e+09 3.31087e+09 3.31189e+09 3.31191e+09 0 0
244 2 1 3.31922e+09 3.31947e+09 3.32049e+09 3.32063e+09 1 0
245 2 0 3.33003e+09 3.33028e+09 3.3313e+09 3.33157e+09 1 1
246 2 1 3.34518e+09 3.34543e+09 3.34644e+09 3.34646e+09 0 0
247 2 1 3.35416e+09 3.35441e+09 3.35542e+09 3.35546e+09 1 0
248 2 1 3.36297e+09 3.36323e+09 3.36425e+09 3.36721e+09 1 0
249 2 0 3.37454e+09 3.37479e+09 3.37581e+09 3.37661e+09 1 1
250 2 1 3.39206e+09 3.39231e+09 3.39333e+09 3.39336e+09 0 0
251 2 0 3.40075e+09 3.40102e+09 3.40204e+09 3.40208e+09 1 1
252 1 1 3.40517e+09 3.40542e+09 3.40644e+09 3.40649e+09 0 1
253 2 1 3.43701e+09 3.43726e+09 3.43828e+09 3.43831e+09 0 0
254 2 0 3.45376e+09 3.45401e+09 3.45503e+09 3.4551e+09 1 1
255 2 0 3.46573e+09 3.46598e+09 3.467e+09 3.46702e+09 0 1
256 2 1 3.47906e+09 3.47933e+09 3.48035e+09 3.48039e+09 0 0
257 2 0 3.49129e+09 3.49154e+09 3.49256e+09 3.49271e+09 1 1
258 2 1 3.5235e+09 3.52375e+09 3.52477e+09 3.52478e+09 0 0
259 2 1 3.53199e+09 3.53224e+09 3.53326e+09 3.53329e+09 1 0
260 2 1 3.54066e+09 3.54092e+09 3.54194e+09 3.54209e+09 1 0
261 2 1 3.55151e+09 3.55176e+09 3.55278e+09 3.55312e+09 1 0
262 1 1 3.56048e+09 3.56073e+09 3.56175e+09 3.56177e+09 0 1
263 1 1 3.57426e+09 3.57451e+09 3.57553e+09 3.57555e+09 0 1
264 1 0 3.57822e+09 3.57848e+09 3.5795e+09 3.57988e+09 0 0
265 1 1 3.59148e+09 3.59174e+09 3.59276e+09 3.59279e+09 1 1
266 1 1 3.59864e+09 3.59889e+09 3.59991e+09 3.59992e+09 0 1
267 2 0 3.60256e+09 3.60281e+09 3.60383e+09 3.60386e+09 0 1
268 2 0 3.60809e+09 3.60834e+09 3.60936e+09 3.61052e+09 0 1
269 1 1 3.61415e+09 3.61441e+09 3.61543e+09 3.61595e+09 0 1
270 2 0 3.61849e+09 3.61874e+09 3.61976e+09 3.62678e+09 0 1
271 2 1 3.63989e+09 3.64016e+09 3.64117e+09 3.64144e+09 0 0
272 2 0 3.64851e+09 3.64877e+09 3.64979e+09 3.64995e+09 1 1
273 2 0 3.6617e+09 3.66194e+09 3.66296e+09 3.6631e+09 0 1
274 2 0 3.66586e+09 3.66612e+09 3.66713e+09 3.66729e+09 0 1
275 2 1 3.68412e+09 3.68438e+09 3.6854e+09 3.68543e+09 0 0
276 2 1 3.69257e+09 3.69282e+09 3.69384e+09 3.69389e+09 1 0
277 2 0 3.70107e+09 3.70133e+09 3.70235e+09 3.7045e+09 1 1
278 1 1 3.7181e+09 3.71835e+09 3.71937e+09 3.71941e+09 0 1
279 2 0 3.72449e+09 3.72476e+09 3.72577e+09 3.72615e+09 0 1
280 2 1 3.72973e+09 3.72998e+09 3.731e+09 3.73133e+09 0 0
281 2 0 3.75295e+09 3.75322e+09 3.75424e+09 3.75562e+09 1 1
282 1 1 3.76376e+09 3.76401e+09 3.76503e+09 3.76505e+09 0 1
283 2 1 3.76882e+09 3.76908e+09 3.7701e+09 3.77013e+09 0 0
284 2 1 3.7845e+09 3.78476e+09 3.78578e+09 3.78595e+09 1 0
285 2 0 3.7946e+09 3.79485e+09 3.79587e+09 3.79686e+09 1 1
286 2 1 3.80653e+09 3.80679e+09 3.80781e+09 3.80787e+09 0 0
287 2 0 3.81515e+09 3.81541e+09 3.81643e+09 3.81666e+09 1 1
288 1 1 3.83444e+09 3.83468e+09 3.8357e+09 3.83573e+09 0 1
289 2 1 3.84127e+09 3.84153e+09 3.84255e+09 3.84386e+09 0 0
290 2 1 3.85172e+09 3.85199e+09 3.853e+09 3.85303e+09 1 0
291 2 0 3.86277e+09 3.86303e+09 3.86405e+09 3.86494e+09 1 1
292 1 1 3.87863e+09 3.87889e+09 3.87991e+09 3.87993e+09 0 1
293 1 1 3.88348e+09 3.88373e+09 3.88475e+09 3.88477e+09 0 1
294 2 1 3.91314e+09 3.9134e+09 3.91442e+09 3.91454e+09 0 0
295 2 1 3.92203e+09 3.92229e+09 3.92331e+09 3.9236e+09 1 0
296 2 0 3.93073e+09 3.93097e+09 3.93199e+09 3.93595e+09 1 1
297 2 0 3.9447e+09 3.94495e+09 3.94597e+09 3.94804e+09 0 1
298 2 0 3.95724e+09 3.95749e+09 3.95851e+09 3.95892e+09 0 1
299 1 1 3.97865e+09 3.9789e+09 3.97992e+09 3.98048e+09 0 1
300 1 1 3.98885e+09 3.9891e+09 3.99012e+09 3.99016e+09 0 1
301 1 1 3.99682e+09 3.99706e+09 3.99808e+09 3.9981e+09 0 1
302 2 1 4.0171e+09 4.01736e+09 4.01838e+09 4.01847e+09 0 0
303 2 0 4.02819e+09 4.02845e+09 4.02947e+09 4.02952e+09 1 1
304 1 1 4.03934e+09 4.03959e+09 4.04061e+09 4.04078e+09 0 1
305 2 1 4.04618e+09 4.04643e+09 4.04745e+09 4.04748e+09 0 0
306 2 0 4.05497e+09 4.05522e+09 4.05624e+09 4.05696e+09 1 1
307 1 1 4.07836e+09 4.07862e+09 4.07964e+09 4.07973e+09 0 1
308 1 1 4.08586e+09 4.08611e+09 4.08713e+09 4.08716e+09 0 1
309 2 1 4.0959e+09 4.09615e+09 4.09717e+09 4.0972e+09 0 0
310 2 1 4.10591e+09 4.10615e+09 4.10717e+09 4.10807e+09 1 0
311 2 0 4.11527e+09 4.11552e+09 4.11653e+09 4.11712e+09 1 1
312 1 1 4.12284e+09 4.12309e+09 4.12411e+09 4.12427e+09 0 1
313 1 1 4.1349e+09 4.13514e+09 4.13616e+09 4.13625e+09 0 1
314 2 1 4.14196e+09 4.14222e+09 4.14324e+09 4.14325e+09 0 0
315 2 0 4.15047e+09 4.15072e+09 4.15174e+09 4.15244e+09 1 1
316 1 1 4.15747e+09 4.15772e+09 4.15874e+09 4.15877e+09 0 1
317 1 1 4.17195e+09 4.17221e+09 4.17323e+09 4.17342e+09 0 1
318 1 1 4.18007e+09 4.18033e+09 4.18135e+09 4.18139e+09 0 1
319 2 0 4.18606e+09 4.18631e+09 4.18733e+09 4.18952e+09 0 1
320 2 0 4.19243e+09 4.19268e+09 4.1937e+09 4.19569e+09 0 1
321 2 0 4.19919e+09 4.19944e+09 4.20046e+09 4.20304e+09 0 1
322 2 1 4.2059e+09 4.20616e+09 4.20718e+09 4.20816e+09 0 0
323 2 0 4.22039e+09 4.22065e+09 4.22167e+09 4.22172e+09 1 1
324 2 1 4.22432e+09 4.22457e+09 4.22559e+09 4.22564e+09 0 0
325 2 0 4.23289e+09 4.23314e+09 4.23416e+09 4.23782e+09 1 1
326 2 1 4.26265e+09 4.26291e+09 4.26393e+09 4.26402e+09 0 0
327 2 0 4.27328e+09 4.27354e+09 4.27456e+09 4.27463e+09 1 1
328 1 1 4.28434e+09 4.2846e+09 4.28562e+09 4.28568e+09 0 1
329 2 0 4.29091e+09 4.29116e+09 4.29218e+09 4.29315e+09 0 1
330 2 1 784396 1.03082e+06 2.04974e+06 2.4834e+06 0 0
331 2 0 1.42008e+07 1.44505e+07 1.54694e+07 1.54808e+07 1 1
332 1 1 1.83757e+07 1.86336e+07 1.96525e+07 2.03987e+07 0 1
333 1 1 8.80999e+07 8.83617e+07 8.93806e+07 8.94406e+07 0 1
334 1 1 9.80398e+07 9.82862e+07 9.93051e+07 9.94185e+07 0 1
335 1 0 1.03416e+08 1.03673e+08 1.04692e+08 1.05701e+08 0 0
336 1 1 1.12933e+08 1.13188e+08 1.14207e+08 1.14253e+08 1 1
337 2 0 1.25015e+08 1.25278e+08 1.26296e+08 1.2656e+08 0 1
338 1 1 1.31603e+08 1.31852e+08 1.32871e+08 1.32895e+08 0 1
339 1 1 1.36337e+08 1.36584e+08 1.37603e+08 1.37694e+08 0 1
340 1 1 1.44807e+08 1.45062e+08 1.46081e+08 1.46103e+08 0 1
341 1 1 1.52231e+08 1.52481e+08 1.535e+08 1.53527e+08 0 1
342 1 1 1.64515e+08 1.64764e+08 1.65783e+08 1.65807e+08 0 1
343 2 1 1.74495e+08 1.74755e+08 1.75774e+08 1.75801e+08 0 0
344 2 0 1.87103e+08 1.8735e+08 1.88369e+08 1.88764e+08 1 1
345 1 1 1.91371e+08 1.91633e+08 1.92652e+08 1.9267e+08 0 1
346 1 1 2.00726e+08 2.00981e+08 2.02e+08 2.02036e+08 0 1
347 1 1 2.04572e+08 2.0482e+08 2.05838e+08 2.05864e+08 0 1
348 1 1 2.11837e+08 2.12098e+08 2.13117e+08 2.13218e+08 0 1
349 1 0 2.15767e+08 2.16026e+08 2.17045e+08 2.29672e+08 0 0
350 1 1 2.38957e+08 2.39213e+08 2.40232e+08 2.40245e+08 1 1
351 2 1 2.47693e+08 2.47947e+08 2.48966e+08 2.4908e+08 0 0
352 2 1 2.58057e+08 2.58304e+08 2.59323e+08 2.59525e+08 1 0
353 2 0 2.66652e+08 2.66908e+08 2.67927e+08 2.67958e+08 1 1
354 1 1 2.76495e+08 2.76744e+08 2.77763e+08 2.77847e+08 0 1
355 2 0 2.85244e+08 2.85502e+08 2.86521e+08 2.86846e+08 0 1
356 2 0 2.90765e+08 2.91022e+08 2.92041e+08 2.93361e+08 0 1
357 1 1 3.00067e+08 3.00316e+08 3.01335e+08 3.0137e+08 0 1
358 2 0 3.04878e+08 3.05134e+08 3.06153e+08 3.07928e+08 0 1
359 2 0 3.22765e+08 3.23016e+08 3.24035e+08 3.24382e+08 0 1
360 2 1 3.27656e+08 3.27918e+08 3.28937e+08 3.29111e+08 0 0
361 2 1 3.40636e+08 3.40896e+08 3.41914e+08 3.42397e+08 1 0
362 2 0 3.49542e+08 3.49803e+08 3.50822e+08 3.52202e+08 1 1
363 2 0 3.57243e+08 3.57503e+08 3.58522e+08 3.59073e+08 0 1
364 2 1 3.62083e+08 3.62348e+08 3.63366e+08 3.7582e+08 0 0
365 2 1 3.8408e+08 3.84329e+08 3.85348e+08 3.86206e+08 1 0
366 2 1 4.02698e+08 4.02957e+08 4.03976e+08 4.04035e+08 1 0
367 2 1 4.16585e+08 4.16832e+08 4.1785e+08 4.17863e+08 1 0
368 2 0 4.25225e+08 4.25478e+08 4.26497e+08 4.33153e+08 0 1
369 1 1 4.38312e+08 4.38563e+08 4.39582e+08 4.39672e+08 0 1
370 1 0 4.42675e+08 4.42931e+08 4.4395e+08 4.44634e+08 0 0
371 1 1 4.52132e+08 4.52379e+08 4.53398e+08 4.53411e+08 1 1
372 1 1 4.57229e+08 4.57485e+08 4.58504e+08 4.58556e+08 0 1
373 2 0 4.62438e+08 4.62687e+08 4.63706e+08 4.66237e+08 0 1
374 2 1 4.70514e+08 4.70763e+08 4.71782e+08 4.71977e+08 0 0
375 2 0 4.79174e+08 4.79424e+08 4.80443e+08 4.80498e+08 1 1
376 1 1 4.84051e+08 4.84305e+08 4.85324e+08 4.85445e+08 0 1
377 2 1 4.90298e+08 4.90544e+08 4.91563e+08 4.91609e+08 0 0
378 2 0 4.99082e+08 4.99337e+08 5.00356e+08 5.0701e+08 1 1
379 1 1 5.18324e+08 5.1858e+08 5.19599e+08 5.1966e+08 0 1
380 1 1 5.26409e+08 5.26663e+08 5.27682e+08 5.28319e+08 0 1
381 1 0 5.35612e+08 5.3586e+08 5.36879e+08 5.37464e+08 0 0
382 1 0 5.44595e+08 5.44843e+08 5.45862e+08 5.55998e+08 1 0
383 1 0 5.6343e+08 5.63676e+08 5.64695e+08 5.64823e+08 1 0
384 1 1 5.74253e+08 5.74504e+08 5.75523e+08 5.75544e+08 1 1
385 1 1 5.8003e+08 5.80281e+08 5.813e+08 5.81381e+08 0 1
386 1 1 5.85068e+08 5.85325e+08 5.86344e+08 5.86484e+08 0 1
387 1 1 5.9516e+08 5.95417e+08 5.96436e+08 5.96636e+08 0 1
388 1 0 6.01412e+08 6.01659e+08 6.02678e+08 6.03151e+08 0 0
389 1 1 6.10587e+08 6.10837e+08 6.11856e+08 6.12098e+08 1 1
390 1 0 6.14647e+08 6.14896e+08 6.15915e+08 6.19789e+08 0 0
391 1 0 6.28949e+08 6.29199e+08 6.30218e+08 6.30533e+08 1 0
392 1 0 6.37817e+08 6.38068e+08 6.39087e+08 6.39165e+08 1 0
393 1 0 6.47446e+08 6.47703e+08 6.48722e+08 7.1592e+08 1 0
