trial trialType response stillTime stimOnset stimOffset respTime correctionTrial correct
001 1 0 8.82587e+06 9.14383e+06 1.01627e+07 3.73645e+07 0 0
002 1 1 6.19274e+07 6.22109e+07 6.32298e+07 6.32479e+07 1 1
003 5 0 6.5921e+07 6.62045e+07 6.72234e+07 6.83438e+07 0 1
004 5 0 7.10554e+07 7.1327e+07 7.23459e+07 7.24058e+07 0 1
005 4 1 1.2258e+08 1.22851e+08 1.2387e+08 1.24195e+08 0 99
006 1 1 1.31799e+08 1.32056e+08 1.33075e+08 1.33149e+08 0 1
007 4 0 1.36796e+08 1.37061e+08 1.38079e+08 1.38092e+08 0 99
008 1 1 1.40891e+08 1.41158e+08 1.42176e+08 1.42209e+08 0 1
009 1 1 1.4518e+08 1.45438e+08 1.46457e+08 1.46719e+08 0 1
010 1 0 1.49518e+08 1.49791e+08 1.5081e+08 1.53448e+08 0 0
011 1 1 1.89232e+08 1.89487e+08 1.90506e+08 1.90519e+08 1 1
012 4 0 1.93509e+08 1.93779e+08 1.94797e+08 1.96054e+08 0 99
013 4 1 2.01784e+08 2.02046e+08 2.03065e+08 2.03161e+08 0 99
014 5 0 2.07012e+08 2.07276e+08 2.08295e+08 2.21446e+08 0 1
015 2 0 2.24305e+08 2.24556e+08 2.25575e+08 2.33898e+08 0 99
016 1 1 2.47281e+08 2.47536e+08 2.48555e+08 2.48576e+08 0 1
017 5 0 2.51277e+08 2.51552e+08 2.52571e+08 2.53266e+08 0 1
018 5 0 2.5601e+08 2.56273e+08 2.57292e+08 2.57888e+08 0 1
019 1 1 2.6058e+08 2.60844e+08 2.61863e+08 2.61898e+08 0 1
020 1 1 2.64493e+08 2.64747e+08 2.65766e+08 2.67202e+08 0 1
021 5 1 2.79025e+08 2.79292e+08 2.80311e+08 2.80646e+08 0 0
022 5 0 2.93887e+08 2.94138e+08 2.95157e+08 2.95513e+08 1 1
023 5 1 2.99307e+08 2.99571e+08 3.0059e+08 3.02977e+08 0 0
024 5 0 3.31431e+08 3.31707e+08 3.32726e+08 3.34352e+08 1 1
025 1 1 3.39955e+08 3.40219e+08 3.41238e+08 3.41457e+08 0 1
026 5 0 3.61296e+08 3.61554e+08 3.62573e+08 3.62792e+08 0 1
027 5 0 3.66638e+08 3.6691e+08 3.67929e+08 3.74889e+08 0 1
028 1 1 3.77437e+08 3.77702e+08 3.78721e+08 3.78841e+08 0 1
029 5 0 3.85333e+08 3.85595e+08 3.86614e+08 3.87194e+08 0 1
030 1 1 3.90133e+08 3.90396e+08 3.91415e+08 3.91444e+08 0 1
031 1 1 4.0187e+08 4.02127e+08 4.03146e+08 4.03371e+08 0 1
032 5 1 4.07374e+08 4.07639e+08 4.08658e+08 4.0875e+08 0 0
033 5 0 4.17121e+08 4.17392e+08 4.18411e+08 4.19208e+08 1 1
034 2 1 4.21774e+08 4.22044e+08 4.23063e+08 4.23563e+08 0 99
035 5 0 4.26519e+08 4.26787e+08 4.27805e+08 4.30712e+08 0 1
036 3 1 4.33456e+08 4.33728e+08 4.34747e+08 4.35205e+08 0 99
037 5 0 4.39766e+08 4.40029e+08 4.41048e+08 4.41633e+08 0 1
038 1 1 4.44687e+08 4.44955e+08 4.45974e+08 4.46e+08 0 1
039 2 0 4.48823e+08 4.49096e+08 4.50115e+08 4.53972e+08 0 99
040 5 0 4.57773e+08 4.58027e+08 4.59046e+08 4.6037e+08 0 1
041 1 0 4.66663e+08 4.66922e+08 4.67941e+08 4.68712e+08 0 0
042 1 1 4.88166e+08 4.8843e+08 4.89449e+08 4.8948e+08 1 1
043 2 0 4.92052e+08 4.92323e+08 4.93342e+08 4.94988e+08 0 99
044 1 1 4.97764e+08 4.98018e+08 4.99037e+08 4.99072e+08 0 1
045 1 1 5.01979e+08 5.02242e+08 5.03261e+08 5.0328e+08 0 1
046 1 1 5.12469e+08 5.12725e+08 5.13744e+08 5.13818e+08 0 1
047 1 1 5.17824e+08 5.18082e+08 5.19101e+08 5.19913e+08 0 1
048 3 0 5.3977e+08 5.40026e+08 5.41045e+08 5.41924e+08 0 99
049 5 0 5.45848e+08 5.46113e+08 5.47132e+08 5.4801e+08 0 1
050 5 0 5.50982e+08 5.51249e+08 5.52268e+08 5.53069e+08 0 1
051 1 1 5.60819e+08 5.61082e+08 5.62101e+08 5.62133e+08 0 1
052 2 1 5.64745e+08 5.65023e+08 5.66042e+08 5.66096e+08 0 99
053 1 1 5.7136e+08 5.71624e+08 5.72643e+08 5.72719e+08 0 1
054 5 0 5.76146e+08 5.76402e+08 5.77421e+08 5.77696e+08 0 1
055 1 1 5.90529e+08 5.90792e+08 5.91811e+08 5.91823e+08 0 1
056 5 0 5.94787e+08 5.95046e+08 5.96065e+08 5.96564e+08 0 1
057 1 1 6.00465e+08 6.00742e+08 6.01761e+08 6.01805e+08 0 1
058 1 1 6.05504e+08 6.05764e+08 6.06783e+08 6.07367e+08 0 1
059 4 0 6.27507e+08 6.27768e+08 6.28787e+08 6.28971e+08 0 99
060 5 1 6.41177e+08 6.4143e+08 6.42449e+08 6.4966e+08 0 0
061 5 0 6.62069e+08 6.62348e+08 6.63367e+08 6.6379e+08 1 1
062 3 0 6.6637e+08 6.6663e+08 6.67648e+08 6.69116e+08 0 99
063 5 1 6.71993e+08 6.72252e+08 6.73271e+08 6.77321e+08 0 0
064 5 0 6.84411e+08 6.84665e+08 6.85684e+08 6.86566e+08 1 1
065 5 0 6.89209e+08 6.89464e+08 6.90483e+08 6.96497e+08 0 1
066 3 1 7.0034e+08 7.00591e+08 7.0161e+08 7.02767e+08 0 99
067 1 1 7.0674e+08 7.07011e+08 7.0803e+08 7.0813e+08 0 1
068 5 0 7.2073e+08 7.2099e+08 7.22009e+08 7.23256e+08 0 1
069 3 1 7.2596e+08 7.26211e+08 7.2723e+08 7.27403e+08 0 99
070 5 1 7.3008e+08 7.3035e+08 7.31368e+08 7.40669e+08 0 0
071 5 0 7.47891e+08 7.48162e+08 7.49181e+08 7.65084e+08 1 1
072 4 0 7.69463e+08 7.69732e+08 7.70751e+08 7.74914e+08 0 99
073 5 0 7.78762e+08 7.79034e+08 7.80053e+08 7.87701e+08 0 1
074 5 0 7.91348e+08 7.91601e+08 7.9262e+08 7.94055e+08 0 1
075 5 0 7.96711e+08 7.96971e+08 7.9799e+08 7.98997e+08 0 1
076 5 0 8.13555e+08 8.13816e+08 8.14835e+08 8.18484e+08 0 1
077 5 0 8.20971e+08 8.21225e+08 8.22244e+08 8.23772e+08 0 1
078 2 1 8.26723e+08 8.26993e+08 8.28012e+08 8.28186e+08 0 99
079 1 1 8.32215e+08 8.32482e+08 8.33501e+08 8.337e+08 0 1
080 1 1 8.41147e+08 8.41416e+08 8.42435e+08 8.42456e+08 0 1
081 1 1 8.50862e+08 8.51114e+08 8.52132e+08 8.52161e+08 0 1
082 1 1 8.61819e+08 8.62077e+08 8.63096e+08 8.64017e+08 0 1
083 1 1 8.79584e+08 8.79855e+08 8.80874e+08 8.80882e+08 0 1
084 1 1 8.8338e+08 8.83647e+08 8.84666e+08 8.84683e+08 0 1
085 5 0 8.881e+08 8.88363e+08 8.89382e+08 8.96128e+08 0 1
086 4 0 8.99341e+08 8.99603e+08 9.00622e+08 9.0109e+08 0 99
087 1 1 9.06239e+08 9.06494e+08 9.07513e+08 9.07531e+08 0 1
088 3 1 9.10529e+08 9.10786e+08 9.11805e+08 9.11913e+08 0 99
089 5 0 9.45006e+08 9.4527e+08 9.46289e+08 9.57715e+08 0 1
090 2 0 9.60473e+08 9.60724e+08 9.61743e+08 9.62128e+08 0 99
091 5 0 9.68126e+08 9.68397e+08 9.69416e+08 9.71135e+08 0 1
092 1 1 9.7781e+08 9.78062e+08 9.7908e+08 9.7913e+08 0 1
093 1 1 9.81869e+08 9.82131e+08 9.8315e+08 9.83316e+08 0 1
094 5 0 9.8596e+08 9.8622e+08 9.87239e+08 9.8957e+08 0 1
095 1 0 9.93878e+08 9.94147e+08 9.95166e+08 9.95254e+08 0 0
096 1 1 1.00259e+09 1.00285e+09 1.00387e+09 1.00389e+09 1 1
097 5 0 1.00653e+09 1.0068e+09 1.00782e+09 1.0085e+09 0 1
098 1 1 1.01227e+09 1.01253e+09 1.01355e+09 1.01366e+09 0 1
099 4 0 1.03641e+09 1.03667e+09 1.03769e+09 1.03947e+09 0 99
100 5 0 1.05366e+09 1.05392e+09 1.05494e+09 1.05567e+09 0 1
101 3 0 1.05881e+09 1.05908e+09 1.0601e+09 1.06016e+09 0 99
102 5 0 1.06586e+09 1.06612e+09 1.06714e+09 1.07916e+09 0 1
103 2 1 1.08281e+09 1.08307e+09 1.08409e+09 1.08546e+09 0 99
104 1 1 1.09005e+09 1.09032e+09 1.09134e+09 1.09135e+09 0 1
105 1 1 1.09404e+09 1.09429e+09 1.09531e+09 1.09533e+09 0 1
106 5 0 1.09861e+09 1.09888e+09 1.09989e+09 1.10017e+09 0 1
107 1 1 1.11949e+09 1.11975e+09 1.12077e+09 1.1208e+09 0 1
108 5 0 1.12373e+09 1.12399e+09 1.12501e+09 1.12647e+09 0 1
109 5 1 1.12931e+09 1.12958e+09 1.1306e+09 1.13094e+09 0 0
110 5 0 1.13826e+09 1.13854e+09 1.13956e+09 1.15235e+09 1 1
111 3 0 1.15518e+09 1.15544e+09 1.15646e+09 1.1575e+09 0 99
112 1 1 1.16815e+09 1.16841e+09 1.16943e+09 1.16945e+09 0 1
113 5 0 1.17214e+09 1.1724e+09 1.17342e+09 1.1743e+09 0 1
114 3 1 1.17813e+09 1.1784e+09 1.17942e+09 1.1797e+09 0 99
115 5 0 1.1826e+09 1.18286e+09 1.18388e+09 1.18524e+09 0 1
116 5 1 1.18782e+09 1.18809e+09 1.18911e+09 1.19269e+09 0 0
117 5 0 1.20266e+09 1.20292e+09 1.20394e+09 1.20405e+09 1 1
118 4 0 1.22978e+09 1.23005e+09 1.23107e+09 1.23935e+09 0 99
119 1 1 1.2548e+09 1.25507e+09 1.25609e+09 1.25613e+09 0 1
120 1 0 1.25889e+09 1.25916e+09 1.26018e+09 1.26184e+09 0 0
121 1 0 1.27064e+09 1.27091e+09 1.27193e+09 1.27297e+09 1 0
122 1 1 1.28043e+09 1.2807e+09 1.28171e+09 1.28173e+09 1 1
123 1 1 1.28456e+09 1.28482e+09 1.28584e+09 1.28633e+09 0 1
124 4 1 1.28942e+09 1.28968e+09 1.2907e+09 1.2912e+09 0 99
125 2 1 1.3026e+09 1.30286e+09 1.30388e+09 1.30389e+09 0 99
126 5 0 1.31342e+09 1.31367e+09 1.31469e+09 1.31801e+09 0 1
127 5 0 1.32095e+09 1.32121e+09 1.32223e+09 1.32299e+09 0 1
128 1 0 1.3257e+09 1.32597e+09 1.32699e+09 1.32728e+09 0 0
129 1 1 1.33461e+09 1.33488e+09 1.3359e+09 1.33592e+09 1 1
130 5 0 1.3439e+09 1.34417e+09 1.34519e+09 1.34775e+09 0 1
131 5 0 1.35064e+09 1.35091e+09 1.35193e+09 1.35274e+09 0 1
132 5 0 1.35929e+09 1.35955e+09 1.36057e+09 1.38264e+09 0 1
133 1 0 1.38526e+09 1.38553e+09 1.38655e+09 1.38753e+09 0 0
134 1 1 1.3995e+09 1.39976e+09 1.40077e+09 1.40079e+09 1 1
135 3 1 1.40512e+09 1.40538e+09 1.4064e+09 1.40653e+09 0 99
136 5 0 1.42756e+09 1.42782e+09 1.42884e+09 1.42921e+09 0 1
137 5 0 1.43241e+09 1.43267e+09 1.43369e+09 1.43473e+09 0 1
138 5 0 1.43844e+09 1.43871e+09 1.43972e+09 1.43981e+09 0 1
139 3 0 1.44301e+09 1.44327e+09 1.44429e+09 1.44444e+09 0 99
140 1 1 1.45655e+09 1.45681e+09 1.45783e+09 1.45785e+09 0 1
141 1 1 1.46058e+09 1.46086e+09 1.46188e+09 1.46189e+09 0 1
142 1 0 1.465e+09 1.46527e+09 1.46629e+09 1.46777e+09 0 0
143 1 1 1.47676e+09 1.47702e+09 1.47804e+09 1.47806e+09 1 1
144 1 1 1.48173e+09 1.482e+09 1.48302e+09 1.48317e+09 0 1
145 1 1 1.48702e+09 1.48728e+09 1.4883e+09 1.48832e+09 0 1
146 1 1 1.49744e+09 1.49771e+09 1.49873e+09 1.49876e+09 0 1
147 1 1 1.50168e+09 1.50194e+09 1.50296e+09 1.50367e+09 0 1
148 2 0 1.50636e+09 1.50662e+09 1.50764e+09 1.50809e+09 0 99
149 3 0 1.51512e+09 1.51538e+09 1.5164e+09 1.51675e+09 0 99
150 5 1 1.52624e+09 1.5265e+09 1.52752e+09 1.52841e+09 0 0
151 5 0 1.53623e+09 1.53648e+09 1.5375e+09 1.53777e+09 1 1
152 3 0 1.54031e+09 1.54057e+09 1.54159e+09 1.5419e+09 0 99
153 5 0 1.55062e+09 1.55088e+09 1.5519e+09 1.55247e+09 0 1
154 3 0 1.55547e+09 1.55574e+09 1.55676e+09 1.55694e+09 0 99
155 4 0 1.56485e+09 1.56512e+09 1.56613e+09 1.5674e+09 0 99
156 1 1 1.57097e+09 1.57124e+09 1.57226e+09 1.57229e+09 0 1
157 5 1 1.57525e+09 1.57551e+09 1.57653e+09 1.57765e+09 0 0
158 5 0 1.58654e+09 1.58681e+09 1.58783e+09 1.5881e+09 1 1
159 5 0 1.591e+09 1.59126e+09 1.59228e+09 1.5956e+09 0 1
160 1 1 1.59905e+09 1.59932e+09 1.60034e+09 1.60038e+09 0 1
161 1 1 1.60353e+09 1.60379e+09 1.60481e+09 1.60484e+09 0 1
162 4 0 1.61727e+09 1.61754e+09 1.61856e+09 1.61965e+09 0 99
163 5 0 1.62234e+09 1.62259e+09 1.62361e+09 1.62369e+09 0 1
164 3 0 1.62636e+09 1.62663e+09 1.62765e+09 1.62769e+09 0 99
165 5 1 1.6325e+09 1.63276e+09 1.63378e+09 1.64042e+09 0 0
166 5 0 1.66441e+09 1.66468e+09 1.6657e+09 1.66603e+09 1 1
167 1 1 1.66893e+09 1.66918e+09 1.6702e+09 1.67056e+09 0 1
168 5 1 1.67327e+09 1.67354e+09 1.67456e+09 1.67968e+09 0 0
169 5 0 1.6978e+09 1.69805e+09 1.69907e+09 1.7013e+09 1 1
170 1 1 1.70429e+09 1.70455e+09 1.70557e+09 1.70623e+09 0 1
171 1 1 1.70878e+09 1.70903e+09 1.71005e+09 1.71008e+09 0 1
172 2 1 1.71277e+09 1.71303e+09 1.71405e+09 1.71417e+09 0 99
173 5 1 1.71673e+09 1.71699e+09 1.71801e+09 1.71854e+09 0 0
174 5 0 1.73536e+09 1.73563e+09 1.73665e+09 1.73669e+09 1 1
175 2 1 1.73952e+09 1.73978e+09 1.7408e+09 1.74082e+09 0 99
176 4 0 1.74646e+09 1.74672e+09 1.74774e+09 1.74775e+09 0 99
177 5 0 1.75735e+09 1.75762e+09 1.75864e+09 1.75894e+09 0 1
178 1 1 1.76184e+09 1.7621e+09 1.76312e+09 1.76314e+09 0 1
179 4 0 1.77293e+09 1.7732e+09 1.77422e+09 1.77508e+09 0 99
180 5 0 1.78209e+09 1.78235e+09 1.78337e+09 1.78461e+09 0 1
181 5 0 1.81077e+09 1.81104e+09 1.81206e+09 1.81251e+09 0 1
182 5 0 1.81655e+09 1.81682e+09 1.81784e+09 1.82032e+09 0 1
183 1 1 1.82311e+09 1.82338e+09 1.82439e+09 1.82444e+09 0 1
184 1 1 1.83844e+09 1.8387e+09 1.83972e+09 1.83974e+09 0 1
185 5 0 1.84425e+09 1.84452e+09 1.84553e+09 1.84561e+09 0 1
186 1 1 1.8705e+09 1.87077e+09 1.87179e+09 1.8718e+09 0 1
187 1 1 1.88867e+09 1.88892e+09 1.88994e+09 1.88995e+09 0 1
188 1 1 1.89283e+09 1.89311e+09 1.89412e+09 1.89415e+09 0 1
189 2 1 1.9029e+09 1.90317e+09 1.90419e+09 1.90422e+09 0 99
190 1 1 1.9068e+09 1.90705e+09 1.90807e+09 1.90808e+09 0 1
191 5 1 1.91071e+09 1.91096e+09 1.91198e+09 1.91409e+09 0 0
192 5 0 1.92461e+09 1.92488e+09 1.9259e+09 1.92664e+09 1 1
193 1 1 1.92984e+09 1.9301e+09 1.93112e+09 1.93113e+09 0 1
194 1 1 1.93418e+09 1.93445e+09 1.93547e+09 1.93549e+09 0 1
195 5 0 1.93858e+09 1.93883e+09 1.93985e+09 1.94049e+09 0 1
196 1 1 1.96047e+09 1.96072e+09 1.96174e+09 1.96176e+09 0 1
197 5 1 1.96447e+09 1.96472e+09 1.96574e+09 1.97106e+09 0 0
198 5 0 1.99787e+09 1.99812e+09 1.99914e+09 1.99956e+09 1 1
199 1 1 2.00227e+09 2.00253e+09 2.00355e+09 2.0036e+09 0 1
200 1 1 2.03573e+09 2.03601e+09 2.03702e+09 2.03711e+09 0 1
201 1 1 2.03998e+09 2.04025e+09 2.04127e+09 2.04129e+09 0 1
202 5 1 2.04407e+09 2.04433e+09 2.04535e+09 2.04575e+09 0 0
203 5 1 2.0805e+09 2.08076e+09 2.08178e+09 2.08648e+09 1 0
204 5 1 2.09438e+09 2.09464e+09 2.09566e+09 2.0985e+09 1 0
205 5 0 2.1068e+09 2.10706e+09 2.10808e+09 2.10822e+09 1 1
206 5 0 2.11085e+09 2.11112e+09 2.11213e+09 2.11324e+09 0 1
207 1 1 2.11803e+09 2.11829e+09 2.11931e+09 2.11932e+09 0 1
208 5 1 2.12344e+09 2.12369e+09 2.12471e+09 2.12498e+09 0 0
209 5 0 2.14539e+09 2.14564e+09 2.14666e+09 2.1472e+09 1 1
210 2 1 2.15092e+09 2.15119e+09 2.15221e+09 2.15224e+09 0 99
211 3 0 2.17158e+09 2.17184e+09 2.17286e+09 2.17349e+09 0 99
212 5 1 2.17779e+09 2.17806e+09 2.17908e+09 2.18111e+09 0 0
213 5 0 2.19073e+09 2.19101e+09 2.19202e+09 2.19237e+09 1 1
214 5 0 2.19639e+09 2.19666e+09 2.19768e+09 2.19855e+09 0 1
215 4 1 2.20117e+09 2.20144e+09 2.20245e+09 2.20659e+09 0 99
216 1 1 2.21576e+09 2.21601e+09 2.21703e+09 2.21704e+09 0 1
217 1 1 2.24429e+09 2.24455e+09 2.24556e+09 2.24558e+09 0 1
218 5 0 2.2482e+09 2.24848e+09 2.2495e+09 2.25044e+09 0 1
219 5 0 2.26378e+09 2.26404e+09 2.26505e+09 2.26713e+09 0 1
220 4 1 2.27012e+09 2.27038e+09 2.2714e+09 2.27161e+09 0 99
221 5 0 2.29018e+09 2.29045e+09 2.29147e+09 2.2921e+09 0 1
222 1 1 2.29496e+09 2.29522e+09 2.29623e+09 2.29625e+09 0 1
223 5 1 2.29901e+09 2.29927e+09 2.30029e+09 2.30069e+09 0 0
224 5 0 2.31085e+09 2.31112e+09 2.31214e+09 2.31382e+09 1 1
225 1 1 2.32119e+09 2.32146e+09 2.32247e+09 2.3225e+09 0 1
226 1 1 2.32639e+09 2.32665e+09 2.32767e+09 2.32769e+09 0 1
227 5 0 2.3479e+09 2.34817e+09 2.34919e+09 2.3509e+09 0 1
228 2 0 2.3537e+09 2.35397e+09 2.35498e+09 2.35511e+09 0 99
229 2 0 2.36097e+09 2.36124e+09 2.36226e+09 2.36248e+09 0 99
230 5 0 2.36617e+09 2.36643e+09 2.36745e+09 2.37112e+09 0 1
231 5 0 2.37942e+09 2.37969e+09 2.38071e+09 2.381e+09 0 1
232 4 0 2.38367e+09 2.38394e+09 2.38496e+09 2.3852e+09 0 99
233 1 1 2.39751e+09 2.39777e+09 2.39878e+09 2.39879e+09 0 1
234 1 1 2.4014e+09 2.40166e+09 2.40268e+09 2.40271e+09 0 1
235 5 0 2.41855e+09 2.41882e+09 2.41984e+09 2.42081e+09 0 1
236 5 1 2.42398e+09 2.42424e+09 2.42526e+09 2.42677e+09 0 0
237 5 0 2.43512e+09 2.43538e+09 2.4364e+09 2.43664e+09 1 1
238 5 0 2.44442e+09 2.44467e+09 2.44569e+09 2.44612e+09 0 1
239 1 1 2.45492e+09 2.45519e+09 2.4562e+09 2.45622e+09 0 1
240 1 1 2.4731e+09 2.47338e+09 2.4744e+09 2.47441e+09 0 1
241 5 0 2.4879e+09 2.48815e+09 2.48917e+09 2.49264e+09 0 1
242 5 0 2.49537e+09 2.49563e+09 2.49665e+09 2.50183e+09 0 1
243 4 1 2.5045e+09 2.50477e+09 2.50578e+09 2.50662e+09 0 99
244 1 1 2.52871e+09 2.52898e+09 2.53e+09 2.53001e+09 0 1
245 5 0 2.53633e+09 2.53659e+09 2.53761e+09 2.53768e+09 0 1
246 5 0 2.54034e+09 2.54061e+09 2.54163e+09 2.54454e+09 0 1
247 3 1 2.55257e+09 2.55284e+09 2.55386e+09 2.55387e+09 0 99
248 5 0 2.55779e+09 2.55806e+09 2.55908e+09 2.55948e+09 0 1
249 5 0 2.56801e+09 2.56829e+09 2.56931e+09 2.57231e+09 0 1
250 1 1 2.5749e+09 2.57516e+09 2.57618e+09 2.5762e+09 0 1
251 5 0 2.58431e+09 2.58458e+09 2.5856e+09 2.58781e+09 0 1
252 2 1 2.59099e+09 2.59124e+09 2.59226e+09 2.59236e+09 0 99
253 5 0 2.59941e+09 2.59968e+09 2.6007e+09 2.60095e+09 0 1
254 4 0 2.61867e+09 2.61893e+09 2.61995e+09 2.62006e+09 0 99
255 3 0 2.62498e+09 2.62526e+09 2.62628e+09 2.62652e+09 0 99
256 5 0 2.63981e+09 2.64007e+09 2.64108e+09 2.64121e+09 0 1
257 1 1 2.64392e+09 2.64418e+09 2.6452e+09 2.64521e+09 0 1
258 5 0 2.64791e+09 2.64817e+09 2.64919e+09 2.64943e+09 0 1
259 1 1 2.66116e+09 2.66142e+09 2.66244e+09 2.66246e+09 0 1
260 5 0 2.66511e+09 2.66537e+09 2.66639e+09 2.66648e+09 0 1
261 2 1 2.66923e+09 2.66949e+09 2.67051e+09 2.67055e+09 0 99
262 1 0 2.69193e+09 2.69219e+09 2.69321e+09 2.69411e+09 0 0
263 1 0 2.70594e+09 2.7062e+09 2.70722e+09 2.70823e+09 1 0
264 1 1 2.73873e+09 2.73899e+09 2.74001e+09 2.74007e+09 1 1
265 4 0 2.74274e+09 2.74301e+09 2.74403e+09 2.74452e+09 0 99
266 5 0 2.74731e+09 2.74758e+09 2.7486e+09 2.74885e+09 0 1
267 5 1 2.75588e+09 2.75613e+09 2.75715e+09 2.75917e+09 0 0
268 5 0 2.76628e+09 2.76655e+09 2.76757e+09 2.77843e+09 1 1
269 1 1 2.7812e+09 2.78147e+09 2.78248e+09 2.78263e+09 0 1
270 3 1 2.78546e+09 2.78572e+09 2.78673e+09 2.78687e+09 0 99
271 1 1 2.78988e+09 2.79014e+09 2.79116e+09 2.79119e+09 0 1
272 1 1 2.79471e+09 2.79497e+09 2.79599e+09 2.79601e+09 0 1
273 5 0 2.80289e+09 2.80315e+09 2.80417e+09 2.80485e+09 0 1
274 1 1 2.80877e+09 2.80903e+09 2.81005e+09 2.81007e+09 0 1
275 1 1 2.81473e+09 2.815e+09 2.81602e+09 2.81607e+09 0 1
276 1 1 2.8196e+09 2.81986e+09 2.82088e+09 2.8209e+09 0 1
277 3 0 2.82723e+09 2.8275e+09 2.82851e+09 2.83017e+09 0 99
278 5 0 2.83295e+09 2.83322e+09 2.83423e+09 2.8345e+09 0 1
279 3 1 2.83804e+09 2.83831e+09 2.83933e+09 2.83936e+09 0 99
280 1 1 2.84694e+09 2.8472e+09 2.84822e+09 2.84826e+09 0 1
281 1 1 2.85615e+09 2.85641e+09 2.85743e+09 2.85753e+09 0 1
282 1 1 2.86056e+09 2.86082e+09 2.86184e+09 2.86186e+09 0 1
283 4 0 2.86501e+09 2.86528e+09 2.8663e+09 2.87212e+09 0 99
284 1 1 2.88184e+09 2.8821e+09 2.88312e+09 2.88313e+09 0 1
285 5 1 2.88767e+09 2.88794e+09 2.88896e+09 2.88994e+09 0 0
286 5 0 2.9034e+09 2.90366e+09 2.90467e+09 2.90482e+09 1 1
287 1 1 2.9074e+09 2.90767e+09 2.90869e+09 2.90888e+09 0 1
288 5 0 2.93157e+09 2.93182e+09 2.93284e+09 2.93334e+09 0 1
289 5 0 2.93873e+09 2.939e+09 2.94001e+09 2.94072e+09 0 1
290 1 1 2.94826e+09 2.94852e+09 2.94954e+09 2.94956e+09 0 1
291 3 1 2.95778e+09 2.95805e+09 2.95907e+09 2.95916e+09 0 99
292 4 0 2.96183e+09 2.96209e+09 2.96311e+09 2.96437e+09 0 99
293 1 0 2.97022e+09 2.9705e+09 2.97151e+09 2.97156e+09 0 0
294 1 1 2.99415e+09 2.99442e+09 2.99543e+09 2.99546e+09 1 1
295 1 0 3.00183e+09 3.0021e+09 3.00312e+09 3.00406e+09 0 0
296 1 1 3.01316e+09 3.01342e+09 3.01444e+09 3.01445e+09 1 1
297 1 0 3.01725e+09 3.0175e+09 3.01852e+09 3.01955e+09 0 0
298 1 1 3.02676e+09 3.02702e+09 3.02804e+09 3.02838e+09 1 1
299 1 1 3.0314e+09 3.03166e+09 3.03268e+09 3.03269e+09 0 1
300 1 1 3.03537e+09 3.03564e+09 3.03665e+09 3.03672e+09 0 1
301 3 1 3.04032e+09 3.04059e+09 3.04161e+09 3.04177e+09 0 99
302 4 0 3.06044e+09 3.0607e+09 3.06172e+09 3.06182e+09 0 99
303 1 1 3.06456e+09 3.06482e+09 3.06584e+09 3.06586e+09 0 1
304 5 0 3.06918e+09 3.06945e+09 3.07047e+09 3.07229e+09 0 1
305 5 0 3.0753e+09 3.07558e+09 3.0766e+09 3.0768e+09 0 1
306 1 1 3.0822e+09 3.08246e+09 3.08348e+09 3.08352e+09 0 1
307 5 0 3.08658e+09 3.08685e+09 3.08787e+09 3.08804e+09 0 1
308 1 1 3.09661e+09 3.09687e+09 3.09789e+09 3.09792e+09 0 1
309 2 0 3.10283e+09 3.1031e+09 3.10411e+09 3.11126e+09 0 99
310 2 0 3.11399e+09 3.11426e+09 3.11528e+09 3.11591e+09 0 99
311 4 0 3.12071e+09 3.12097e+09 3.12199e+09 3.13021e+09 0 99
312 1 0 3.13329e+09 3.13355e+09 3.13457e+09 3.13475e+09 0 0
313 1 0 3.14323e+09 3.14349e+09 3.14451e+09 3.14471e+09 1 0
314 1 0 3.15299e+09 3.15325e+09 3.15427e+09 3.16391e+09 1 0
315 1 0 3.17105e+09 3.17131e+09 3.17233e+09 3.17239e+09 1 0
316 1 0 3.17986e+09 3.18012e+09 3.18113e+09 3.18592e+09 0 0
317 2 0 3.19656e+09 3.19684e+09 3.19785e+09 3.19971e+09 0 99
318 1 0 3.20253e+09 3.2028e+09 3.20382e+09 3.21709e+09 0 0
319 1 1 3.22462e+09 3.22489e+09 3.22591e+09 3.22654e+09 1 1
320 2 1 3.22929e+09 3.22955e+09 3.23057e+09 3.23058e+09 0 99
321 2 1 3.2331e+09 3.23337e+09 3.23439e+09 3.2344e+09 0 99
322 5 0 3.24153e+09 3.2418e+09 3.24282e+09 3.2429e+09 0 1
323 5 0 3.24537e+09 3.24563e+09 3.24665e+09 3.25016e+09 0 1
324 3 0 3.25971e+09 3.25998e+09 3.261e+09 3.26407e+09 0 99
325 5 0 3.27247e+09 3.27273e+09 3.27375e+09 3.27479e+09 0 1
326 5 1 3.27764e+09 3.2779e+09 3.27892e+09 3.27902e+09 0 0
327 5 0 3.29019e+09 3.29046e+09 3.29148e+09 3.30429e+09 1 1
328 1 1 3.30909e+09 3.30935e+09 3.31037e+09 3.31038e+09 0 1
329 1 1 3.31295e+09 3.31321e+09 3.31423e+09 3.31425e+09 0 1
330 5 0 3.31678e+09 3.31705e+09 3.31807e+09 3.31888e+09 0 1
331 5 0 3.32263e+09 3.32289e+09 3.3239e+09 3.33085e+09 0 1
332 5 0 3.33359e+09 3.33386e+09 3.33488e+09 3.33594e+09 0 1
333 2 1 3.33937e+09 3.33962e+09 3.34064e+09 3.34066e+09 0 99
334 5 0 3.36106e+09 3.36133e+09 3.36235e+09 3.36268e+09 0 1
335 5 0 3.36587e+09 3.36613e+09 3.36715e+09 3.36719e+09 0 1
336 5 0 3.37013e+09 3.37039e+09 3.37141e+09 3.37416e+09 0 1
337 1 1 3.38236e+09 3.38262e+09 3.38364e+09 3.38367e+09 0 1
338 5 0 3.38636e+09 3.38662e+09 3.38764e+09 3.38782e+09 0 1
339 5 1 3.39865e+09 3.39892e+09 3.39994e+09 3.40318e+09 0 0
340 5 0 3.4119e+09 3.41216e+09 3.41318e+09 3.42752e+09 1 1
341 1 1 3.43022e+09 3.43048e+09 3.4315e+09 3.43151e+09 0 1
342 1 1 3.43495e+09 3.43521e+09 3.43623e+09 3.43626e+09 0 1
343 5 0 3.44299e+09 3.44325e+09 3.44427e+09 3.45276e+09 0 1
344 1 1 3.46595e+09 3.46621e+09 3.46723e+09 3.46724e+09 0 1
345 1 1 3.47751e+09 3.47778e+09 3.4788e+09 3.47882e+09 0 1
346 1 1 3.487e+09 3.48727e+09 3.48829e+09 3.48831e+09 0 1
347 5 0 3.4914e+09 3.49167e+09 3.49269e+09 3.4933e+09 0 1
348 4 0 3.49591e+09 3.49618e+09 3.4972e+09 3.49778e+09 0 99
349 5 0 3.50222e+09 3.50247e+09 3.50349e+09 3.50567e+09 0 1
350 1 1 3.50833e+09 3.50859e+09 3.50961e+09 3.50968e+09 0 1
351 4 1 3.52526e+09 3.52552e+09 3.52654e+09 3.52694e+09 0 99
352 5 0 3.5295e+09 3.52976e+09 3.53078e+09 3.54582e+09 0 1
353 5 0 3.5484e+09 3.54867e+09 3.54969e+09 3.55047e+09 0 1
354 1 1 3.55497e+09 3.55523e+09 3.55625e+09 3.55626e+09 0 1
355 1 1 3.56153e+09 3.56179e+09 3.56281e+09 3.56284e+09 0 1
356 1 1 3.56918e+09 3.56944e+09 3.57046e+09 3.57054e+09 0 1
357 1 1 3.57525e+09 3.57552e+09 3.57653e+09 3.57656e+09 0 1
358 4 0 3.58305e+09 3.5833e+09 3.58432e+09 3.58543e+09 0 99
359 5 0 3.58801e+09 3.58828e+09 3.5893e+09 3.59367e+09 0 1
360 5 0 3.59657e+09 3.59684e+09 3.59786e+09 3.60575e+09 0 1
361 1 1 3.60849e+09 3.60877e+09 3.60979e+09 3.60981e+09 0 1
362 5 0 3.61244e+09 3.6127e+09 3.61372e+09 3.61416e+09 0 1
363 5 0 3.63007e+09 3.63034e+09 3.63136e+09 3.63437e+09 0 1
364 1 1 3.64017e+09 3.64044e+09 3.64146e+09 3.64148e+09 0 1
365 5 0 3.64796e+09 3.64823e+09 3.64925e+09 3.65452e+09 0 1
366 5 0 3.65703e+09 3.6573e+09 3.65832e+09 3.65916e+09 0 1
367 1 1 3.66194e+09 3.66221e+09 3.66323e+09 3.66327e+09 0 1
368 2 0 3.66646e+09 3.66672e+09 3.66774e+09 3.66898e+09 0 99
369 5 0 3.6715e+09 3.67176e+09 3.67278e+09 3.67303e+09 0 1
370 1 1 3.67557e+09 3.67584e+09 3.67686e+09 3.6769e+09 0 1
371 3 0 3.67971e+09 3.67997e+09 3.68099e+09 3.68663e+09 0 99
372 5 0 3.68937e+09 3.68964e+09 3.69066e+09 3.69163e+09 0 1
373 3 0 3.69412e+09 3.69439e+09 3.69541e+09 3.70193e+09 0 99
374 5 0 3.70458e+09 3.70485e+09 3.70587e+09 3.71155e+09 0 1
375 2 1 3.71626e+09 3.71654e+09 3.71756e+09 3.71767e+09 0 99
376 5 0 3.72022e+09 3.72048e+09 3.7215e+09 3.72914e+09 0 1
377 1 1 3.73362e+09 3.73389e+09 3.73491e+09 3.73491e+09 0 1
378 2 1 3.7379e+09 3.73817e+09 3.73919e+09 3.73922e+09 0 99
379 5 0 3.74212e+09 3.74238e+09 3.7434e+09 3.74486e+09 0 1
380 3 1 3.74781e+09 3.74807e+09 3.74909e+09 3.74913e+09 0 99
381 3 1 3.7527e+09 3.75295e+09 3.75397e+09 3.75713e+09 0 99
382 5 0 3.75989e+09 3.76016e+09 3.76118e+09 3.76523e+09 0 1
383 3 0 3.76894e+09 3.7692e+09 3.77022e+09 3.79898e+09 0 99
384 5 1 3.80165e+09 3.80191e+09 3.80293e+09 3.80589e+09 0 0
385 5 0 3.81321e+09 3.81349e+09 3.81451e+09 3.81953e+09 1 1
386 4 0 3.82243e+09 3.82269e+09 3.82371e+09 3.82486e+09 0 99
387 1 0 3.82752e+09 3.82778e+09 3.8288e+09 3.84512e+09 0 0
388 1 0 3.85286e+09 3.85312e+09 3.85413e+09 3.85861e+09 1 0
389 1 0 3.866e+09 3.86627e+09 3.86729e+09 3.8901e+09 1 0
390 1 0 3.89749e+09 3.89776e+09 3.89878e+09 3.90263e+09 1 0
391 2 0 3.91002e+09 3.9103e+09 3.91132e+09 3.92408e+09 0 99
392 2 0 3.92704e+09 3.9273e+09 3.92832e+09 3.9464e+09 0 99
393 5 1 3.94915e+09 3.94941e+09 3.95043e+09 4.00495e+09 0 0
394 5 1 4.01289e+09 4.01316e+09 4.01418e+09 4.18971e+09 1 0
395 5 0 4.197e+09 4.19727e+09 4.19829e+09 2.51393e+08 1 1
