trial trialType response stillTime stimOnset stimOffset respTime correctionTrial correct
001 1 0 1.66195e+07 1.69252e+07 1.79442e+07 1.79838e+07 0 0
002 1 1 2.52979e+07 2.55728e+07 2.65918e+07 2.66373e+07 1 1
003 2 1 2.93192e+07 2.95991e+07 3.0618e+07 3.06587e+07 0 0
004 2 1 3.86294e+07 3.88889e+07 3.99078e+07 4.2463e+07 1 0
005 2 0 4.99313e+07 5.0194e+07 5.1213e+07 5.1236e+07 1 1
006 2 0 5.4058e+07 5.43105e+07 5.53294e+07 5.89919e+07 0 1
007 2 1 6.15864e+07 6.18483e+07 6.28672e+07 6.77269e+07 0 0
008 2 0 7.5177e+07 7.54358e+07 7.64548e+07 7.64743e+07 1 1
009 1 0 8.44606e+07 8.47191e+07 8.5738e+07 8.57519e+07 0 0
010 1 1 9.37452e+07 9.40028e+07 9.50217e+07 9.89531e+07 1 1
011 2 0 1.01934e+08 1.02203e+08 1.03222e+08 1.08195e+08 0 1
012 1 0 1.10904e+08 1.11157e+08 1.12175e+08 1.13976e+08 0 0
013 1 0 1.21504e+08 1.21766e+08 1.22785e+08 1.25871e+08 1 0
014 1 0 1.33503e+08 1.33773e+08 1.34792e+08 1.39432e+08 1 0
015 1 1 1.46947e+08 1.47215e+08 1.48234e+08 1.48498e+08 1 1
016 1 0 1.51309e+08 1.51574e+08 1.52593e+08 1.52981e+08 0 0
017 1 1 1.60344e+08 1.60598e+08 1.61617e+08 1.64793e+08 1 1
018 1 0 1.67554e+08 1.67812e+08 1.68831e+08 1.71801e+08 0 0
019 1 0 1.95382e+08 1.9564e+08 1.96659e+08 2.16506e+08 1 0
020 1 1 2.23659e+08 2.23915e+08 2.24934e+08 2.26968e+08 1 1
021 2 0 2.29921e+08 2.30182e+08 2.31201e+08 2.35543e+08 0 1
022 2 0 2.38247e+08 2.38503e+08 2.39522e+08 2.40063e+08 0 1
023 2 0 2.44588e+08 2.44846e+08 2.45865e+08 2.45937e+08 0 1
024 1 1 2.53788e+08 2.54047e+08 2.55065e+08 2.55524e+08 0 1
025 1 0 2.65038e+08 2.65296e+08 2.66315e+08 2.66708e+08 0 0
026 1 0 2.74175e+08 2.74437e+08 2.75456e+08 2.75675e+08 1 0
027 1 0 2.82804e+08 2.83062e+08 2.8408e+08 2.85845e+08 1 0
028 1 0 2.9316e+08 2.93417e+08 2.94436e+08 3.02619e+08 1 0
029 2 1 3.10023e+08 3.10286e+08 3.11304e+08 3.11483e+08 0 0
030 2 0 3.18913e+08 3.19165e+08 3.20184e+08 3.20241e+08 0 1
031 1 0 3.24214e+08 3.24474e+08 3.25493e+08 3.25585e+08 0 0
032 1 0 3.32947e+08 3.33202e+08 3.34221e+08 3.40811e+08 1 0
033 1 1 3.47863e+08 3.48122e+08 3.49141e+08 3.90689e+08 1 1
034 1 1 3.93449e+08 3.93705e+08 3.94724e+08 3.95816e+08 0 1
035 2 1 3.98837e+08 3.99098e+08 4.00117e+08 4.01815e+08 0 0
036 2 1 4.22017e+08 4.2227e+08 4.23289e+08 4.23356e+08 1 0
037 2 1 4.45516e+08 4.4577e+08 4.46789e+08 4.46842e+08 1 0
038 2 0 4.54035e+08 4.54291e+08 4.5531e+08 4.55438e+08 1 1
039 2 0 4.59499e+08 4.59755e+08 4.60774e+08 4.60871e+08 0 1
040 1 0 4.69088e+08 4.69352e+08 4.70371e+08 4.71064e+08 0 0
041 1 0 4.79507e+08 4.79761e+08 4.8078e+08 4.80909e+08 1 0
042 1 1 4.88124e+08 4.88378e+08 4.89397e+08 4.89426e+08 1 1
043 2 1 5.03278e+08 5.0353e+08 5.04549e+08 5.04589e+08 0 0
044 2 0 5.13792e+08 5.14058e+08 5.15077e+08 5.54557e+08 1 1
045 2 1 5.8061e+08 5.80867e+08 5.81886e+08 5.81907e+08 0 0
046 2 1 5.89783e+08 5.9004e+08 5.91059e+08 5.91097e+08 1 0
047 2 0 6.08254e+08 6.08504e+08 6.09523e+08 6.09571e+08 1 1
048 1 1 6.223e+08 6.22553e+08 6.23572e+08 6.3367e+08 0 1
049 2 1 6.36429e+08 6.36683e+08 6.37702e+08 6.37847e+08 0 0
050 2 0 6.61751e+08 6.62008e+08 6.63027e+08 6.6314e+08 1 1
051 1 1 6.71852e+08 6.72106e+08 6.73125e+08 6.73169e+08 0 1
052 1 1 6.81297e+08 6.81557e+08 6.82576e+08 6.82596e+08 0 1
053 2 1 6.93539e+08 6.93801e+08 6.9482e+08 6.94876e+08 0 0
054 2 0 7.03066e+08 7.0332e+08 7.04339e+08 7.04505e+08 1 1
055 1 1 7.19518e+08 7.19779e+08 7.20798e+08 7.20816e+08 0 1
056 2 1 7.41705e+08 7.41964e+08 7.42983e+08 7.43039e+08 0 0
057 2 0 7.50706e+08 7.50973e+08 7.51992e+08 7.52036e+08 1 1
058 1 0 7.62141e+08 7.62405e+08 7.63424e+08 7.63491e+08 0 0
059 1 1 7.72524e+08 7.72785e+08 7.73804e+08 7.74037e+08 1 1
060 2 0 7.83735e+08 7.83993e+08 7.85011e+08 7.8503e+08 0 1
061 1 0 8.08002e+08 8.08264e+08 8.09283e+08 8.09376e+08 0 0
062 1 0 8.24041e+08 8.243e+08 8.25319e+08 8.25329e+08 1 0
063 1 0 8.38931e+08 8.39186e+08 8.40205e+08 8.40287e+08 1 0
064 1 1 8.47341e+08 8.47594e+08 8.48613e+08 8.48633e+08 1 1
065 1 0 8.60241e+08 8.60492e+08 8.61511e+08 8.61676e+08 0 0
066 1 1 8.6907e+08 8.69323e+08 8.70342e+08 8.70382e+08 1 1
067 2 0 8.88112e+08 8.88358e+08 8.89377e+08 8.89429e+08 0 1
068 1 0 9.06712e+08 9.06967e+08 9.07986e+08 9.08324e+08 0 0
069 1 0 9.15596e+08 9.15848e+08 9.16867e+08 9.17349e+08 1 0
070 1 0 9.24818e+08 9.25081e+08 9.261e+08 9.26415e+08 1 0
071 1 0 9.34479e+08 9.34732e+08 9.35751e+08 9.3924e+08 1 0
072 1 1 9.5343e+08 9.53696e+08 9.54715e+08 9.54724e+08 0 1
073 1 0 9.67481e+08 9.67731e+08 9.6875e+08 9.72348e+08 0 0
074 1 1 9.79404e+08 9.79658e+08 9.80677e+08 9.80774e+08 1 1
075 1 0 9.84905e+08 9.85157e+08 9.86176e+08 9.92493e+08 0 0
076 1 1 9.99839e+08 1.0001e+09 1.00112e+09 1.00212e+09 1 1
077 1 1 1.008e+09 1.00826e+09 1.00928e+09 1.00931e+09 0 1
078 1 0 1.01991e+09 1.02017e+09 1.02119e+09 1.02205e+09 0 0
079 1 1 1.02952e+09 1.02979e+09 1.0308e+09 1.03085e+09 1 1
080 1 0 1.04106e+09 1.04132e+09 1.04234e+09 1.04236e+09 0 0
081 1 0 1.05027e+09 1.05054e+09 1.05156e+09 1.06258e+09 1 0
082 1 1 1.06972e+09 1.06998e+09 1.071e+09 1.07102e+09 1 1
083 2 1 1.07676e+09 1.07703e+09 1.07805e+09 1.07813e+09 0 0
084 2 0 1.08685e+09 1.0871e+09 1.08812e+09 1.08826e+09 1 1
085 2 1 1.10024e+09 1.10051e+09 1.10153e+09 1.10159e+09 0 0
086 2 0 1.10896e+09 1.10923e+09 1.11025e+09 1.11029e+09 1 1
087 1 1 1.12027e+09 1.12052e+09 1.12154e+09 1.12171e+09 0 1
088 1 0 1.13903e+09 1.1393e+09 1.14031e+09 1.14042e+09 0 0
089 1 1 1.14872e+09 1.14897e+09 1.14999e+09 1.15003e+09 1 1
090 1 1 1.16604e+09 1.1663e+09 1.16732e+09 1.16737e+09 0 1
091 2 1 1.17906e+09 1.17932e+09 1.18034e+09 1.18039e+09 0 0
092 2 0 1.18857e+09 1.18883e+09 1.18985e+09 1.19008e+09 1 1
093 1 1 1.19952e+09 1.19978e+09 1.2008e+09 1.20753e+09 0 1
094 2 0 1.21496e+09 1.21522e+09 1.21624e+09 1.21629e+09 0 1
095 1 0 1.22712e+09 1.22738e+09 1.2284e+09 1.22852e+09 0 0
096 1 1 1.26008e+09 1.26034e+09 1.26136e+09 1.26138e+09 1 1
097 1 1 1.27083e+09 1.27109e+09 1.27211e+09 1.27215e+09 0 1
098 2 0 1.29787e+09 1.29814e+09 1.29916e+09 1.29924e+09 0 1
099 2 0 1.3114e+09 1.31165e+09 1.31267e+09 1.31272e+09 0 1
100 2 1 1.31533e+09 1.31559e+09 1.31661e+09 1.31692e+09 0 0
101 2 1 1.32513e+09 1.32539e+09 1.32641e+09 1.32676e+09 1 0
102 2 1 1.33418e+09 1.33444e+09 1.33546e+09 1.33549e+09 1 0
103 2 0 1.3431e+09 1.34334e+09 1.34436e+09 1.34442e+09 1 1
104 2 0 1.34722e+09 1.34749e+09 1.34851e+09 1.34854e+09 0 1
105 2 1 1.37954e+09 1.3798e+09 1.38082e+09 1.38084e+09 0 0
106 2 0 1.38823e+09 1.38848e+09 1.3895e+09 1.38959e+09 1 1
107 1 0 1.40921e+09 1.40947e+09 1.41049e+09 1.4111e+09 0 0
108 1 0 1.41854e+09 1.4188e+09 1.41981e+09 1.41985e+09 1 0
109 1 1 1.42718e+09 1.42744e+09 1.42846e+09 1.42858e+09 1 1
110 1 1 1.44291e+09 1.44317e+09 1.44419e+09 1.44427e+09 0 1
111 2 1 1.46155e+09 1.46181e+09 1.46283e+09 1.46285e+09 0 0
112 2 0 1.47012e+09 1.47038e+09 1.4714e+09 1.47158e+09 1 1
113 2 0 1.49888e+09 1.49914e+09 1.50016e+09 1.50033e+09 0 1
114 2 1 1.51546e+09 1.51574e+09 1.51676e+09 1.51682e+09 0 0
115 2 1 1.52455e+09 1.52481e+09 1.52582e+09 1.52584e+09 1 0
116 2 1 1.53317e+09 1.53343e+09 1.53445e+09 1.53448e+09 1 0
117 2 0 1.54398e+09 1.54424e+09 1.54526e+09 1.54592e+09 1 1
118 2 1 1.5517e+09 1.55196e+09 1.55298e+09 1.55302e+09 0 0
119 2 0 1.56163e+09 1.5619e+09 1.56292e+09 1.56292e+09 1 1
120 2 0 1.58056e+09 1.58081e+09 1.58183e+09 1.583e+09 0 1
121 2 1 1.58742e+09 1.58768e+09 1.58869e+09 1.58873e+09 0 0
122 2 1 1.5974e+09 1.59766e+09 1.59868e+09 1.59871e+09 1 0
123 2 1 1.6061e+09 1.60636e+09 1.60738e+09 1.60742e+09 1 0
124 2 0 1.62424e+09 1.6245e+09 1.62552e+09 1.62578e+09 1 1
125 2 0 1.63668e+09 1.63695e+09 1.63797e+09 1.65486e+09 0 1
126 2 0 1.65782e+09 1.65808e+09 1.6591e+09 1.65948e+09 0 1
127 2 0 1.67183e+09 1.67209e+09 1.67311e+09 1.67313e+09 0 1
128 1 1 1.6829e+09 1.68316e+09 1.68418e+09 1.68427e+09 0 1
129 1 0 1.69501e+09 1.69528e+09 1.6963e+09 1.70316e+09 0 0
130 1 0 1.71067e+09 1.71093e+09 1.71195e+09 1.71231e+09 1 0
131 1 0 1.72394e+09 1.7242e+09 1.72522e+09 1.72525e+09 1 0
132 1 1 1.74143e+09 1.74169e+09 1.74271e+09 1.74309e+09 1 1
133 1 0 1.7758e+09 1.77605e+09 1.77707e+09 1.77718e+09 0 0
134 1 0 1.78457e+09 1.78483e+09 1.78585e+09 1.78602e+09 1 0
135 1 1 1.79331e+09 1.79358e+09 1.7946e+09 1.79463e+09 1 1
136 1 0 1.79817e+09 1.79843e+09 1.79945e+09 1.7997e+09 0 0
137 1 0 1.81946e+09 1.81973e+09 1.82075e+09 1.82114e+09 1 0
138 1 0 1.8284e+09 1.82864e+09 1.82966e+09 1.82985e+09 1 0
139 1 1 1.83705e+09 1.83732e+09 1.83833e+09 1.83842e+09 1 1
140 1 1 1.84532e+09 1.84557e+09 1.84659e+09 1.84664e+09 0 1
141 1 1 1.85439e+09 1.85465e+09 1.85567e+09 1.85581e+09 0 1
142 1 0 1.85949e+09 1.85975e+09 1.86077e+09 1.86456e+09 0 0
143 1 1 1.87304e+09 1.87331e+09 1.87432e+09 1.87437e+09 1 1
144 2 1 1.88096e+09 1.88122e+09 1.88224e+09 1.88231e+09 0 0
145 2 0 1.89818e+09 1.89845e+09 1.89947e+09 1.90031e+09 1 1
146 2 0 1.91698e+09 1.91724e+09 1.91826e+09 1.91838e+09 0 1
147 1 0 1.9249e+09 1.92515e+09 1.92617e+09 1.92628e+09 0 0
148 1 0 1.93522e+09 1.93548e+09 1.93649e+09 1.93655e+09 1 0
149 1 1 1.94391e+09 1.94417e+09 1.94519e+09 1.94528e+09 1 1
150 2 0 1.95076e+09 1.95103e+09 1.95204e+09 1.95211e+09 0 1
151 2 0 1.96204e+09 1.9623e+09 1.96332e+09 1.97558e+09 0 1
152 1 0 1.98547e+09 1.98572e+09 1.98674e+09 1.9869e+09 0 0
153 1 1 1.99551e+09 1.99577e+09 1.99679e+09 2.00023e+09 1 1
154 2 1 2.00561e+09 2.00587e+09 2.00689e+09 2.00725e+09 0 0
155 2 1 2.01474e+09 2.015e+09 2.01602e+09 2.01604e+09 1 0
156 2 1 2.02451e+09 2.02477e+09 2.02578e+09 2.02592e+09 1 0
157 2 0 2.04005e+09 2.04032e+09 2.04133e+09 2.04136e+09 1 1
158 1 0 2.05282e+09 2.05309e+09 2.0541e+09 2.05419e+09 0 0
159 1 1 2.06164e+09 2.06189e+09 2.06291e+09 2.07452e+09 1 1
160 1 1 2.0774e+09 2.07766e+09 2.07868e+09 2.07874e+09 0 1
161 2 1 2.08354e+09 2.08381e+09 2.08483e+09 2.08497e+09 0 0
162 2 0 2.09312e+09 2.09338e+09 2.0944e+09 2.09442e+09 1 1
163 1 0 2.09722e+09 2.09748e+09 2.0985e+09 2.09853e+09 0 0
164 1 1 2.10978e+09 2.11004e+09 2.11106e+09 2.11119e+09 1 1
165 2 0 2.12949e+09 2.12975e+09 2.13077e+09 2.13085e+09 0 1
166 1 1 2.14239e+09 2.14265e+09 2.14367e+09 2.14373e+09 0 1
167 2 1 2.16467e+09 2.16492e+09 2.16594e+09 2.16607e+09 0 0
168 2 1 2.17464e+09 2.1749e+09 2.17591e+09 2.17596e+09 1 0
169 2 0 2.18986e+09 2.19013e+09 2.19115e+09 2.19125e+09 1 1
170 2 1 2.20555e+09 2.20581e+09 2.20683e+09 2.20687e+09 0 0
171 2 1 2.21523e+09 2.2155e+09 2.21651e+09 2.21667e+09 1 0
172 2 0 2.2241e+09 2.22435e+09 2.22537e+09 2.22545e+09 1 1
173 1 0 2.22829e+09 2.22854e+09 2.22956e+09 2.22985e+09 0 0
174 1 1 2.23805e+09 2.2383e+09 2.23932e+09 2.23936e+09 1 1
175 2 0 2.24433e+09 2.2446e+09 2.24561e+09 2.24902e+09 0 1
176 1 0 2.25159e+09 2.25186e+09 2.25287e+09 2.25297e+09 0 0
177 1 1 2.26123e+09 2.2615e+09 2.26252e+09 2.26254e+09 1 1
178 1 0 2.27044e+09 2.27071e+09 2.27172e+09 2.27328e+09 0 0
179 1 1 2.28264e+09 2.28291e+09 2.28393e+09 2.28397e+09 1 1
180 1 1 2.29704e+09 2.29731e+09 2.29833e+09 2.29852e+09 0 1
181 2 1 2.30833e+09 2.30859e+09 2.30961e+09 2.30968e+09 0 0
182 2 1 2.32283e+09 2.32308e+09 2.3241e+09 2.32433e+09 1 0
183 2 0 2.33666e+09 2.33691e+09 2.33793e+09 2.33795e+09 1 1
184 1 1 2.34368e+09 2.34393e+09 2.34495e+09 2.34513e+09 0 1
185 2 1 2.3583e+09 2.35856e+09 2.35958e+09 2.35964e+09 0 0
186 2 0 2.36754e+09 2.36779e+09 2.36881e+09 2.36899e+09 1 1
187 2 1 2.39361e+09 2.39387e+09 2.39489e+09 2.39493e+09 0 0
188 2 1 2.40235e+09 2.4026e+09 2.40362e+09 2.40375e+09 1 0
189 2 1 2.41454e+09 2.41481e+09 2.41583e+09 2.41585e+09 1 0
190 2 0 2.4233e+09 2.42355e+09 2.42457e+09 2.43552e+09 1 1
191 2 0 2.44335e+09 2.44361e+09 2.44463e+09 2.44503e+09 0 1
192 1 1 2.45556e+09 2.45582e+09 2.45684e+09 2.45711e+09 0 1
193 2 1 2.47422e+09 2.47447e+09 2.47549e+09 2.47551e+09 0 0
194 2 1 2.48296e+09 2.48322e+09 2.48424e+09 2.48435e+09 1 0
195 2 0 2.4915e+09 2.49176e+09 2.49278e+09 2.49289e+09 1 1
196 2 0 2.50281e+09 2.50308e+09 2.50409e+09 2.50416e+09 0 1
197 2 0 2.51586e+09 2.51612e+09 2.51714e+09 2.51717e+09 0 1
198 2 0 2.51967e+09 2.51994e+09 2.52096e+09 2.52908e+09 0 1
199 2 1 2.53247e+09 2.53273e+09 2.53375e+09 2.53391e+09 0 0
200 2 1 2.54446e+09 2.54472e+09 2.54574e+09 2.54597e+09 1 0
201 2 0 2.55325e+09 2.55351e+09 2.55453e+09 2.55472e+09 1 1
202 1 1 2.56893e+09 2.56919e+09 2.57021e+09 2.57025e+09 0 1
203 1 1 2.58804e+09 2.5883e+09 2.58931e+09 2.58991e+09 0 1
204 1 0 2.59281e+09 2.59307e+09 2.59408e+09 2.59985e+09 0 0
205 1 0 2.60809e+09 2.60835e+09 2.60937e+09 2.60943e+09 1 0
206 1 0 2.61679e+09 2.61705e+09 2.61806e+09 2.6181e+09 1 0
207 1 0 2.62562e+09 2.62588e+09 2.6269e+09 2.62718e+09 1 0
208 2 1 2.63723e+09 2.63748e+09 2.6385e+09 2.64858e+09 0 0
209 1 0 2.65582e+09 2.65607e+09 2.65708e+09 2.65811e+09 0 0
210 2 1 2.66561e+09 2.66588e+09 2.6669e+09 2.66713e+09 0 0
211 2 1 2.67429e+09 2.67454e+09 2.67556e+09 2.67697e+09 0 0
212 1 0 2.6841e+09 2.68436e+09 2.68538e+09 2.68624e+09 0 0
213 2 1 2.69366e+09 2.69393e+09 2.69495e+09 2.69518e+09 0 0
214 2 1 2.70251e+09 2.70277e+09 2.70379e+09 2.70476e+09 0 0
215 2 1 2.7121e+09 2.71236e+09 2.71338e+09 2.71358e+09 0 0
216 1 1 2.72089e+09 2.72114e+09 2.72216e+09 2.72553e+09 0 1
217 1 1 2.73814e+09 2.73839e+09 2.73941e+09 2.73984e+09 0 1
218 2 0 2.74271e+09 2.74297e+09 2.74399e+09 2.75425e+09 0 1
219 2 1 2.76076e+09 2.76102e+09 2.76204e+09 2.76217e+09 0 0
220 2 0 2.7709e+09 2.77116e+09 2.77218e+09 2.77228e+09 1 1
221 2 1 2.77513e+09 2.77538e+09 2.7764e+09 2.77822e+09 0 0
222 2 1 2.78562e+09 2.78589e+09 2.78691e+09 2.78749e+09 1 0
223 2 0 2.79502e+09 2.79528e+09 2.7963e+09 2.79648e+09 1 1
224 1 1 2.80544e+09 2.8057e+09 2.80672e+09 2.80689e+09 0 1
225 1 1 2.80964e+09 2.80989e+09 2.81091e+09 2.81095e+09 0 1
226 1 1 2.81389e+09 2.81416e+09 2.81517e+09 2.8152e+09 0 1
227 1 0 2.83163e+09 2.83189e+09 2.83291e+09 2.83991e+09 0 0
228 1 1 2.84728e+09 2.84754e+09 2.84856e+09 2.8486e+09 1 1
229 1 0 2.86925e+09 2.86951e+09 2.87053e+09 2.87119e+09 0 0
230 1 0 2.87853e+09 2.87878e+09 2.8798e+09 2.87997e+09 1 0
231 1 0 2.889e+09 2.88926e+09 2.89028e+09 2.89028e+09 1 0
232 1 1 2.89752e+09 2.89777e+09 2.89879e+09 2.899e+09 1 1
233 1 1 2.91019e+09 2.91045e+09 2.91147e+09 2.91159e+09 0 1
234 1 0 2.92949e+09 2.92975e+09 2.93076e+09 2.93083e+09 0 0
235 1 1 2.93811e+09 2.93837e+09 2.93939e+09 2.93941e+09 1 1
236 1 1 2.94773e+09 2.948e+09 2.94902e+09 2.9499e+09 0 1
237 1 1 2.95688e+09 2.95713e+09 2.95815e+09 2.95819e+09 0 1
238 2 0 2.96647e+09 2.96673e+09 2.96775e+09 2.9683e+09 0 1
239 2 1 2.97844e+09 2.97871e+09 2.97972e+09 2.97989e+09 0 0
240 2 1 2.98719e+09 2.98745e+09 2.98847e+09 2.98852e+09 1 0
241 2 1 2.99574e+09 2.99599e+09 2.99701e+09 2.99712e+09 1 0
242 2 0 3.0046e+09 3.00486e+09 3.00588e+09 3.00683e+09 1 1
243 1 0 3.01313e+09 3.01339e+09 3.01441e+09 3.01443e+09 0 0
244 1 0 3.02146e+09 3.02173e+09 3.02275e+09 3.02286e+09 1 0
245 1 0 3.03036e+09 3.03062e+09 3.03164e+09 3.03166e+09 1 0
246 1 1 3.04044e+09 3.04071e+09 3.04172e+09 3.04184e+09 1 1
247 2 1 3.05653e+09 3.05679e+09 3.0578e+09 3.05782e+09 0 0
248 2 1 3.06496e+09 3.06524e+09 3.06625e+09 3.0663e+09 1 0
249 2 1 3.07359e+09 3.07386e+09 3.07487e+09 3.07497e+09 1 0
250 2 1 3.08266e+09 3.08292e+09 3.08394e+09 3.08409e+09 1 0
251 1 0 3.09152e+09 3.09179e+09 3.09281e+09 3.09284e+09 0 0
252 2 1 3.10006e+09 3.10034e+09 3.10136e+09 3.10146e+09 0 0
253 1 0 3.10887e+09 3.10912e+09 3.11014e+09 3.11017e+09 0 0
254 2 1 3.11778e+09 3.11804e+09 3.11906e+09 3.1191e+09 0 0
255 2 1 3.12633e+09 3.12659e+09 3.12761e+09 3.13288e+09 0 0
256 1 1 3.14033e+09 3.14059e+09 3.14161e+09 3.1434e+09 0 1
257 1 0 3.14809e+09 3.14836e+09 3.14938e+09 3.15142e+09 0 0
258 1 0 3.15992e+09 3.16018e+09 3.1612e+09 3.16646e+09 1 0
259 1 0 3.17577e+09 3.17603e+09 3.17705e+09 3.17748e+09 1 0
260 1 1 3.18498e+09 3.18523e+09 3.18625e+09 3.19083e+09 1 1
261 2 1 3.20181e+09 3.20207e+09 3.20308e+09 3.20318e+09 0 0
262 2 0 3.21049e+09 3.21075e+09 3.21176e+09 3.21274e+09 1 1
263 2 0 3.2236e+09 3.22386e+09 3.22487e+09 3.2249e+09 0 1
264 2 1 3.23495e+09 3.23522e+09 3.23624e+09 3.23664e+09 0 0
265 2 0 3.2441e+09 3.24436e+09 3.24538e+09 3.24611e+09 1 1
266 2 1 3.2549e+09 3.25516e+09 3.25618e+09 3.2562e+09 0 0
267 2 0 3.2635e+09 3.26376e+09 3.26478e+09 3.26529e+09 1 1
268 1 0 3.27339e+09 3.27366e+09 3.27468e+09 3.27497e+09 0 0
269 1 1 3.28323e+09 3.2835e+09 3.28452e+09 3.28454e+09 1 1
270 2 1 3.29236e+09 3.29262e+09 3.29363e+09 3.29367e+09 0 0
271 2 0 3.30792e+09 3.30819e+09 3.30921e+09 3.30956e+09 1 1
272 1 1 3.31422e+09 3.31448e+09 3.3155e+09 3.31552e+09 0 1
273 1 1 3.31991e+09 3.32016e+09 3.32118e+09 3.32126e+09 0 1
274 1 1 3.33147e+09 3.33172e+09 3.33274e+09 3.333e+09 0 1
275 2 1 3.33812e+09 3.33838e+09 3.3394e+09 3.33965e+09 0 0
276 2 1 3.34678e+09 3.34705e+09 3.34807e+09 3.3481e+09 1 0
277 2 0 3.35611e+09 3.35637e+09 3.35739e+09 3.3576e+09 1 1
278 1 1 3.37096e+09 3.37122e+09 3.37224e+09 3.37229e+09 0 1
279 2 1 3.38332e+09 3.38359e+09 3.38461e+09 3.3847e+09 0 0
280 2 1 3.39188e+09 3.39215e+09 3.39317e+09 3.39324e+09 1 0
281 2 1 3.40075e+09 3.401e+09 3.40202e+09 3.40215e+09 1 0
282 2 0 3.40961e+09 3.40987e+09 3.41089e+09 3.41106e+09 1 1
283 2 0 3.41708e+09 3.41734e+09 3.41836e+09 3.41874e+09 0 1
284 1 1 3.42945e+09 3.42971e+09 3.43073e+09 3.43084e+09 0 1
285 2 1 3.43333e+09 3.4336e+09 3.43462e+09 3.43531e+09 0 0
286 2 1 3.45037e+09 3.45063e+09 3.45165e+09 3.45185e+09 1 0
287 2 0 3.46138e+09 3.46165e+09 3.46267e+09 3.46333e+09 1 1
288 2 1 3.46913e+09 3.46938e+09 3.4704e+09 3.47045e+09 0 0
289 2 1 3.47786e+09 3.47812e+09 3.47914e+09 3.47935e+09 1 0
290 2 0 3.48658e+09 3.48684e+09 3.48786e+09 3.48845e+09 1 1
291 2 0 3.50066e+09 3.50093e+09 3.50194e+09 3.50224e+09 0 1
292 2 1 3.51432e+09 3.51456e+09 3.51558e+09 3.51561e+09 0 0
293 2 0 3.52269e+09 3.52296e+09 3.52397e+09 3.52413e+09 1 1
294 1 0 3.52712e+09 3.52738e+09 3.5284e+09 3.52851e+09 0 0
295 1 1 3.5439e+09 3.54416e+09 3.54518e+09 3.54539e+09 1 1
296 1 1 3.548e+09 3.54826e+09 3.54928e+09 3.54937e+09 0 1
297 2 1 3.56461e+09 3.56487e+09 3.56589e+09 3.566e+09 0 0
298 2 0 3.57337e+09 3.57363e+09 3.57465e+09 3.57499e+09 1 1
299 1 1 3.58161e+09 3.58187e+09 3.58289e+09 3.58303e+09 0 1
300 1 1 3.59057e+09 3.59084e+09 3.59185e+09 3.59193e+09 0 1
301 1 1 3.59784e+09 3.59809e+09 3.59911e+09 3.59913e+09 0 1
302 1 0 3.60715e+09 3.60741e+09 3.60843e+09 3.60844e+09 0 0
303 1 1 3.61561e+09 3.61587e+09 3.61689e+09 3.61695e+09 1 1
304 1 1 3.63157e+09 3.63183e+09 3.63285e+09 3.63348e+09 0 1
305 2 0 3.6373e+09 3.63756e+09 3.63858e+09 3.64269e+09 0 1
306 1 0 3.65295e+09 3.6532e+09 3.65422e+09 3.65432e+09 0 0
307 1 0 3.66172e+09 3.66199e+09 3.663e+09 3.66326e+09 1 0
308 1 0 3.67058e+09 3.67083e+09 3.67185e+09 3.67195e+09 1 0
309 1 0 3.67923e+09 3.6795e+09 3.68052e+09 3.68674e+09 1 0
310 1 1 3.6959e+09 3.69617e+09 3.69719e+09 3.6974e+09 0 1
311 2 1 3.70128e+09 3.70153e+09 3.70255e+09 3.70258e+09 0 0
312 2 0 3.71161e+09 3.71187e+09 3.71289e+09 3.71307e+09 1 1
313 1 1 3.72012e+09 3.72037e+09 3.72139e+09 3.7216e+09 0 1
314 2 0 3.72972e+09 3.72998e+09 3.731e+09 3.7312e+09 0 1
315 1 0 3.73542e+09 3.73568e+09 3.7367e+09 3.73966e+09 0 0
316 1 1 3.74699e+09 3.74725e+09 3.74826e+09 3.75672e+09 1 1
317 1 0 3.76651e+09 3.76676e+09 3.76778e+09 3.7682e+09 0 0
318 1 1 3.77669e+09 3.77695e+09 3.77796e+09 3.77798e+09 1 1
319 1 0 3.78278e+09 3.78304e+09 3.78406e+09 3.78408e+09 0 0
320 1 0 3.79123e+09 3.79149e+09 3.79251e+09 3.79284e+09 1 0
321 1 0 3.80024e+09 3.80049e+09 3.80151e+09 3.80152e+09 1 0
322 1 0 3.8097e+09 3.80996e+09 3.81098e+09 3.81129e+09 1 0
323 2 1 3.8188e+09 3.81906e+09 3.82007e+09 3.82014e+09 0 0
324 2 0 3.82785e+09 3.8281e+09 3.82912e+09 3.83596e+09 0 1
325 1 0 3.83988e+09 3.84014e+09 3.84115e+09 3.84121e+09 0 0
326 1 0 3.84851e+09 3.84875e+09 3.84977e+09 3.8501e+09 1 0
327 1 0 3.85729e+09 3.85754e+09 3.85856e+09 3.85913e+09 1 0
328 1 0 3.86746e+09 3.86771e+09 3.86873e+09 3.86898e+09 1 0
329 2 0 3.87609e+09 3.87634e+09 3.87736e+09 3.8776e+09 0 1
330 1 1 3.88019e+09 3.88045e+09 3.88146e+09 3.88151e+09 0 1
331 2 0 3.8846e+09 3.88485e+09 3.88587e+09 3.88591e+09 0 1
332 2 1 3.89156e+09 3.89181e+09 3.89283e+09 3.89298e+09 0 0
333 2 0 3.90039e+09 3.90065e+09 3.90166e+09 3.91316e+09 1 1
334 2 1 3.91833e+09 3.9186e+09 3.91962e+09 3.91971e+09 0 0
335 2 0 3.92747e+09 3.92773e+09 3.92875e+09 3.92888e+09 1 1
336 2 1 3.93436e+09 3.93461e+09 3.93563e+09 3.93568e+09 0 0
337 2 0 3.94297e+09 3.94323e+09 3.94424e+09 3.94427e+09 1 1
338 1 1 3.94837e+09 3.94862e+09 3.94964e+09 3.94966e+09 0 1
339 1 0 3.95605e+09 3.95629e+09 3.95731e+09 3.95755e+09 0 0
340 1 0 3.96502e+09 3.96527e+09 3.96629e+09 3.96665e+09 1 0
341 1 0 3.98265e+09 3.98289e+09 3.98391e+09 3.98441e+09 1 0
342 1 0 3.99167e+09 3.99193e+09 3.99295e+09 3.99752e+09 1 0
343 2 1 4.00507e+09 4.00532e+09 4.00634e+09 4.00641e+09 0 0
344 2 1 4.01447e+09 4.01472e+09 4.01574e+09 4.01597e+09 0 0
345 2 1 4.02356e+09 4.02381e+09 4.02483e+09 4.02486e+09 0 0
346 2 1 4.03292e+09 4.03317e+09 4.03419e+09 4.04329e+09 0 0
347 1 1 4.05083e+09 4.05109e+09 4.05211e+09 4.07502e+09 0 1
348 2 0 4.08035e+09 4.0806e+09 4.08162e+09 4.08169e+09 0 1
349 1 0 4.08423e+09 4.08449e+09 4.08551e+09 4.14656e+09 0 0
350 1 0 4.15395e+09 4.15421e+09 4.15523e+09 4.19247e+09 1 0
351 1 0 4.19963e+09 4.19988e+09 4.20089e+09 4.27079e+09 1 0
352 1 0 4.27795e+09 4.2782e+09 4.27922e+09 4.28797e+09 1 0
353 1 0 200716 459804 1.47874e+06 2.25788e+06 0 0
354 2 1 1.00639e+07 1.03084e+07 1.13274e+07 1.67715e+08 0 0
355 1 1 1.7516e+08 1.75422e+08 1.76441e+08 2.04165e+08 0 1
356 1 1 2.07091e+08 2.07337e+08 2.08356e+08 2.094e+08 0 1
357 2 1 2.12772e+08 2.13037e+08 2.14056e+08 2.14081e+08 0 0
358 2 0 2.21208e+08 2.21462e+08 2.22481e+08 2.34473e+08 1 1
359 2 0 2.38362e+08 2.38629e+08 2.39648e+08 2.39842e+08 0 1
360 2 1 2.49223e+08 2.49482e+08 2.50501e+08 1.01426e+09 0 0
