trial trialType response stillTime stimOnset stimOffset respTime correctionTrial correct
001 1 1 6.88641e+06 7.19257e+06 8.2115e+06 4.36953e+07 0 1
002 1 1 1.22139e+08 1.22413e+08 1.23432e+08 1.23475e+08 0 1
003 2 0 1.27084e+08 1.27356e+08 1.28375e+08 1.28386e+08 0 1
004 1 0 1.63877e+08 1.64127e+08 1.65146e+08 1.81884e+08 0 0
005 1 1 1.89824e+08 1.90078e+08 1.91097e+08 1.92695e+08 1 1
006 1 1 2.0315e+08 2.03397e+08 2.04416e+08 2.0459e+08 0 1
007 1 1 2.12977e+08 2.13233e+08 2.14252e+08 2.14322e+08 0 1
008 2 0 2.37072e+08 2.3733e+08 2.38349e+08 2.38371e+08 0 1
009 1 0 2.54815e+08 2.55079e+08 2.56098e+08 2.5666e+08 0 0
010 1 0 2.6495e+08 2.65201e+08 2.6622e+08 2.66779e+08 1 0
011 1 1 2.75189e+08 2.75438e+08 2.76457e+08 2.76555e+08 1 1
012 2 1 2.807e+08 2.80951e+08 2.8197e+08 2.81982e+08 0 0
013 2 0 2.94462e+08 2.94716e+08 2.95735e+08 2.95863e+08 1 1
014 1 1 3.02523e+08 3.02775e+08 3.03794e+08 3.03849e+08 0 1
015 2 1 3.20582e+08 3.20842e+08 3.21861e+08 3.22074e+08 0 0
016 2 1 3.29107e+08 3.29356e+08 3.30375e+08 3.30451e+08 1 0
017 2 1 3.37803e+08 3.38057e+08 3.39075e+08 3.39092e+08 1 0
018 2 0 3.49212e+08 3.49464e+08 3.50482e+08 3.56263e+08 1 1
019 1 1 3.59145e+08 3.59394e+08 3.60412e+08 3.60682e+08 0 1
020 1 0 3.68669e+08 3.68916e+08 3.69935e+08 3.70009e+08 0 0
021 1 0 3.77348e+08 3.776e+08 3.78619e+08 3.78632e+08 1 0
022 1 0 3.85839e+08 3.86091e+08 3.8711e+08 3.90751e+08 1 0
023 1 0 3.98614e+08 3.98867e+08 3.99886e+08 4.02987e+08 1 0
024 1 0 4.10231e+08 4.10485e+08 4.11504e+08 4.20508e+08 0 0
025 2 0 4.29866e+08 4.30117e+08 4.31136e+08 4.31821e+08 0 1
026 1 0 4.40331e+08 4.40583e+08 4.41602e+08 4.42472e+08 0 0
027 1 0 4.50472e+08 4.50718e+08 4.51737e+08 4.51753e+08 1 0
028 1 0 4.66559e+08 4.66814e+08 4.67833e+08 4.81232e+08 1 0
029 1 0 4.88581e+08 4.8884e+08 4.89858e+08 4.89868e+08 1 0
030 2 0 5.08694e+08 5.08943e+08 5.09962e+08 5.10083e+08 0 1
031 2 1 5.1532e+08 5.15588e+08 5.16607e+08 5.1677e+08 0 0
032 2 0 5.24126e+08 5.24377e+08 5.25396e+08 5.25431e+08 1 1
033 2 0 5.44208e+08 5.44475e+08 5.45494e+08 5.45527e+08 0 1
034 2 1 5.55088e+08 5.55352e+08 5.5637e+08 5.56494e+08 0 0
035 2 1 5.63843e+08 5.64092e+08 5.65111e+08 5.87534e+08 1 0
036 2 0 5.99106e+08 5.99358e+08 6.00377e+08 6.00383e+08 1 1
037 1 0 6.0335e+08 6.03598e+08 6.04617e+08 6.04783e+08 0 0
038 1 1 6.11972e+08 6.12229e+08 6.13248e+08 6.13269e+08 1 1
039 1 1 6.16439e+08 6.16686e+08 6.17705e+08 6.17723e+08 0 1
040 1 0 6.30703e+08 6.3097e+08 6.31989e+08 6.32648e+08 0 0
041 1 0 6.40151e+08 6.404e+08 6.41419e+08 6.41918e+08 1 0
042 1 1 6.49123e+08 6.49381e+08 6.504e+08 6.5087e+08 1 1
043 1 1 6.5383e+08 6.54079e+08 6.55098e+08 6.55453e+08 0 1
044 2 0 6.68326e+08 6.6858e+08 6.69599e+08 6.69635e+08 0 1
045 1 0 6.80948e+08 6.81194e+08 6.82213e+08 6.82239e+08 0 0
046 1 0 6.89529e+08 6.89786e+08 6.90804e+08 7.02593e+08 1 0
047 1 1 7.13233e+08 7.1349e+08 7.14509e+08 7.14546e+08 1 1
048 1 0 7.2489e+08 7.25138e+08 7.26157e+08 7.26177e+08 0 0
049 1 0 7.33398e+08 7.33652e+08 7.34671e+08 7.56554e+08 1 0
050 1 1 7.6395e+08 7.64202e+08 7.65221e+08 7.65958e+08 1 1
051 2 0 7.68442e+08 7.68692e+08 7.69711e+08 7.69807e+08 0 1
052 1 0 7.79946e+08 7.80192e+08 7.81211e+08 7.82737e+08 0 0
053 1 1 7.89987e+08 7.9024e+08 7.91259e+08 7.9139e+08 1 1
054 2 1 7.94308e+08 7.94561e+08 7.9558e+08 7.95643e+08 0 0
055 2 1 8.02836e+08 8.03086e+08 8.04105e+08 8.04129e+08 1 0
056 2 1 8.11653e+08 8.11914e+08 8.12933e+08 8.13066e+08 1 0
057 2 0 8.2159e+08 8.21834e+08 8.22853e+08 8.24067e+08 1 1
058 1 1 8.26831e+08 8.27078e+08 8.28097e+08 8.28132e+08 0 1
059 2 0 8.43961e+08 8.44218e+08 8.45237e+08 8.45265e+08 0 1
060 1 0 8.55933e+08 8.56185e+08 8.57204e+08 8.58286e+08 0 0
061 1 1 8.65536e+08 8.65784e+08 8.66803e+08 8.67008e+08 1 1
062 1 1 8.7232e+08 8.72577e+08 8.73596e+08 8.7489e+08 0 1
063 1 0 8.77414e+08 8.77665e+08 8.78684e+08 8.79502e+08 0 0
064 1 0 8.86564e+08 8.8681e+08 8.87829e+08 8.88266e+08 1 0
065 1 0 8.95599e+08 8.95848e+08 8.96866e+08 8.97591e+08 1 0
066 1 0 9.04973e+08 9.0523e+08 9.06249e+08 9.06712e+08 1 0
067 2 0 9.14403e+08 9.14658e+08 9.15677e+08 9.15684e+08 0 1
068 1 0 9.2535e+08 9.25608e+08 9.26626e+08 9.39246e+08 0 0
069 1 0 9.46504e+08 9.46764e+08 9.47783e+08 9.48259e+08 1 0
070 1 1 9.62087e+08 9.62336e+08 9.63355e+08 9.64286e+08 1 1
071 1 0 9.69264e+08 9.69526e+08 9.70545e+08 9.70713e+08 0 0
072 1 0 9.7823e+08 9.78482e+08 9.79501e+08 9.79701e+08 1 0
073 1 1 9.86868e+08 9.87122e+08 9.88141e+08 1.03105e+09 1 1
074 2 0 1.03386e+09 1.0341e+09 1.03512e+09 1.03517e+09 0 1
075 1 0 1.03801e+09 1.03826e+09 1.03928e+09 1.03929e+09 0 0
076 1 0 1.04664e+09 1.04689e+09 1.04791e+09 1.04793e+09 1 0
077 1 0 1.05503e+09 1.05527e+09 1.05629e+09 1.07075e+09 1 0
078 1 1 1.07782e+09 1.07807e+09 1.07909e+09 1.07914e+09 1 1
079 2 1 1.08631e+09 1.08656e+09 1.08758e+09 1.08771e+09 0 0
080 2 1 1.09493e+09 1.09519e+09 1.09621e+09 1.09623e+09 1 0
081 2 0 1.11073e+09 1.11098e+09 1.112e+09 1.11205e+09 1 1
082 2 0 1.11462e+09 1.11488e+09 1.1159e+09 1.11593e+09 0 1
083 2 1 1.13061e+09 1.13087e+09 1.13189e+09 1.13192e+09 0 0
084 2 0 1.13895e+09 1.13921e+09 1.14023e+09 1.14046e+09 1 1
085 2 1 1.14952e+09 1.14978e+09 1.1508e+09 1.15283e+09 0 0
086 2 0 1.16005e+09 1.16031e+09 1.16133e+09 1.16135e+09 1 1
087 2 1 1.16395e+09 1.1642e+09 1.16522e+09 1.16524e+09 0 0
088 2 0 1.17268e+09 1.17294e+09 1.17396e+09 1.17398e+09 1 1
089 2 1 1.17868e+09 1.17893e+09 1.17995e+09 1.17997e+09 0 0
090 2 0 1.18731e+09 1.18756e+09 1.18858e+09 1.18998e+09 1 1
091 2 0 1.19274e+09 1.19299e+09 1.19401e+09 1.19419e+09 0 1
092 1 0 1.20482e+09 1.20507e+09 1.20609e+09 1.20613e+09 0 0
093 1 0 1.21317e+09 1.21342e+09 1.21443e+09 1.21446e+09 1 0
094 1 0 1.22189e+09 1.22214e+09 1.22316e+09 1.24274e+09 1 0
095 1 0 1.27904e+09 1.27929e+09 1.28031e+09 1.28382e+09 1 0
096 2 0 1.30272e+09 1.30297e+09 1.30399e+09 1.30402e+09 0 1
097 2 1 1.30672e+09 1.30697e+09 1.30799e+09 1.30808e+09 0 0
098 2 0 1.31547e+09 1.31571e+09 1.31673e+09 1.31692e+09 1 1
099 1 0 1.34401e+09 1.34427e+09 1.34529e+09 1.34534e+09 0 0
100 1 0 1.35364e+09 1.35389e+09 1.3549e+09 1.35497e+09 1 0
101 1 1 1.36201e+09 1.36227e+09 1.36329e+09 1.36994e+09 1 1
102 2 1 1.37688e+09 1.37713e+09 1.37815e+09 1.37828e+09 0 0
103 2 0 1.38569e+09 1.38595e+09 1.38697e+09 1.38734e+09 1 1
104 2 1 1.39445e+09 1.3947e+09 1.39572e+09 1.39575e+09 0 0
105 2 0 1.40578e+09 1.40604e+09 1.40706e+09 1.40737e+09 1 1
106 2 0 1.42091e+09 1.42117e+09 1.42219e+09 1.42809e+09 0 1
107 1 0 1.43123e+09 1.43149e+09 1.43251e+09 1.43252e+09 0 0
108 1 0 1.43995e+09 1.44021e+09 1.44123e+09 1.44633e+09 1 0
109 1 1 1.45366e+09 1.45392e+09 1.45494e+09 1.45509e+09 1 1
110 2 0 1.46657e+09 1.46684e+09 1.46786e+09 1.4681e+09 0 1
111 2 1 1.47541e+09 1.47568e+09 1.4767e+09 1.47671e+09 0 0
112 2 1 1.48397e+09 1.48424e+09 1.48526e+09 1.48532e+09 1 0
113 2 0 1.49313e+09 1.49339e+09 1.49441e+09 1.51107e+09 1 1
114 2 0 1.52192e+09 1.52218e+09 1.5232e+09 1.52373e+09 0 1
115 2 0 1.53419e+09 1.53443e+09 1.53545e+09 1.53569e+09 0 1
116 1 1 1.53911e+09 1.53935e+09 1.54037e+09 1.54049e+09 0 1
117 2 0 1.55551e+09 1.55576e+09 1.55678e+09 1.5568e+09 0 1
118 1 0 1.55967e+09 1.55993e+09 1.56095e+09 1.56112e+09 0 0
119 1 0 1.57382e+09 1.57408e+09 1.5751e+09 1.57511e+09 1 0
120 1 0 1.58753e+09 1.58779e+09 1.58881e+09 1.58882e+09 1 0
121 1 0 1.59634e+09 1.5966e+09 1.59762e+09 1.6071e+09 1 0
122 1 1 1.61426e+09 1.61451e+09 1.61553e+09 1.62568e+09 0 1
123 2 0 1.62825e+09 1.62851e+09 1.62953e+09 1.62958e+09 0 1
124 1 1 1.65013e+09 1.6504e+09 1.65142e+09 1.6515e+09 0 1
125 1 0 1.65907e+09 1.65932e+09 1.66034e+09 1.66035e+09 0 0
126 1 0 1.66785e+09 1.66812e+09 1.66914e+09 1.66926e+09 1 0
127 1 1 1.6764e+09 1.67666e+09 1.67768e+09 1.67795e+09 1 1
128 2 0 1.68046e+09 1.68072e+09 1.68174e+09 1.68176e+09 0 1
129 2 1 1.69316e+09 1.69341e+09 1.69443e+09 1.69445e+09 0 0
130 2 0 1.71567e+09 1.71593e+09 1.71695e+09 1.7172e+09 1 1
131 1 0 1.72769e+09 1.72795e+09 1.72897e+09 1.72905e+09 0 0
132 1 0 1.74151e+09 1.74175e+09 1.74277e+09 1.7501e+09 1 0
133 1 0 1.76016e+09 1.76042e+09 1.76144e+09 1.76223e+09 1 0
134 1 0 1.78738e+09 1.78763e+09 1.78865e+09 1.79275e+09 1 0
135 1 0 1.80109e+09 1.80134e+09 1.80236e+09 1.80281e+09 0 0
136 1 1 1.81023e+09 1.81049e+09 1.8115e+09 1.81175e+09 0 1
137 1 1 1.8144e+09 1.81466e+09 1.81568e+09 1.81578e+09 0 1
138 2 1 1.83088e+09 1.83114e+09 1.83216e+09 1.83219e+09 0 0
139 2 0 1.84954e+09 1.84981e+09 1.85083e+09 1.85085e+09 1 1
140 2 0 1.8727e+09 1.87296e+09 1.87398e+09 1.874e+09 0 1
141 1 0 1.89103e+09 1.89128e+09 1.8923e+09 1.90044e+09 0 0
142 1 1 1.90782e+09 1.90806e+09 1.90908e+09 1.90929e+09 1 1
143 2 0 1.92661e+09 1.92688e+09 1.9279e+09 1.92848e+09 0 1
144 1 0 1.93102e+09 1.93127e+09 1.93229e+09 1.93231e+09 0 0
145 1 0 1.94323e+09 1.94348e+09 1.9445e+09 1.94846e+09 1 0
146 1 1 1.95579e+09 1.95604e+09 1.95706e+09 1.95746e+09 1 1
147 2 1 1.97026e+09 1.97051e+09 1.97153e+09 1.97156e+09 0 0
148 2 0 1.98287e+09 1.98314e+09 1.98416e+09 1.98439e+09 1 1
149 1 0 2.00579e+09 2.00605e+09 2.00707e+09 2.00722e+09 0 0
150 1 0 2.01872e+09 2.01898e+09 2.02e+09 2.02042e+09 1 0
151 1 0 2.0356e+09 2.03587e+09 2.03689e+09 2.03692e+09 1 0
152 1 0 2.04809e+09 2.04835e+09 2.04937e+09 2.04941e+09 1 0
153 1 0 2.06368e+09 2.06394e+09 2.06496e+09 2.06508e+09 0 0
154 2 0 2.07249e+09 2.07274e+09 2.07376e+09 2.07392e+09 0 1
155 1 0 2.12661e+09 2.12686e+09 2.12788e+09 2.12789e+09 0 0
156 1 0 2.14197e+09 2.14222e+09 2.14324e+09 2.14329e+09 1 0
157 1 0 2.15912e+09 2.15937e+09 2.16039e+09 2.1604e+09 1 0
158 1 1 2.17646e+09 2.17673e+09 2.17775e+09 2.17786e+09 1 1
159 1 1 2.19458e+09 2.19484e+09 2.19585e+09 2.19588e+09 0 1
160 2 0 2.20085e+09 2.20112e+09 2.20213e+09 2.20224e+09 0 1
161 1 1 2.21297e+09 2.21323e+09 2.21425e+09 2.21428e+09 0 1
162 2 0 2.22977e+09 2.23003e+09 2.23105e+09 2.23108e+09 0 1
163 2 0 2.25274e+09 2.253e+09 2.25402e+09 2.25417e+09 0 1
164 1 1 2.27105e+09 2.2713e+09 2.27232e+09 2.27249e+09 0 1
165 2 1 2.27521e+09 2.27547e+09 2.27649e+09 2.27661e+09 0 0
166 2 1 2.29716e+09 2.29743e+09 2.29845e+09 2.29854e+09 1 0
167 2 0 2.30579e+09 2.30605e+09 2.30707e+09 2.30721e+09 1 1
168 1 0 2.32215e+09 2.32242e+09 2.32343e+09 2.32351e+09 0 0
169 1 0 2.33995e+09 2.3402e+09 2.34122e+09 2.34476e+09 1 0
170 1 0 2.37404e+09 2.37429e+09 2.37531e+09 2.37547e+09 1 0
171 1 0 2.39033e+09 2.39058e+09 2.3916e+09 2.40768e+09 1 0
172 2 0 2.42393e+09 2.42418e+09 2.4252e+09 2.42528e+09 0 1
173 2 1 2.44053e+09 2.44079e+09 2.44181e+09 2.44188e+09 0 0
174 2 0 2.48266e+09 2.48293e+09 2.48394e+09 2.48399e+09 1 1
175 2 1 2.50305e+09 2.50331e+09 2.50433e+09 2.50443e+09 0 0
176 2 0 2.52622e+09 2.52648e+09 2.5275e+09 2.5276e+09 1 1
177 1 0 2.55529e+09 2.55553e+09 2.55655e+09 2.55657e+09 0 0
178 1 0 2.57459e+09 2.57484e+09 2.57586e+09 2.5759e+09 1 0
179 1 1 2.59302e+09 2.59327e+09 2.59429e+09 2.59443e+09 1 1
180 2 0 2.62235e+09 2.6226e+09 2.62362e+09 2.62422e+09 0 1
181 2 0 2.648e+09 2.64825e+09 2.64927e+09 2.64929e+09 0 1
182 1 0 2.6835e+09 2.68376e+09 2.68478e+09 2.6853e+09 0 0
183 1 0 2.69261e+09 2.69287e+09 2.69389e+09 2.69392e+09 1 0
184 1 1 2.701e+09 2.70126e+09 2.70228e+09 2.70258e+09 1 1
185 2 1 2.71653e+09 2.71678e+09 2.7178e+09 2.71785e+09 0 0
186 2 0 2.72528e+09 2.72554e+09 2.72656e+09 2.72661e+09 1 1
187 1 0 2.73733e+09 2.73758e+09 2.7386e+09 2.73863e+09 0 0
188 1 0 2.74606e+09 2.74632e+09 2.74734e+09 2.7721e+09 1 0
189 1 0 2.78008e+09 2.78033e+09 2.78135e+09 2.78145e+09 1 0
190 1 0 2.79858e+09 2.79884e+09 2.79986e+09 2.79993e+09 1 0
191 1 1 2.82692e+09 2.82716e+09 2.82818e+09 2.82831e+09 0 1
192 1 1 2.8532e+09 2.85345e+09 2.85446e+09 2.85468e+09 0 1
193 1 0 2.89101e+09 2.89127e+09 2.89228e+09 2.89231e+09 0 0
194 1 1 2.90121e+09 2.90147e+09 2.90249e+09 2.90734e+09 1 1
195 2 0 2.91473e+09 2.91499e+09 2.91601e+09 2.91606e+09 0 1
196 2 1 2.93319e+09 2.93345e+09 2.93447e+09 2.9345e+09 0 0
197 2 1 2.94175e+09 2.94201e+09 2.94303e+09 2.94309e+09 1 0
198 2 1 2.95438e+09 2.95463e+09 2.95565e+09 2.95579e+09 1 0
199 2 1 2.96925e+09 2.96951e+09 2.97053e+09 2.97081e+09 1 0
200 2 0 2.97806e+09 2.97831e+09 2.97932e+09 2.9799e+09 0 1
201 2 0 2.9978e+09 2.99806e+09 2.99908e+09 2.99927e+09 0 1
202 1 1 3.0282e+09 3.02846e+09 3.02948e+09 3.02955e+09 0 1
203 1 1 3.04604e+09 3.04631e+09 3.04733e+09 3.04735e+09 0 1
204 2 1 3.08455e+09 3.0848e+09 3.08582e+09 3.08593e+09 0 0
205 2 0 3.0954e+09 3.09565e+09 3.09667e+09 3.09669e+09 1 1
206 1 0 3.10758e+09 3.10785e+09 3.10887e+09 3.10889e+09 0 0
207 1 0 3.11806e+09 3.11833e+09 3.11935e+09 3.11941e+09 1 0
208 1 0 3.12648e+09 3.12674e+09 3.12776e+09 3.12842e+09 1 0
209 1 0 3.13563e+09 3.13589e+09 3.13691e+09 3.13699e+09 1 0
210 2 1 3.14871e+09 3.14896e+09 3.14998e+09 3.15009e+09 0 0
211 2 0 3.15724e+09 3.1575e+09 3.15852e+09 3.15867e+09 0 1
212 2 0 3.16123e+09 3.16149e+09 3.16251e+09 3.16257e+09 0 1
213 1 1 3.17564e+09 3.17589e+09 3.17691e+09 3.19481e+09 0 1
214 1 0 3.20798e+09 3.20824e+09 3.20926e+09 3.20956e+09 0 0
215 1 0 3.21676e+09 3.21701e+09 3.21803e+09 3.24686e+09 1 0
216 1 0 3.25412e+09 3.25437e+09 3.25538e+09 3.25544e+09 1 0
217 1 1 3.26403e+09 3.26428e+09 3.2653e+09 3.26957e+09 1 1
218 1 0 3.31279e+09 3.31304e+09 3.31405e+09 3.32915e+09 0 0
219 1 0 3.36769e+09 3.36795e+09 3.36897e+09 3.37433e+09 1 0
220 1 0 3.38453e+09 3.38478e+09 3.3858e+09 3.38588e+09 1 0
221 1 0 3.41166e+09 3.41193e+09 3.41295e+09 3.41323e+09 1 0
222 2 1 3.42152e+09 3.42178e+09 3.4228e+09 3.42298e+09 0 0
223 2 0 3.43057e+09 3.43083e+09 3.43184e+09 3.43197e+09 0 1
224 1 0 3.44189e+09 3.44215e+09 3.44317e+09 3.45124e+09 0 0
225 1 0 3.45855e+09 3.4588e+09 3.45982e+09 3.46004e+09 1 0
226 1 0 3.4712e+09 3.47145e+09 3.47247e+09 3.47267e+09 1 0
227 1 1 3.48008e+09 3.48033e+09 3.48135e+09 3.50157e+09 1 1
228 2 0 3.50439e+09 3.50464e+09 3.50566e+09 3.50573e+09 0 1
229 1 1 3.519e+09 3.51926e+09 3.52027e+09 3.52033e+09 0 1
230 2 0 3.54452e+09 3.54479e+09 3.54581e+09 3.54583e+09 0 1
231 1 1 3.55512e+09 3.55538e+09 3.5564e+09 3.55644e+09 0 1
232 2 1 3.58589e+09 3.58616e+09 3.58718e+09 3.5872e+09 0 0
233 2 0 3.59432e+09 3.59458e+09 3.5956e+09 3.59569e+09 1 1
234 2 1 3.61359e+09 3.61385e+09 3.61486e+09 3.61508e+09 0 0
235 2 1 3.62236e+09 3.62262e+09 3.62364e+09 3.62369e+09 1 0
236 2 0 3.63102e+09 3.63128e+09 3.6323e+09 3.63261e+09 1 1
237 1 0 3.64593e+09 3.64619e+09 3.64721e+09 3.64759e+09 0 0
238 1 1 3.65489e+09 3.65514e+09 3.65616e+09 3.65618e+09 1 1
239 2 0 3.68456e+09 3.6848e+09 3.68582e+09 3.68594e+09 0 1
240 2 1 3.68872e+09 3.68898e+09 3.69e+09 3.69037e+09 0 0
241 2 1 3.69876e+09 3.69901e+09 3.70003e+09 3.70007e+09 1 0
242 2 1 3.7115e+09 3.71176e+09 3.71278e+09 3.71282e+09 1 0
243 2 1 3.7202e+09 3.72046e+09 3.72148e+09 3.72156e+09 1 0
244 2 0 3.72866e+09 3.72892e+09 3.72994e+09 3.73002e+09 0 1
245 1 0 3.76166e+09 3.76191e+09 3.76293e+09 3.76299e+09 0 0
246 1 1 3.77004e+09 3.77029e+09 3.77131e+09 3.77151e+09 1 1
247 1 1 3.78639e+09 3.78665e+09 3.78767e+09 3.7877e+09 0 1
248 2 0 3.80337e+09 3.80363e+09 3.80465e+09 3.80466e+09 0 1
249 2 1 3.80836e+09 3.80861e+09 3.80963e+09 3.80969e+09 0 0
250 2 0 3.81859e+09 3.81884e+09 3.81986e+09 3.82001e+09 1 1
251 1 1 3.8317e+09 3.83196e+09 3.83298e+09 3.83301e+09 0 1
252 2 1 3.84058e+09 3.84084e+09 3.84186e+09 3.842e+09 0 0
253 2 0 3.84934e+09 3.84961e+09 3.85063e+09 3.85065e+09 1 1
254 1 0 3.8556e+09 3.85585e+09 3.85687e+09 3.85699e+09 0 0
255 1 1 3.87609e+09 3.87634e+09 3.87736e+09 3.87753e+09 1 1
256 1 1 3.8862e+09 3.88647e+09 3.88749e+09 3.88759e+09 0 1
257 2 0 3.90489e+09 3.90515e+09 3.90616e+09 3.90619e+09 0 1
258 1 0 3.90891e+09 3.90917e+09 3.91019e+09 3.91099e+09 0 0
259 1 1 3.92315e+09 3.9234e+09 3.92442e+09 3.92453e+09 1 1
260 1 0 3.94678e+09 3.94704e+09 3.94806e+09 3.94815e+09 0 0
261 1 1 3.95579e+09 3.95604e+09 3.95705e+09 3.95779e+09 1 1
262 1 1 3.96059e+09 3.96084e+09 3.96186e+09 3.96188e+09 0 1
263 1 0 3.98243e+09 3.98269e+09 3.98371e+09 3.98377e+09 0 0
264 1 1 3.99099e+09 3.99125e+09 3.99227e+09 3.99258e+09 1 1
265 1 1 4.01921e+09 4.01948e+09 4.0205e+09 4.02063e+09 0 1
266 1 0 4.03952e+09 4.03977e+09 4.04079e+09 4.04089e+09 0 0
267 1 0 4.04797e+09 4.04823e+09 4.04924e+09 4.04935e+09 1 0
268 1 0 4.05878e+09 4.05904e+09 4.06006e+09 4.06012e+09 1 0
269 1 0 4.08147e+09 4.08174e+09 4.08276e+09 4.08811e+09 1 0
270 2 1 4.09524e+09 4.09549e+09 4.09651e+09 4.09654e+09 0 0
271 1 1 4.10395e+09 4.1042e+09 4.10522e+09 4.10532e+09 0 1
272 1 0 4.11394e+09 4.11419e+09 4.11521e+09 4.11549e+09 0 0
273 1 1 4.12496e+09 4.12522e+09 4.12624e+09 4.14213e+09 1 1
274 2 1 4.16251e+09 4.16277e+09 4.16379e+09 4.16388e+09 0 0
275 2 0 4.17098e+09 4.17123e+09 4.17225e+09 4.17229e+09 1 1
276 1 0 4.18153e+09 4.18178e+09 4.1828e+09 4.18288e+09 0 0
277 1 0 4.19008e+09 4.19033e+09 4.19135e+09 4.21122e+09 1 0
278 1 1 4.21931e+09 4.21956e+09 4.22058e+09 4.22371e+09 1 1
279 2 1 4.22627e+09 4.22652e+09 4.22754e+09 4.22763e+09 0 0
280 2 0 4.23481e+09 4.23508e+09 4.2361e+09 4.23616e+09 1 1
281 2 0 4.25561e+09 4.25587e+09 4.25689e+09 4.25718e+09 0 1
282 1 1 4.267e+09 4.26726e+09 4.26828e+09 4.26839e+09 0 1
283 2 0 4.27799e+09 4.27824e+09 4.27926e+09 4.27926e+09 0 1
284 2 1 4.28946e+09 4.28972e+09 4.29074e+09 4.29076e+09 0 0
285 2 1 2.83547e+06 3.09425e+06 4.11318e+06 4.21342e+06 1 0
286 2 0 1.26607e+07 1.29246e+07 1.39435e+07 1.41972e+07 1 1
287 1 1 3.47003e+07 3.49591e+07 3.5978e+07 4.24665e+07 0 1
288 1 1 4.50427e+07 4.53017e+07 4.63206e+07 4.63417e+07 0 1
289 1 0 6.37276e+07 6.39917e+07 6.50106e+07 6.51063e+07 0 0
290 1 0 7.23395e+07 7.25977e+07 7.36166e+07 7.36328e+07 1 0
291 1 0 8.08817e+07 8.11325e+07 8.21514e+07 8.22602e+07 1 0
292 1 0 8.94116e+07 8.9674e+07 9.06929e+07 9.0793e+07 1 0
293 2 1 9.79395e+07 9.8187e+07 9.92059e+07 9.92253e+07 0 0
294 1 0 1.06816e+08 1.07072e+08 1.08091e+08 1.08196e+08 0 0
295 1 1 1.17496e+08 1.17754e+08 1.18773e+08 1.29083e+08 0 1
296 1 0 1.43193e+08 1.43457e+08 1.44476e+08 1.44484e+08 0 0
297 1 0 1.53005e+08 1.53254e+08 1.54273e+08 1.54283e+08 1 0
298 1 0 1.61639e+08 1.61888e+08 1.62906e+08 1.63009e+08 1 0
299 1 1 1.72018e+08 1.72271e+08 1.7329e+08 1.74571e+08 1 1
300 2 0 1.82138e+08 1.82396e+08 1.83414e+08 1.84015e+08 0 1
301 1 1 1.98216e+08 1.98473e+08 1.99492e+08 1.99562e+08 0 1
302 2 0 2.10085e+08 2.10344e+08 2.11363e+08 2.11547e+08 0 1
303 1 1 2.19913e+08 2.2016e+08 2.21179e+08 2.21223e+08 0 1
304 2 0 2.35497e+08 2.35758e+08 2.36777e+08 2.37393e+08 0 1
305 1 1 2.41822e+08 2.42085e+08 2.43104e+08 2.43159e+08 0 1
306 1 1 2.60095e+08 2.60344e+08 2.61363e+08 2.61637e+08 0 1
307 1 0 2.76686e+08 2.76942e+08 2.77961e+08 2.78163e+08 0 0
308 1 0 3.22285e+08 3.22539e+08 3.23557e+08 3.23849e+08 1 0
309 1 0 3.30897e+08 3.3115e+08 3.32169e+08 3.32526e+08 1 0
310 1 1 3.39956e+08 3.40209e+08 3.41228e+08 3.41543e+08 1 1
311 1 0 3.82418e+08 3.82671e+08 3.8369e+08 3.8372e+08 0 0
312 1 0 4.071e+08 4.07347e+08 4.08366e+08 4.08373e+08 1 0
313 1 0 4.17312e+08 4.1756e+08 4.18578e+08 4.20012e+08 1 0
314 1 0 4.28352e+08 4.28615e+08 4.29634e+08 4.37058e+08 1 0
315 2 1 4.44325e+08 4.44578e+08 4.45597e+08 4.46191e+08 0 0
316 1 0 4.53616e+08 4.5388e+08 4.54899e+08 4.54991e+08 0 0
317 2 1 4.6298e+08 4.63239e+08 4.64257e+08 4.64543e+08 0 0
318 1 0 4.76523e+08 4.76771e+08 4.7779e+08 4.78055e+08 0 0
319 2 0 4.85947e+08 4.86197e+08 4.87216e+08 4.87225e+08 0 1
320 2 0 4.98431e+08 4.98692e+08 4.9971e+08 4.99846e+08 0 1
321 1 1 5.02684e+08 5.02941e+08 5.0396e+08 5.03989e+08 0 1
322 2 1 5.27266e+08 5.27527e+08 5.28546e+08 5.2862e+08 0 0
323 2 0 5.35779e+08 5.36035e+08 5.37054e+08 5.37065e+08 1 1
324 2 1 5.41814e+08 5.42062e+08 5.43081e+08 5.43101e+08 0 0
325 2 0 5.50351e+08 5.50599e+08 5.51618e+08 5.51922e+08 1 1
326 2 0 5.54698e+08 5.54951e+08 5.5597e+08 5.56276e+08 0 1
327 2 0 5.9076e+08 5.91013e+08 5.92031e+08 5.92117e+08 0 1
328 2 0 6.04927e+08 6.05182e+08 6.06201e+08 6.06307e+08 0 1
329 2 0 6.24329e+08 6.24588e+08 6.25606e+08 6.25643e+08 0 1
330 1 0 6.5197e+08 6.52226e+08 6.53244e+08 6.54227e+08 0 0
331 1 1 6.61549e+08 6.61804e+08 6.62823e+08 6.7411e+08 1 1
332 2 0 6.96214e+08 6.9647e+08 6.97489e+08 6.9759e+08 0 1
333 2 0 7.15208e+08 7.15455e+08 7.16474e+08 7.16485e+08 0 1
334 1 1 7.31485e+08 7.31748e+08 7.32767e+08 7.38703e+08 0 1
335 1 1 7.42148e+08 7.42411e+08 7.4343e+08 7.43489e+08 0 1
336 2 0 7.70656e+08 7.70908e+08 7.71927e+08 7.72e+08 0 1
337 1 0 7.86627e+08 7.86879e+08 7.87898e+08 7.88689e+08 0 0
338 1 0 8.00159e+08 8.00418e+08 8.01437e+08 8.01448e+08 1 0
339 1 1 8.17101e+08 8.17351e+08 8.18369e+08 8.24926e+08 1 1
340 1 0 8.54528e+08 8.54791e+08 8.5581e+08 8.56217e+08 0 0
341 1 0 8.63724e+08 8.63976e+08 8.64995e+08 8.65092e+08 1 0
342 1 0 8.7585e+08 8.76096e+08 8.77115e+08 8.77272e+08 1 0
343 1 1 8.84758e+08 8.85012e+08 8.86031e+08 8.86159e+08 1 1
344 2 0 8.98161e+08 8.98418e+08 8.99437e+08 8.99473e+08 0 1
345 2 0 9.06427e+08 9.06681e+08 9.077e+08 9.07723e+08 0 1
346 2 1 9.14129e+08 9.14381e+08 9.154e+08 9.15598e+08 0 0
347 2 1 9.2264e+08 9.22905e+08 9.23924e+08 9.23994e+08 1 0
348 2 0 9.31457e+08 9.31705e+08 9.32724e+08 9.38487e+08 1 1
349 1 0 9.43131e+08 9.43379e+08 9.44398e+08 9.45054e+08 0 0
350 1 1 9.52442e+08 9.52703e+08 9.53722e+08 9.62775e+08 1 1
351 2 0 9.65413e+08 9.65663e+08 9.66682e+08 9.66705e+08 0 1
352 1 1 9.71015e+08 9.71276e+08 9.72295e+08 9.82985e+08 0 1
353 2 0 9.86338e+08 9.86592e+08 9.87611e+08 9.87806e+08 0 1
354 2 1 9.95358e+08 9.95615e+08 9.96634e+08 9.96862e+08 0 0
355 2 0 1.00425e+09 1.00449e+09 1.00551e+09 1.00552e+09 1 1
356 1 0 1.01188e+09 1.01212e+09 1.01314e+09 1.01317e+09 0 0
357 1 0 1.02056e+09 1.02082e+09 1.02184e+09 1.02193e+09 1 0
358 1 0 1.02926e+09 1.02952e+09 1.03054e+09 1.03324e+09 1 0
359 1 0 1.04222e+09 1.04248e+09 1.0435e+09 1.05611e+09 1 0
360 2 0 1.06322e+09 1.06348e+09 1.0645e+09 1.06465e+09 0 1
361 1 1 1.06724e+09 1.0675e+09 1.06852e+09 1.06855e+09 0 1
362 2 1 1.08174e+09 1.08198e+09 1.083e+09 1.08305e+09 0 0
363 2 1 1.0909e+09 1.09116e+09 1.09218e+09 1.12078e+09 1 0
364 2 0 1.12796e+09 1.12822e+09 1.12924e+09 1.12929e+09 1 1
365 1 1 1.13369e+09 1.13394e+09 1.13496e+09 1.13529e+09 0 1
366 1 0 1.14903e+09 1.14928e+09 1.1503e+09 1.15033e+09 0 0
367 1 0 1.15762e+09 1.15787e+09 1.15889e+09 1.15922e+09 1 0
368 1 0 1.16652e+09 1.16678e+09 1.1678e+09 1.18629e+09 1 0
369 1 1 1.19372e+09 1.19397e+09 1.19499e+09 1.23642e+09 1 1
370 1 0 1.24258e+09 1.24283e+09 1.24385e+09 1.24403e+09 0 0
371 1 1 1.25293e+09 1.25318e+09 1.2542e+09 1.28013e+09 1 1
372 2 0 1.2929e+09 1.29315e+09 1.29417e+09 1.2942e+09 0 1
373 1 1 1.31011e+09 1.31036e+09 1.31138e+09 1.31148e+09 0 1
374 1 1 1.31721e+09 1.31745e+09 1.31847e+09 1.32415e+09 0 1
375 2 0 1.33472e+09 1.33497e+09 1.33599e+09 1.33603e+09 0 1
376 1 0 1.34586e+09 1.34613e+09 1.34715e+09 1.35247e+09 0 0
377 1 1 1.35992e+09 1.36018e+09 1.3612e+09 1.36168e+09 1 1
378 1 0 1.3679e+09 1.36815e+09 1.36916e+09 1.36952e+09 0 0
379 1 0 1.37707e+09 1.37732e+09 1.37834e+09 1.37912e+09 1 0
380 1 0 1.39219e+09 1.39246e+09 1.39347e+09 1.39601e+09 1 0
381 1 0 1.40352e+09 1.40377e+09 1.40479e+09 1.40603e+09 1 0
382 1 1 1.41324e+09 1.41349e+09 1.41451e+09 1.42815e+09 0 1
383 2 1 1.4371e+09 1.43737e+09 1.43839e+09 1.43847e+09 0 0
384 2 1 1.44593e+09 1.44618e+09 1.4472e+09 1.46022e+09 1 0
385 2 0 1.46833e+09 1.46858e+09 1.4696e+09 1.4698e+09 1 1
386 1 1 1.47253e+09 1.47279e+09 1.47381e+09 1.47385e+09 0 1
387 1 1 1.48244e+09 1.4827e+09 1.48371e+09 1.49196e+09 0 1
388 2 0 1.49527e+09 1.49552e+09 1.49654e+09 1.49656e+09 0 1
389 1 1 1.50678e+09 1.50702e+09 1.50804e+09 1.52928e+09 0 1
390 1 0 1.53329e+09 1.53356e+09 1.53458e+09 1.53484e+09 0 0
391 1 0 1.54326e+09 1.54351e+09 1.54453e+09 1.57144e+09 1 0
392 1 0 1.57873e+09 1.57899e+09 1.58001e+09 1.58034e+09 1 0
393 1 0 1.58738e+09 1.58764e+09 1.58866e+09 1.5888e+09 1 0
394 2 0 1.59606e+09 1.59631e+09 1.59733e+09 1.59736e+09 0 1
395 1 1 1.60388e+09 1.60413e+09 1.60515e+09 1.60516e+09 0 1
396 2 1 1.61655e+09 1.6168e+09 1.61782e+09 1.6179e+09 0 0
397 2 0 1.62521e+09 1.62546e+09 1.62648e+09 1.6265e+09 1 1
398 1 0 1.63568e+09 1.63593e+09 1.63695e+09 1.63704e+09 0 0
399 1 1 1.6444e+09 1.64466e+09 1.64568e+09 1.65289e+09 1 1
400 1 0 1.65548e+09 1.65575e+09 1.65677e+09 1.65678e+09 0 0
401 1 1 1.66418e+09 1.66445e+09 1.66547e+09 1.67274e+09 1 1
402 2 1 1.67575e+09 1.67601e+09 1.67703e+09 1.6771e+09 0 0
403 2 0 1.68438e+09 1.68464e+09 1.68566e+09 1.68569e+09 1 1
404 1 0 1.68848e+09 1.68874e+09 1.68976e+09 1.82022e+09 0 0
405 1 0 1.84271e+09 1.84296e+09 1.84398e+09 1.84812e+09 1 0
406 1 1 1.86451e+09 1.86476e+09 1.86578e+09 1.87601e+09 1 1
407 2 0 1.87988e+09 1.88013e+09 1.88114e+09 1.88615e+09 0 1
408 1 0 1.88915e+09 1.88941e+09 1.89043e+09 1.92317e+09 0 0
409 1 1 1.93025e+09 1.9305e+09 1.93152e+09 1.94968e+09 1 1
410 2 0 1.96054e+09 1.96079e+09 1.96181e+09 1.9624e+09 0 1
411 2 0 1.96508e+09 1.96534e+09 1.96636e+09 1.98665e+09 0 1
412 1 0 1.99969e+09 1.99995e+09 2.00097e+09 2.0764e+09 0 0
413 1 0 2.08464e+09 2.0849e+09 2.08592e+09 2.12731e+09 1 0
414 1 0 2.136e+09 2.13626e+09 2.13728e+09 2.1871e+09 1 0
415 1 0 2.19438e+09 2.19464e+09 2.19566e+09 2.26223e+09 1 0
416 2 0 2.27021e+09 2.27046e+09 2.27148e+09 2.29986e+09 0 1
417 1 0 2.30496e+09 2.30521e+09 2.30623e+09 2.30697e+09 0 0
418 1 0 2.31522e+09 2.31548e+09 2.3165e+09 2.31779e+09 1 0
419 1 0 2.3251e+09 2.32537e+09 2.32639e+09 2.34357e+09 1 0
420 1 0 2.35094e+09 2.3512e+09 2.35222e+09 2.35505e+09 1 0
421 2 1 2.36298e+09 2.36324e+09 2.36425e+09 2.36429e+09 0 0
422 2 0 2.37264e+09 2.37289e+09 2.37391e+09 2.3896e+09 0 1
423 2 0 2.39265e+09 2.39289e+09 2.39391e+09 2.407e+09 0 1
424 1 0 2.4178e+09 2.41804e+09 2.41906e+09 2.42817e+09 0 0
425 1 0 2.43528e+09 2.43554e+09 2.43655e+09 2.44842e+09 1 0
426 1 0 2.45656e+09 2.4568e+09 2.45782e+09 2.47325e+09 1 0
427 1 0 2.48109e+09 2.48134e+09 2.48236e+09 2.48431e+09 1 0
428 2 0 2.4927e+09 2.49296e+09 2.49398e+09 2.49597e+09 0 1
429 2 0 2.50083e+09 2.50108e+09 2.5021e+09 2.5452e+09 0 1
430 1 0 2.55078e+09 2.55103e+09 2.55205e+09 2.56333e+09 0 0
431 1 0 2.57043e+09 2.57067e+09 2.57169e+09 2.58088e+09 1 0
432 1 0 2.59053e+09 2.59079e+09 2.59181e+09 2.59664e+09 1 0
433 1 0 2.60628e+09 2.60653e+09 2.60755e+09 2.61092e+09 1 0
434 2 0 2.61809e+09 2.61836e+09 2.61938e+09 2.63807e+09 0 1
435 2 0 2.64217e+09 2.64243e+09 2.64345e+09 2.66582e+09 0 1
436 2 0 2.66869e+09 2.66893e+09 2.66995e+09 2.67769e+09 0 1
437 2 1 2.68047e+09 2.68072e+09 2.68174e+09 2.68825e+09 0 0
438 2 1 2.69571e+09 2.69596e+09 2.69698e+09 2.70622e+09 1 0
439 2 0 2.71358e+09 2.71382e+09 2.71484e+09 2.71498e+09 1 1
440 2 0 2.7339e+09 2.73416e+09 2.73518e+09 2.73787e+09 0 1
441 2 0 2.7444e+09 2.74466e+09 2.74568e+09 2.74875e+09 0 1
442 1 1 2.75157e+09 2.75182e+09 2.75284e+09 2.76197e+09 0 1
443 1 0 2.76479e+09 2.76504e+09 2.76606e+09 2.76679e+09 0 0
444 1 1 2.77462e+09 2.77487e+09 2.77589e+09 2.77618e+09 1 1
445 2 0 2.7797e+09 2.77995e+09 2.78096e+09 2.78167e+09 0 1
446 2 0 2.78511e+09 2.78536e+09 2.78638e+09 2.78639e+09 0 1
447 1 0 2.79349e+09 2.79374e+09 2.79476e+09 2.79493e+09 0 0
448 1 0 2.80216e+09 2.80241e+09 2.80343e+09 2.84015e+09 1 0
449 1 0 2.84744e+09 2.84769e+09 2.84871e+09 2.86322e+09 1 0
450 1 0 2.87171e+09 2.87196e+09 2.87298e+09 2.90706e+09 1 0
451 2 1 2.91604e+09 2.9163e+09 2.91731e+09 2.91734e+09 0 0
452 1 1 2.9246e+09 2.92485e+09 2.92587e+09 2.92591e+09 0 1
453 1 0 2.92982e+09 2.93007e+09 2.93109e+09 2.93111e+09 0 0
454 1 0 2.95149e+09 2.95175e+09 2.95277e+09 2.95784e+09 1 0
455 1 0 2.96492e+09 2.96518e+09 2.9662e+09 3.00779e+09 1 0
456 1 0 3.01489e+09 3.01515e+09 3.01617e+09 3.05746e+09 1 0
457 2 0 3.06501e+09 3.06526e+09 3.06628e+09 3.08723e+09 0 1
458 1 0 3.09211e+09 3.09237e+09 3.09338e+09 3.25158e+09 0 0
459 1 0 3.25902e+09 3.25927e+09 3.26029e+09 3.36004e+09 1 0
460 1 0 3.3693e+09 3.36955e+09 3.37057e+09 3.3706e+09 1 0
461 1 0 3.39115e+09 3.3914e+09 3.39242e+09 3.39638e+09 1 0
462 2 0 3.40658e+09 3.40683e+09 3.40785e+09 3.43261e+09 0 1
463 1 0 3.43738e+09 3.43763e+09 3.43865e+09 3.45658e+09 0 0
464 1 0 3.46381e+09 3.46406e+09 3.46508e+09 3.47096e+09 1 0
465 1 0 3.4783e+09 3.47855e+09 3.47957e+09 3.47962e+09 1 0
466 1 0 3.49154e+09 3.49179e+09 3.49281e+09 3.49292e+09 1 0
467 1 0 3.50018e+09 3.50044e+09 3.50145e+09 3.51937e+09 0 0
468 1 0 3.53027e+09 3.53052e+09 3.53154e+09 3.55517e+09 0 0
469 1 0 3.56759e+09 3.56785e+09 3.56887e+09 3.69246e+09 0 0
470 1 0 3.69968e+09 3.69993e+09 3.70095e+09 3.72745e+09 0 0
471 2 0 3.73863e+09 3.73889e+09 3.73991e+09 3.74018e+09 0 1
472 2 0 3.74371e+09 3.74396e+09 3.74497e+09 3.75273e+09 0 1
473 1 0 3.76099e+09 3.76124e+09 3.76226e+09 3.77146e+09 0 0
474 1 0 3.78378e+09 3.78404e+09 3.78506e+09 3.78507e+09 1 0
475 1 0 3.79241e+09 3.79267e+09 3.79369e+09 3.80968e+09 1 0
476 1 0 3.81719e+09 3.81745e+09 3.81847e+09 3.81922e+09 1 0
477 1 0 3.82803e+09 3.82829e+09 3.8293e+09 3.83147e+09 0 0
478 2 0 3.83894e+09 3.83919e+09 3.84021e+09 3.84024e+09 0 1
479 2 0 3.8518e+09 3.85206e+09 3.85308e+09 3.85321e+09 0 1
480 2 0 3.85616e+09 3.85642e+09 3.85744e+09 3.88095e+09 0 1
481 2 1 3.89133e+09 3.89157e+09 3.89259e+09 3.9803e+09 0 0
