trial trialType response stillTime stimOnset stimOffset respTime correctionTrial correct
001 1 1 2.35571e+07 2.38532e+07 2.48721e+07 2.48905e+07 0 1
002 2 1 1.00276e+08 1.0054e+08 1.01559e+08 1.01574e+08 0 0
003 2 1 1.18157e+08 1.1845e+08 1.19468e+08 1.19516e+08 1 0
004 2 1 1.26712e+08 1.26963e+08 1.27982e+08 1.28318e+08 1 0
005 2 1 1.42153e+08 1.42418e+08 1.43437e+08 1.4781e+08 1 0
006 1 0 1.66243e+08 1.66497e+08 1.67516e+08 1.67555e+08 0 0
007 1 0 1.74691e+08 1.74959e+08 1.75978e+08 1.76884e+08 0 0
008 2 1 1.84354e+08 1.84608e+08 1.85627e+08 1.85648e+08 0 0
009 1 0 1.93198e+08 1.93454e+08 1.94473e+08 1.94488e+08 0 0
010 1 0 2.1131e+08 2.11564e+08 2.12583e+08 2.12789e+08 0 0
011 1 0 2.22856e+08 2.2311e+08 2.24129e+08 2.25146e+08 0 0
012 1 0 2.36303e+08 2.36559e+08 2.37578e+08 2.4871e+08 0 0
013 2 0 2.56336e+08 2.56589e+08 2.57608e+08 2.57644e+08 0 1
014 1 0 2.68978e+08 2.69247e+08 2.70266e+08 2.82878e+08 0 0
015 1 0 3.1483e+08 3.15095e+08 3.16114e+08 3.16129e+08 1 0
016 1 1 3.25596e+08 3.25861e+08 3.2688e+08 3.28666e+08 1 1
017 1 0 3.33413e+08 3.3369e+08 3.34709e+08 3.36772e+08 0 0
018 1 0 3.44035e+08 3.44303e+08 3.45322e+08 3.4533e+08 1 0
019 1 1 3.60525e+08 3.60789e+08 3.61808e+08 3.6199e+08 1 1
020 2 0 3.68736e+08 3.68989e+08 3.70008e+08 3.70056e+08 0 1
021 1 1 3.72899e+08 3.7318e+08 3.74199e+08 3.77596e+08 0 1
022 1 0 3.80303e+08 3.80567e+08 3.81586e+08 3.82676e+08 0 0
023 1 1 3.90567e+08 3.90822e+08 3.91841e+08 3.9201e+08 1 1
024 2 0 4.08301e+08 4.08568e+08 4.09587e+08 4.09611e+08 0 1
025 2 0 4.12201e+08 4.12466e+08 4.13485e+08 4.1431e+08 0 1
026 2 0 4.17998e+08 4.18266e+08 4.19285e+08 4.20067e+08 0 1
027 2 0 4.22705e+08 4.22959e+08 4.23977e+08 4.24799e+08 0 1
028 2 0 4.27607e+08 4.27868e+08 4.28887e+08 4.30276e+08 0 1
029 1 0 4.33148e+08 4.33405e+08 4.34424e+08 4.35021e+08 0 0
030 1 1 4.65785e+08 4.6604e+08 4.67059e+08 4.67193e+08 1 1
031 1 1 4.7419e+08 4.74455e+08 4.75474e+08 4.75565e+08 0 1
032 1 0 5.08849e+08 5.0911e+08 5.10129e+08 5.10199e+08 0 0
033 1 1 5.17247e+08 5.17513e+08 5.18532e+08 5.18653e+08 1 1
034 2 1 5.272e+08 5.27458e+08 5.28477e+08 5.28515e+08 0 0
035 2 1 5.48466e+08 5.48729e+08 5.49748e+08 5.49763e+08 1 0
036 2 0 5.56929e+08 5.57191e+08 5.5821e+08 5.5991e+08 1 1
037 1 1 5.9902e+08 5.99281e+08 6.003e+08 6.004e+08 0 1
038 1 0 6.03116e+08 6.03377e+08 6.04396e+08 6.04796e+08 0 0
039 1 1 6.20451e+08 6.20703e+08 6.21722e+08 6.2204e+08 1 1
040 2 1 6.37915e+08 6.38177e+08 6.39195e+08 6.396e+08 0 0
041 2 1 6.64278e+08 6.64536e+08 6.65555e+08 6.65586e+08 1 0
042 2 1 6.97231e+08 6.97501e+08 6.9852e+08 6.98608e+08 1 0
043 2 0 7.16242e+08 7.16501e+08 7.1752e+08 7.18221e+08 1 1
044 2 1 7.32971e+08 7.33242e+08 7.34261e+08 7.34275e+08 0 0
045 2 1 7.4813e+08 7.48393e+08 7.49412e+08 7.49499e+08 1 0
046 2 1 7.5678e+08 7.57034e+08 7.58053e+08 7.58394e+08 1 0
047 2 1 7.65652e+08 7.65918e+08 7.66937e+08 7.67016e+08 1 0
048 2 1 7.74194e+08 7.74449e+08 7.75468e+08 7.75508e+08 0 0
049 2 1 8.03737e+08 8.04001e+08 8.0502e+08 8.05197e+08 0 0
050 1 1 8.12651e+08 8.12907e+08 8.13926e+08 8.13969e+08 0 1
051 2 1 8.16587e+08 8.16846e+08 8.17865e+08 8.18039e+08 0 0
052 2 0 8.39328e+08 8.39577e+08 8.40596e+08 8.40616e+08 1 1
053 2 1 8.60499e+08 8.60769e+08 8.61788e+08 8.6207e+08 0 0
054 2 1 8.76548e+08 8.76806e+08 8.77825e+08 8.78075e+08 1 0
055 2 1 9.03041e+08 9.03297e+08 9.04316e+08 9.04399e+08 1 0
056 2 1 9.12342e+08 9.12593e+08 9.13612e+08 9.13684e+08 1 0
057 1 1 9.2091e+08 9.21178e+08 9.22197e+08 9.2239e+08 0 1
058 2 1 9.36506e+08 9.36765e+08 9.37784e+08 9.378e+08 0 0
059 2 1 9.45053e+08 9.45305e+08 9.46323e+08 9.46353e+08 1 0
060 2 1 9.59452e+08 9.59705e+08 9.60724e+08 9.60735e+08 1 0
061 2 1 9.68555e+08 9.68805e+08 9.69824e+08 9.74451e+08 1 0
062 2 1 9.82786e+08 9.8305e+08 9.84069e+08 9.84912e+08 0 0
063 1 1 9.93416e+08 9.93679e+08 9.94698e+08 9.94929e+08 0 1
064 1 0 9.97506e+08 9.97767e+08 9.98786e+08 1.00605e+09 0 0
065 1 0 1.02239e+09 1.02265e+09 1.02367e+09 1.02368e+09 1 0
066 1 1 1.03107e+09 1.03132e+09 1.03234e+09 1.03234e+09 1 1
067 1 0 1.05029e+09 1.05054e+09 1.05156e+09 1.05166e+09 0 0
068 1 0 1.05912e+09 1.05937e+09 1.06039e+09 1.06042e+09 1 0
069 1 0 1.06769e+09 1.06795e+09 1.06897e+09 1.069e+09 1 0
070 1 1 1.07942e+09 1.07969e+09 1.08071e+09 1.08073e+09 1 1
071 2 1 1.09011e+09 1.09036e+09 1.09138e+09 1.09146e+09 0 0
072 2 1 1.09898e+09 1.09925e+09 1.10026e+09 1.10059e+09 1 0
073 2 0 1.10794e+09 1.1082e+09 1.10922e+09 1.10967e+09 1 1
074 2 0 1.11827e+09 1.11853e+09 1.11955e+09 1.11968e+09 0 1
075 2 0 1.12776e+09 1.12801e+09 1.12903e+09 1.12923e+09 0 1
076 1 1 1.15758e+09 1.15784e+09 1.15886e+09 1.15892e+09 0 1
077 2 0 1.16281e+09 1.16307e+09 1.16409e+09 1.16411e+09 0 1
078 1 1 1.16957e+09 1.16983e+09 1.17085e+09 1.17441e+09 0 1
079 2 0 1.22319e+09 1.22346e+09 1.22448e+09 1.22458e+09 0 1
080 1 0 1.23667e+09 1.23693e+09 1.23795e+09 1.23797e+09 0 0
081 1 1 1.24614e+09 1.24639e+09 1.24741e+09 1.24743e+09 1 1
082 1 1 1.25798e+09 1.25824e+09 1.25925e+09 1.25928e+09 0 1
083 1 0 1.26536e+09 1.26562e+09 1.26664e+09 1.26711e+09 0 0
084 1 1 1.28768e+09 1.28794e+09 1.28896e+09 1.28916e+09 1 1
085 1 1 1.30055e+09 1.30081e+09 1.30183e+09 1.30188e+09 0 1
086 2 0 1.30901e+09 1.30928e+09 1.31029e+09 1.3106e+09 0 1
087 1 1 1.32426e+09 1.32451e+09 1.32553e+09 1.32556e+09 0 1
088 2 1 1.33054e+09 1.3308e+09 1.33182e+09 1.33264e+09 0 0
089 2 1 1.34012e+09 1.34039e+09 1.3414e+09 1.34149e+09 1 0
090 2 1 1.35036e+09 1.35062e+09 1.35164e+09 1.35165e+09 1 0
091 2 0 1.35949e+09 1.35976e+09 1.36078e+09 1.36101e+09 1 1
092 2 0 1.36361e+09 1.36387e+09 1.36488e+09 1.37198e+09 0 1
093 1 1 1.37456e+09 1.37482e+09 1.37584e+09 1.3759e+09 0 1
094 2 1 1.37876e+09 1.37901e+09 1.38003e+09 1.38006e+09 0 0
095 2 0 1.38842e+09 1.38868e+09 1.3897e+09 1.3908e+09 1 1
096 1 0 1.39784e+09 1.3981e+09 1.39912e+09 1.39921e+09 0 0
097 1 1 1.43502e+09 1.43529e+09 1.43631e+09 1.43632e+09 1 1
098 2 1 1.47469e+09 1.47495e+09 1.47597e+09 1.47659e+09 0 0
099 2 1 1.48795e+09 1.4882e+09 1.48922e+09 1.48925e+09 1 0
100 2 1 1.49673e+09 1.49698e+09 1.498e+09 1.49801e+09 1 0
101 2 0 1.51022e+09 1.51048e+09 1.5115e+09 1.51274e+09 1 1
102 2 1 1.52957e+09 1.52983e+09 1.53085e+09 1.53087e+09 0 0
103 2 1 1.53828e+09 1.53854e+09 1.53956e+09 1.53957e+09 1 0
104 2 1 1.59717e+09 1.59743e+09 1.59845e+09 1.59902e+09 1 0
105 2 1 1.61549e+09 1.61575e+09 1.61677e+09 1.61679e+09 1 0
106 2 1 1.63691e+09 1.63716e+09 1.63818e+09 1.6382e+09 0 0
107 1 1 1.65407e+09 1.65433e+09 1.65535e+09 1.65548e+09 0 1
108 2 1 1.65837e+09 1.65863e+09 1.65965e+09 1.66261e+09 0 0
109 2 0 1.68805e+09 1.68831e+09 1.68933e+09 1.68935e+09 1 1
110 1 1 1.70625e+09 1.70651e+09 1.70753e+09 1.70801e+09 0 1
111 1 0 1.72929e+09 1.72955e+09 1.73056e+09 1.73058e+09 0 0
112 1 0 1.74158e+09 1.74183e+09 1.74284e+09 1.74288e+09 1 0
113 1 0 1.75247e+09 1.75273e+09 1.75374e+09 1.75515e+09 1 0
114 1 1 1.76806e+09 1.76831e+09 1.76933e+09 1.76934e+09 1 1
115 1 0 1.7753e+09 1.77555e+09 1.77657e+09 1.78137e+09 0 0
116 1 0 1.82648e+09 1.82673e+09 1.82775e+09 1.828e+09 1 0
117 1 1 1.83534e+09 1.83561e+09 1.83663e+09 1.8374e+09 1 1
118 2 1 1.86254e+09 1.86281e+09 1.86383e+09 1.86391e+09 0 0
119 2 0 1.87774e+09 1.87799e+09 1.87901e+09 1.87953e+09 1 1
120 2 0 1.89543e+09 1.89568e+09 1.8967e+09 1.89702e+09 0 1
121 1 1 1.90359e+09 1.90384e+09 1.90486e+09 1.90509e+09 0 1
122 2 1 1.91475e+09 1.91501e+09 1.91603e+09 1.91604e+09 0 0
123 2 0 1.92317e+09 1.92343e+09 1.92445e+09 1.92448e+09 1 1
124 1 1 1.93271e+09 1.93297e+09 1.93399e+09 1.93432e+09 0 1
125 2 1 1.96236e+09 1.96262e+09 1.96364e+09 1.96365e+09 0 0
126 2 1 1.97116e+09 1.97142e+09 1.97244e+09 1.9816e+09 1 0
127 2 1 1.99231e+09 1.99257e+09 1.99359e+09 1.99438e+09 1 0
128 2 1 2.00888e+09 2.00914e+09 2.01016e+09 2.01379e+09 1 0
129 1 1 2.02089e+09 2.02115e+09 2.02217e+09 2.02219e+09 0 1
130 2 0 2.02981e+09 2.03007e+09 2.03109e+09 2.033e+09 0 1
131 1 1 2.04252e+09 2.04278e+09 2.0438e+09 2.04419e+09 0 1
132 1 1 2.06287e+09 2.06313e+09 2.06415e+09 2.06435e+09 0 1
133 1 1 2.07856e+09 2.07882e+09 2.07984e+09 2.08036e+09 0 1
134 1 0 2.12873e+09 2.129e+09 2.13002e+09 2.13005e+09 0 0
135 1 1 2.13737e+09 2.13763e+09 2.13865e+09 2.13867e+09 1 1
136 1 1 2.14414e+09 2.14441e+09 2.14543e+09 2.14764e+09 0 1
137 2 0 2.15035e+09 2.15061e+09 2.15163e+09 2.15197e+09 0 1
138 1 0 2.155e+09 2.15526e+09 2.15627e+09 2.15652e+09 0 0
139 1 1 2.18387e+09 2.18413e+09 2.18515e+09 2.1852e+09 1 1
140 2 1 2.18995e+09 2.19022e+09 2.19124e+09 2.19125e+09 0 0
141 2 1 2.19995e+09 2.2002e+09 2.20122e+09 2.20124e+09 1 0
142 2 1 2.2086e+09 2.20886e+09 2.20988e+09 2.21021e+09 1 0
143 2 1 2.22245e+09 2.22272e+09 2.22374e+09 2.22378e+09 1 0
144 2 0 2.23163e+09 2.2319e+09 2.23292e+09 2.23296e+09 0 1
145 2 1 2.2549e+09 2.25516e+09 2.25618e+09 2.25619e+09 0 0
146 2 1 2.26415e+09 2.2644e+09 2.26542e+09 2.26553e+09 1 0
147 2 1 2.27271e+09 2.27298e+09 2.274e+09 2.27405e+09 1 0
148 2 1 2.28126e+09 2.28152e+09 2.28254e+09 2.28264e+09 1 0
149 2 1 2.29891e+09 2.29918e+09 2.30019e+09 2.30034e+09 0 0
150 2 1 2.30744e+09 2.3077e+09 2.30872e+09 2.30937e+09 0 0
151 1 1 2.32006e+09 2.32032e+09 2.32134e+09 2.32136e+09 0 1
152 1 0 2.32438e+09 2.32464e+09 2.32566e+09 2.33156e+09 0 0
153 1 1 2.33952e+09 2.33977e+09 2.34079e+09 2.34124e+09 1 1
154 2 1 2.35805e+09 2.35829e+09 2.35931e+09 2.35933e+09 0 0
155 2 1 2.36682e+09 2.36708e+09 2.3681e+09 2.36813e+09 1 0
156 2 1 2.3754e+09 2.37566e+09 2.37667e+09 2.37668e+09 1 0
157 2 1 2.38401e+09 2.38428e+09 2.3853e+09 2.38547e+09 1 0
158 2 0 2.40588e+09 2.40615e+09 2.40717e+09 2.4072e+09 0 1
159 2 0 2.43403e+09 2.43428e+09 2.4353e+09 2.43562e+09 0 1
160 1 1 2.44018e+09 2.44044e+09 2.44146e+09 2.44149e+09 0 1
161 2 0 2.4441e+09 2.44437e+09 2.44539e+09 2.44604e+09 0 1
162 1 1 2.45856e+09 2.45883e+09 2.45984e+09 2.45992e+09 0 1
163 1 1 2.46842e+09 2.46868e+09 2.4697e+09 2.46971e+09 0 1
164 2 0 2.47246e+09 2.47273e+09 2.47375e+09 2.47376e+09 0 1
165 2 0 2.47649e+09 2.47674e+09 2.47776e+09 2.47778e+09 0 1
166 1 0 2.48035e+09 2.48061e+09 2.48163e+09 2.48166e+09 0 0
167 1 1 2.48895e+09 2.48921e+09 2.49022e+09 2.49029e+09 1 1
168 1 1 2.49368e+09 2.49393e+09 2.49495e+09 2.49509e+09 0 1
169 2 1 2.51777e+09 2.51802e+09 2.51904e+09 2.51909e+09 0 0
170 2 0 2.52919e+09 2.52944e+09 2.53046e+09 2.53056e+09 1 1
171 2 1 2.54443e+09 2.54469e+09 2.54571e+09 2.54595e+09 0 0
172 2 0 2.55338e+09 2.55364e+09 2.55466e+09 2.55473e+09 1 1
173 1 1 2.56821e+09 2.56848e+09 2.56949e+09 2.56951e+09 0 1
174 2 0 2.57268e+09 2.57294e+09 2.57396e+09 2.57645e+09 0 1
175 1 1 2.58841e+09 2.58866e+09 2.58968e+09 2.58969e+09 0 1
176 1 1 2.60383e+09 2.60409e+09 2.60511e+09 2.60549e+09 0 1
177 1 1 2.61342e+09 2.61368e+09 2.6147e+09 2.61472e+09 0 1
178 2 0 2.6184e+09 2.61865e+09 2.61967e+09 2.62139e+09 0 1
179 1 1 2.62515e+09 2.62541e+09 2.62642e+09 2.62649e+09 0 1
180 2 0 2.62941e+09 2.62968e+09 2.6307e+09 2.63088e+09 0 1
181 2 1 2.64492e+09 2.64518e+09 2.6462e+09 2.64622e+09 0 0
182 2 1 2.65374e+09 2.654e+09 2.65502e+09 2.65511e+09 1 0
183 2 1 2.66318e+09 2.66345e+09 2.66447e+09 2.66448e+09 1 0
184 2 1 2.67234e+09 2.67259e+09 2.67361e+09 2.67398e+09 1 0
185 1 1 2.68503e+09 2.68529e+09 2.68631e+09 2.68632e+09 0 1
186 2 1 2.69157e+09 2.69184e+09 2.69286e+09 2.69293e+09 0 0
187 2 1 2.70154e+09 2.7018e+09 2.70282e+09 2.70292e+09 1 0
188 2 0 2.71033e+09 2.71058e+09 2.7116e+09 2.71162e+09 1 1
189 2 1 2.72015e+09 2.7204e+09 2.72142e+09 2.72144e+09 0 0
190 2 1 2.72891e+09 2.72917e+09 2.73019e+09 2.73052e+09 1 0
191 2 0 2.73769e+09 2.73795e+09 2.73897e+09 2.73948e+09 1 1
192 1 1 2.74243e+09 2.74269e+09 2.74371e+09 2.74442e+09 0 1
193 1 1 2.75393e+09 2.75421e+09 2.75523e+09 2.75524e+09 0 1
194 2 0 2.76383e+09 2.76409e+09 2.76511e+09 2.76513e+09 0 1
195 1 1 2.77643e+09 2.77668e+09 2.77769e+09 2.77782e+09 0 1
196 2 0 2.78944e+09 2.7897e+09 2.79072e+09 2.79075e+09 0 1
197 1 1 2.79669e+09 2.79695e+09 2.79797e+09 2.79808e+09 0 1
198 1 1 2.81647e+09 2.81672e+09 2.81773e+09 2.81776e+09 0 1
199 2 1 2.83202e+09 2.83229e+09 2.83331e+09 2.83339e+09 0 0
200 2 0 2.84059e+09 2.84084e+09 2.84185e+09 2.84393e+09 1 1
201 2 1 2.84814e+09 2.8484e+09 2.84942e+09 2.84949e+09 0 0
202 2 1 2.86187e+09 2.86212e+09 2.86314e+09 2.86344e+09 1 0
203 2 1 2.87078e+09 2.87104e+09 2.87206e+09 2.87226e+09 1 0
204 2 1 2.9176e+09 2.91786e+09 2.91887e+09 2.91888e+09 1 0
205 1 1 2.92617e+09 2.92643e+09 2.92745e+09 2.92748e+09 0 1
206 1 0 2.93647e+09 2.93673e+09 2.93774e+09 2.93803e+09 0 0
207 1 0 2.94726e+09 2.94752e+09 2.94853e+09 2.94855e+09 1 0
208 1 0 2.95561e+09 2.95587e+09 2.95689e+09 2.95693e+09 1 0
209 1 1 2.96561e+09 2.96588e+09 2.9669e+09 2.96692e+09 1 1
210 1 0 2.97473e+09 2.97498e+09 2.976e+09 2.97617e+09 0 0
211 1 1 2.98325e+09 2.98351e+09 2.98453e+09 2.98462e+09 1 1
212 2 0 2.98801e+09 2.98827e+09 2.98929e+09 2.98935e+09 0 1
213 2 1 2.9926e+09 2.99286e+09 2.99387e+09 2.99391e+09 0 0
214 2 1 3.00345e+09 3.0037e+09 3.00472e+09 3.00473e+09 1 0
215 2 1 3.01244e+09 3.01269e+09 3.01371e+09 3.01376e+09 1 0
216 2 0 3.02104e+09 3.0213e+09 3.02232e+09 3.02233e+09 1 1
217 1 1 3.02754e+09 3.02781e+09 3.02883e+09 3.02923e+09 0 1
218 1 1 3.03378e+09 3.03403e+09 3.03505e+09 3.03509e+09 0 1
219 2 1 3.04298e+09 3.04324e+09 3.04426e+09 3.04443e+09 0 0
220 2 1 3.08323e+09 3.08349e+09 3.08451e+09 3.08456e+09 1 0
221 2 0 3.09416e+09 3.09441e+09 3.09543e+09 3.09547e+09 1 1
222 1 0 3.1025e+09 3.10277e+09 3.10379e+09 3.1045e+09 0 0
223 1 1 3.12057e+09 3.12082e+09 3.12184e+09 3.1219e+09 1 1
224 1 1 3.13312e+09 3.13338e+09 3.13439e+09 3.13441e+09 0 1
225 2 1 3.14486e+09 3.14512e+09 3.14614e+09 3.14615e+09 0 0
226 2 1 3.17263e+09 3.17287e+09 3.17389e+09 3.17391e+09 1 0
227 2 1 3.18289e+09 3.18314e+09 3.18416e+09 3.18519e+09 1 0
228 2 1 3.19255e+09 3.19281e+09 3.19383e+09 3.19445e+09 1 0
229 2 0 3.20214e+09 3.20239e+09 3.20341e+09 3.20448e+09 0 1
230 2 1 3.21306e+09 3.2133e+09 3.21432e+09 3.2144e+09 0 0
231 2 0 3.2218e+09 3.22206e+09 3.22308e+09 3.22314e+09 1 1
232 1 1 3.23702e+09 3.23727e+09 3.23829e+09 3.2383e+09 0 1
233 2 1 3.24491e+09 3.24517e+09 3.24619e+09 3.24623e+09 0 0
234 2 0 3.25374e+09 3.25399e+09 3.25501e+09 3.25501e+09 1 1
235 1 1 3.26674e+09 3.267e+09 3.26802e+09 3.26803e+09 0 1
236 2 1 3.27995e+09 3.2802e+09 3.28122e+09 3.28124e+09 0 0
237 2 1 3.304e+09 3.30426e+09 3.30528e+09 3.30539e+09 1 0
238 2 1 3.31707e+09 3.31734e+09 3.31836e+09 3.31837e+09 1 0
239 2 0 3.32787e+09 3.32813e+09 3.32915e+09 3.33219e+09 1 1
240 2 0 3.34142e+09 3.34168e+09 3.3427e+09 3.34326e+09 0 1
241 2 0 3.35504e+09 3.3553e+09 3.35632e+09 3.35776e+09 0 1
242 2 0 3.3678e+09 3.36806e+09 3.36908e+09 3.37018e+09 0 1
243 1 1 3.3816e+09 3.38185e+09 3.38287e+09 3.38288e+09 0 1
244 2 0 3.38967e+09 3.38993e+09 3.39095e+09 3.39097e+09 0 1
245 2 0 3.3992e+09 3.39945e+09 3.40047e+09 3.40049e+09 0 1
246 1 1 3.40313e+09 3.40339e+09 3.4044e+09 3.4045e+09 0 1
247 1 1 3.41341e+09 3.41367e+09 3.41469e+09 3.41472e+09 0 1
248 2 0 3.42678e+09 3.42705e+09 3.42807e+09 3.42812e+09 0 1
249 2 1 3.43087e+09 3.43113e+09 3.43215e+09 3.43217e+09 0 0
250 2 1 3.44711e+09 3.44737e+09 3.44839e+09 3.44984e+09 1 0
251 2 1 3.46747e+09 3.46772e+09 3.46874e+09 3.46951e+09 1 0
252 2 1 3.47734e+09 3.4776e+09 3.47861e+09 3.48396e+09 1 0
253 2 1 3.49299e+09 3.49323e+09 3.49425e+09 3.49511e+09 0 0
254 2 0 3.50869e+09 3.50895e+09 3.50997e+09 3.51038e+09 0 1
255 1 0 3.51482e+09 3.51508e+09 3.5161e+09 3.51786e+09 0 0
256 1 1 3.54153e+09 3.54179e+09 3.54281e+09 3.54292e+09 1 1
257 2 1 3.54793e+09 3.54819e+09 3.54921e+09 3.55012e+09 0 0
258 2 0 3.56546e+09 3.56572e+09 3.56674e+09 3.56676e+09 1 1
259 2 0 3.57114e+09 3.57139e+09 3.57241e+09 3.57248e+09 0 1
260 1 1 3.57682e+09 3.57708e+09 3.5781e+09 3.57814e+09 0 1
261 1 0 3.58847e+09 3.58873e+09 3.58975e+09 3.59002e+09 0 0
262 1 1 3.601e+09 3.60125e+09 3.60227e+09 3.60228e+09 1 1
263 2 0 3.60814e+09 3.60839e+09 3.60941e+09 3.60997e+09 0 1
264 2 0 3.61475e+09 3.61501e+09 3.61603e+09 3.61614e+09 0 1
265 1 1 3.63751e+09 3.63776e+09 3.63878e+09 3.6388e+09 0 1
266 1 0 3.64483e+09 3.64509e+09 3.64611e+09 3.64706e+09 0 0
267 1 1 3.65922e+09 3.65946e+09 3.66048e+09 3.6609e+09 1 1
268 2 0 3.67381e+09 3.67407e+09 3.67509e+09 3.67511e+09 0 1
269 1 0 3.67806e+09 3.67832e+09 3.67934e+09 3.67968e+09 0 0
270 1 1 3.70148e+09 3.70173e+09 3.70275e+09 3.70276e+09 1 1
271 1 1 3.70848e+09 3.70874e+09 3.70976e+09 3.70979e+09 0 1
272 2 1 3.71232e+09 3.71257e+09 3.71359e+09 3.71387e+09 0 0
273 2 1 3.72557e+09 3.72582e+09 3.72684e+09 3.72685e+09 1 0
274 2 0 3.73415e+09 3.7344e+09 3.73542e+09 3.73544e+09 1 1
275 1 1 3.73814e+09 3.73839e+09 3.73941e+09 3.73943e+09 0 1
276 1 1 3.74208e+09 3.74234e+09 3.74336e+09 3.74359e+09 0 1
277 2 1 3.74624e+09 3.7465e+09 3.74751e+09 3.74768e+09 0 0
278 2 1 3.75613e+09 3.75639e+09 3.75741e+09 3.75746e+09 1 0
279 2 1 3.76501e+09 3.76526e+09 3.76628e+09 3.76628e+09 1 0
280 2 1 3.77379e+09 3.77405e+09 3.77507e+09 3.77508e+09 1 0
281 2 1 3.78861e+09 3.78886e+09 3.78988e+09 3.79458e+09 0 0
282 1 1 3.81031e+09 3.81056e+09 3.81158e+09 3.81171e+09 0 1
283 1 1 3.8241e+09 3.82435e+09 3.82537e+09 3.8254e+09 0 1
284 1 1 3.83454e+09 3.8348e+09 3.83582e+09 3.83583e+09 0 1
285 2 1 3.85081e+09 3.85106e+09 3.85208e+09 3.8521e+09 0 0
286 2 1 3.85951e+09 3.85976e+09 3.86078e+09 3.86081e+09 1 0
287 2 1 3.8681e+09 3.86835e+09 3.86937e+09 3.86945e+09 1 0
288 2 1 3.88659e+09 3.88685e+09 3.88786e+09 3.88793e+09 1 0
289 1 0 3.89642e+09 3.89667e+09 3.89769e+09 3.89772e+09 0 0
290 2 1 3.90878e+09 3.90903e+09 3.91005e+09 3.91005e+09 0 0
291 2 1 3.9228e+09 3.92305e+09 3.92407e+09 3.92408e+09 0 0
292 2 1 3.93129e+09 3.93155e+09 3.93257e+09 3.93268e+09 0 0
293 2 1 3.93982e+09 3.94008e+09 3.9411e+09 3.94331e+09 0 0
294 1 1 3.95089e+09 3.95116e+09 3.95217e+09 3.95218e+09 0 1
295 1 1 3.95992e+09 3.96018e+09 3.9612e+09 3.96121e+09 0 1
296 2 1 3.97202e+09 3.97229e+09 3.97331e+09 3.97343e+09 0 0
297 2 0 3.98075e+09 3.98101e+09 3.98202e+09 3.98204e+09 1 1
298 1 1 3.99545e+09 3.9957e+09 3.99672e+09 3.99682e+09 0 1
299 2 1 4.01394e+09 4.01419e+09 4.01521e+09 4.01523e+09 0 0
300 2 0 4.0262e+09 4.02646e+09 4.02748e+09 4.02762e+09 1 1
301 1 1 4.04452e+09 4.04478e+09 4.0458e+09 4.04581e+09 0 1
302 2 1 4.04854e+09 4.04879e+09 4.04981e+09 4.05197e+09 0 0
303 2 0 4.06071e+09 4.06095e+09 4.06197e+09 4.06198e+09 1 1
304 1 0 4.07165e+09 4.0719e+09 4.07292e+09 4.07309e+09 0 0
305 1 1 4.08052e+09 4.08077e+09 4.08179e+09 4.08182e+09 1 1
306 2 0 4.08856e+09 4.08882e+09 4.08983e+09 4.09005e+09 0 1
307 1 1 4.09292e+09 4.09316e+09 4.09418e+09 4.09574e+09 0 1
308 1 0 4.10883e+09 4.10909e+09 4.11011e+09 4.1102e+09 0 0
309 1 0 4.11725e+09 4.11751e+09 4.11853e+09 4.1187e+09 1 0
310 1 1 4.12841e+09 4.12866e+09 4.12968e+09 4.12971e+09 1 1
311 1 0 4.13372e+09 4.13398e+09 4.135e+09 4.13529e+09 0 0
312 1 1 4.14353e+09 4.14378e+09 4.1448e+09 4.14482e+09 1 1
313 1 1 4.14816e+09 4.14841e+09 4.14943e+09 4.1495e+09 0 1
314 2 1 4.15953e+09 4.15979e+09 4.1608e+09 4.16089e+09 0 0
315 2 1 4.16971e+09 4.16997e+09 4.17099e+09 4.17102e+09 1 0
316 2 1 4.17831e+09 4.17856e+09 4.17958e+09 4.17967e+09 1 0
317 2 1 4.19086e+09 4.19111e+09 4.19213e+09 4.19225e+09 1 0
318 1 1 4.20103e+09 4.20128e+09 4.2023e+09 4.20231e+09 0 1
319 1 0 4.20771e+09 4.20796e+09 4.20898e+09 4.20934e+09 0 0
320 1 1 4.22146e+09 4.22172e+09 4.22274e+09 4.22275e+09 1 1
321 2 1 4.23142e+09 4.23168e+09 4.2327e+09 4.23287e+09 0 0
322 2 0 4.24376e+09 4.24401e+09 4.24503e+09 4.24504e+09 1 1
323 1 1 4.25236e+09 4.2526e+09 4.25362e+09 4.25363e+09 0 1
324 1 1 4.26278e+09 4.26303e+09 4.26405e+09 4.26409e+09 0 1
325 1 0 4.26691e+09 4.26717e+09 4.26819e+09 4.26926e+09 0 0
326 1 0 4.27821e+09 4.27846e+09 4.27948e+09 4.27949e+09 1 0
327 1 1 4.28666e+09 4.28691e+09 4.28793e+09 4.28794e+09 1 1
328 2 1 4.29192e+09 4.29217e+09 4.29319e+09 4.29321e+09 0 0
329 2 1 5.99758e+06 6.242e+06 7.26094e+06 7.27569e+06 1 0
330 2 1 1.56027e+07 1.58613e+07 1.68802e+07 1.6995e+07 1 0
331 2 1 2.4108e+07 2.43674e+07 2.53863e+07 2.53934e+07 1 0
332 2 0 3.44607e+07 3.47134e+07 3.57323e+07 3.57566e+07 0 1
333 2 0 4.20076e+07 4.22661e+07 4.32851e+07 4.94264e+07 0 1
334 2 1 5.37027e+07 5.39557e+07 5.49746e+07 5.8878e+07 0 0
335 2 1 6.79752e+07 6.82367e+07 6.92556e+07 7.09598e+07 1 0
336 2 0 7.81845e+07 7.84366e+07 7.94555e+07 3.43238e+08 1 1
