trial trialType response stillTime stimOnset stimOffset respTime correctionTrial correct
001 3 0 7.0738e+06 7.37398e+06 8.39312e+06 9.00633e+06 0 99
002 1 1 1.18764e+07 1.21478e+07 1.31669e+07 1.3174e+07 0 1
003 1 1 1.59887e+07 1.62563e+07 1.72755e+07 1.73615e+07 0 1
004 1 1 2.72568e+07 2.75216e+07 2.85407e+07 2.85767e+07 0 1
005 5 0 3.92069e+07 3.94493e+07 4.04685e+07 4.1189e+07 0 1
006 2 1 5.2863e+07 5.31224e+07 5.41415e+07 5.89791e+07 0 99
007 3 1 6.49626e+07 6.52269e+07 6.6246e+07 6.63467e+07 0 99
008 1 1 7.08751e+07 7.11364e+07 7.21555e+07 7.58621e+07 0 1
009 2 1 7.85797e+07 7.88562e+07 7.98753e+07 7.994e+07 0 99
010 5 1 8.25375e+07 8.27939e+07 8.38131e+07 8.38293e+07 0 0
011 5 0 9.13459e+07 9.16053e+07 9.26244e+07 9.3407e+07 1 1
012 4 1 9.61823e+07 9.64317e+07 9.74508e+07 1.00576e+08 0 99
013 5 0 1.0334e+08 1.03605e+08 1.04624e+08 1.04639e+08 0 1
014 3 0 1.14103e+08 1.14362e+08 1.15381e+08 1.15388e+08 0 99
015 5 0 1.19033e+08 1.19291e+08 1.2031e+08 1.20319e+08 0 1
016 3 0 1.25667e+08 1.25927e+08 1.26946e+08 1.26959e+08 0 99
017 1 1 1.29666e+08 1.29916e+08 1.30936e+08 1.30977e+08 0 1
018 1 1 1.33595e+08 1.33839e+08 1.34858e+08 1.35003e+08 0 1
019 1 1 1.43569e+08 1.43813e+08 1.44832e+08 1.45144e+08 0 1
020 4 0 1.50835e+08 1.51087e+08 1.52106e+08 1.52141e+08 0 99
021 1 0 1.56968e+08 1.57221e+08 1.5824e+08 1.5826e+08 0 0
022 1 1 1.6562e+08 1.65876e+08 1.66896e+08 1.88859e+08 1 1
023 3 1 2.01427e+08 2.01679e+08 2.02698e+08 2.03087e+08 0 99
024 3 0 2.0563e+08 2.059e+08 2.06919e+08 2.06935e+08 0 99
025 5 1 2.09783e+08 2.10046e+08 2.11066e+08 2.1676e+08 0 0
026 5 1 2.23927e+08 2.24188e+08 2.25207e+08 2.43576e+08 1 0
027 5 0 2.51094e+08 2.51352e+08 2.52371e+08 2.52594e+08 1 1
028 5 1 2.55566e+08 2.55821e+08 2.5684e+08 2.57421e+08 0 0
029 5 0 2.64539e+08 2.64798e+08 2.65817e+08 2.65889e+08 1 1
030 5 0 2.77301e+08 2.77556e+08 2.78575e+08 2.78588e+08 0 1
031 1 1 2.87507e+08 2.87761e+08 2.88781e+08 2.94747e+08 0 1
032 1 1 3.03056e+08 3.0332e+08 3.04339e+08 3.04356e+08 0 1
033 5 0 3.14137e+08 3.14404e+08 3.15423e+08 3.15433e+08 0 1
034 1 0 3.28093e+08 3.28356e+08 3.29375e+08 3.2938e+08 0 0
035 1 1 3.36901e+08 3.37146e+08 3.38165e+08 3.38171e+08 1 1
036 3 0 3.44194e+08 3.44453e+08 3.45472e+08 3.45487e+08 0 99
037 5 0 3.48064e+08 3.48319e+08 3.49338e+08 3.49354e+08 0 1
038 5 0 3.63092e+08 3.63345e+08 3.64364e+08 3.64435e+08 0 1
039 1 0 3.71047e+08 3.71296e+08 3.72315e+08 3.73753e+08 0 0
040 1 1 3.80787e+08 3.81042e+08 3.82061e+08 3.82144e+08 1 1
041 1 1 3.90651e+08 3.9091e+08 3.91929e+08 3.91937e+08 0 1
042 5 0 3.97755e+08 3.98013e+08 3.99032e+08 3.99044e+08 0 1
043 1 1 4.06048e+08 4.06301e+08 4.0732e+08 4.07505e+08 0 1
044 1 1 4.10187e+08 4.10436e+08 4.11455e+08 4.11493e+08 0 1
045 5 0 4.17029e+08 4.17284e+08 4.18303e+08 4.18311e+08 0 1
046 5 0 4.20998e+08 4.21255e+08 4.22274e+08 4.22283e+08 0 1
047 5 0 4.26191e+08 4.26447e+08 4.27466e+08 4.27472e+08 0 1
048 1 0 4.31052e+08 4.31297e+08 4.32316e+08 4.32498e+08 0 0
049 1 0 4.39936e+08 4.40189e+08 4.41208e+08 4.41502e+08 1 0
050 1 0 4.48812e+08 4.49058e+08 4.50077e+08 4.82299e+08 1 0
051 1 1 4.89498e+08 4.89742e+08 4.90761e+08 4.90806e+08 1 1
052 1 1 5.03181e+08 5.03441e+08 5.0446e+08 5.04494e+08 0 1
053 5 0 5.07213e+08 5.07474e+08 5.08493e+08 5.08593e+08 0 1
054 1 1 5.11914e+08 5.12175e+08 5.13194e+08 5.13445e+08 0 1
055 1 1 5.22582e+08 5.22842e+08 5.23861e+08 5.23873e+08 0 1
056 1 1 5.32511e+08 5.32768e+08 5.33788e+08 5.33934e+08 0 1
057 5 0 5.43905e+08 5.44157e+08 5.45176e+08 5.45196e+08 0 1
058 1 1 5.56043e+08 5.56294e+08 5.57313e+08 5.57321e+08 0 1
059 5 0 5.6292e+08 5.63168e+08 5.64187e+08 5.64198e+08 0 1
060 2 1 5.68698e+08 5.68958e+08 5.69977e+08 5.70097e+08 0 99
061 5 0 5.73488e+08 5.73733e+08 5.74752e+08 5.75736e+08 0 1
062 5 0 5.78611e+08 5.78861e+08 5.7988e+08 6.30305e+08 0 1
063 1 1 6.33558e+08 6.33802e+08 6.34821e+08 6.34934e+08 0 1
064 2 1 6.4368e+08 6.43941e+08 6.4496e+08 6.44974e+08 0 99
065 5 1 6.47939e+08 6.48184e+08 6.49203e+08 6.54637e+08 0 0
066 5 0 6.63287e+08 6.63531e+08 6.6455e+08 6.64644e+08 1 1
067 1 1 6.70891e+08 6.71144e+08 6.72163e+08 6.72234e+08 0 1
068 4 0 6.77042e+08 6.77295e+08 6.78315e+08 6.78322e+08 0 99
069 5 0 6.81871e+08 6.82119e+08 6.83138e+08 6.83147e+08 0 1
070 2 1 6.89317e+08 6.89576e+08 6.90595e+08 6.90604e+08 0 99
071 5 0 6.9386e+08 6.94104e+08 6.95123e+08 6.95164e+08 0 1
072 1 1 7.05036e+08 7.05289e+08 7.06308e+08 7.06315e+08 0 1
073 5 0 7.16008e+08 7.16275e+08 7.17294e+08 7.1731e+08 0 1
074 4 0 7.25431e+08 7.25679e+08 7.26698e+08 7.26705e+08 0 99
075 3 0 7.30027e+08 7.3028e+08 7.31299e+08 7.31307e+08 0 99
076 5 0 7.34454e+08 7.34703e+08 7.35722e+08 7.35835e+08 0 1
077 1 0 7.39375e+08 7.39641e+08 7.4066e+08 7.77667e+08 0 0
078 1 1 7.84958e+08 7.85213e+08 7.86232e+08 7.86624e+08 1 1
079 4 0 7.89907e+08 7.9015e+08 7.91169e+08 7.91189e+08 0 99
080 1 1 7.95825e+08 7.96084e+08 7.97103e+08 7.9725e+08 0 1
081 1 1 8.02625e+08 8.02879e+08 8.03898e+08 8.04078e+08 0 1
082 1 1 8.07506e+08 8.07766e+08 8.08786e+08 8.08816e+08 0 1
083 4 0 8.12118e+08 8.12377e+08 8.13396e+08 8.1341e+08 0 99
084 5 0 8.19471e+08 8.19735e+08 8.20754e+08 8.20773e+08 0 1
085 1 1 8.35488e+08 8.35749e+08 8.36768e+08 8.37216e+08 0 1
086 5 1 8.4247e+08 8.42728e+08 8.43747e+08 8.43823e+08 0 0
087 5 1 8.51209e+08 8.51467e+08 8.52486e+08 8.53104e+08 1 0
088 5 1 8.60314e+08 8.60574e+08 8.61593e+08 8.61912e+08 1 0
089 5 1 8.69343e+08 8.696e+08 8.7062e+08 8.70785e+08 1 0
090 5 0 8.78175e+08 8.7843e+08 8.79449e+08 8.79879e+08 0 1
091 5 1 8.84405e+08 8.84667e+08 8.85686e+08 8.85892e+08 0 0
092 5 1 8.94044e+08 8.94291e+08 8.9531e+08 9.15152e+08 1 0
093 5 1 9.22411e+08 9.22668e+08 9.23687e+08 9.24117e+08 1 0
094 5 1 9.31392e+08 9.31644e+08 9.32664e+08 9.32733e+08 1 0
095 5 0 9.40014e+08 9.40272e+08 9.41291e+08 9.41329e+08 0 1
096 1 1 9.52343e+08 9.52598e+08 9.53617e+08 9.53859e+08 0 1
097 1 1 9.65718e+08 9.65977e+08 9.66996e+08 9.6701e+08 0 1
098 2 1 9.71944e+08 9.72202e+08 9.73221e+08 9.73837e+08 0 99
099 5 0 9.78812e+08 9.79075e+08 9.80094e+08 9.80205e+08 0 1
100 1 1 9.91969e+08 9.92225e+08 9.93244e+08 9.93587e+08 0 1
101 2 1 9.9954e+08 9.99796e+08 1.00082e+09 1.00098e+09 0 99
102 5 0 1.00479e+09 1.00505e+09 1.00607e+09 1.00617e+09 0 1
103 5 0 1.01028e+09 1.01054e+09 1.01156e+09 1.01157e+09 0 1
104 1 1 1.019e+09 1.01925e+09 1.02027e+09 1.02054e+09 0 1
105 4 0 1.03022e+09 1.03047e+09 1.03149e+09 1.03188e+09 0 99
106 5 0 1.03788e+09 1.03813e+09 1.03915e+09 1.03919e+09 0 1
107 2 1 1.04769e+09 1.04795e+09 1.04897e+09 1.04905e+09 0 99
108 5 0 1.05326e+09 1.05352e+09 1.05454e+09 1.0546e+09 0 1
109 1 1 1.05903e+09 1.05928e+09 1.0603e+09 1.06033e+09 0 1
110 5 1 1.06966e+09 1.06991e+09 1.07093e+09 1.07096e+09 0 0
111 5 0 1.07834e+09 1.0786e+09 1.07962e+09 1.07965e+09 1 1
112 5 0 1.08498e+09 1.08524e+09 1.08626e+09 1.08646e+09 0 1
113 1 1 1.09788e+09 1.09813e+09 1.09915e+09 1.09972e+09 0 1
114 4 0 1.10832e+09 1.10857e+09 1.10959e+09 1.1096e+09 0 99
115 1 1 1.11457e+09 1.11483e+09 1.11585e+09 1.11601e+09 0 1
116 5 0 1.1245e+09 1.12475e+09 1.12577e+09 1.1258e+09 0 1
117 5 0 1.12986e+09 1.13012e+09 1.13114e+09 1.13115e+09 0 1
118 1 1 1.14054e+09 1.14079e+09 1.14181e+09 1.14187e+09 0 1
119 1 1 1.15104e+09 1.1513e+09 1.15231e+09 1.15237e+09 0 1
120 4 0 1.16005e+09 1.16031e+09 1.16133e+09 1.16134e+09 0 99
121 1 1 1.1657e+09 1.16594e+09 1.16696e+09 1.16711e+09 0 1
122 5 0 1.18218e+09 1.18243e+09 1.18345e+09 1.18346e+09 0 1
123 3 0 1.19451e+09 1.19477e+09 1.19579e+09 1.1958e+09 0 99
124 1 1 1.19995e+09 1.20021e+09 1.20123e+09 1.20153e+09 0 1
125 1 1 1.20618e+09 1.20643e+09 1.20745e+09 1.20776e+09 0 1
126 5 0 1.21548e+09 1.21574e+09 1.21676e+09 1.21677e+09 0 1
127 2 1 1.22155e+09 1.22181e+09 1.22283e+09 1.22303e+09 0 99
128 1 1 1.2277e+09 1.22795e+09 1.22897e+09 1.22899e+09 0 1
129 5 0 1.23342e+09 1.23367e+09 1.23469e+09 1.23476e+09 0 1
130 1 1 1.24125e+09 1.24152e+09 1.24253e+09 1.24273e+09 0 1
131 2 1 1.2529e+09 1.25316e+09 1.25418e+09 1.25433e+09 0 99
132 1 1 1.25874e+09 1.25899e+09 1.26001e+09 1.26051e+09 0 1
133 1 1 1.26495e+09 1.26521e+09 1.26623e+09 1.26625e+09 0 1
134 3 1 1.27305e+09 1.27331e+09 1.27432e+09 1.27443e+09 0 99
135 4 0 1.27906e+09 1.27932e+09 1.28034e+09 1.31926e+09 0 99
136 1 1 1.32373e+09 1.32399e+09 1.32501e+09 1.32502e+09 0 1
137 5 1 1.3312e+09 1.33145e+09 1.33246e+09 1.33256e+09 0 0
138 5 0 1.33994e+09 1.34019e+09 1.34121e+09 1.34122e+09 1 1
139 1 1 1.3509e+09 1.35115e+09 1.35217e+09 1.35227e+09 0 1
140 1 1 1.36007e+09 1.36033e+09 1.36134e+09 1.36139e+09 0 1
141 2 0 1.36715e+09 1.36741e+09 1.36843e+09 1.36844e+09 0 99
142 5 0 1.37329e+09 1.37355e+09 1.37457e+09 1.37464e+09 0 1
143 2 0 1.37942e+09 1.37967e+09 1.38069e+09 1.38252e+09 0 99
144 5 0 1.38715e+09 1.3874e+09 1.38842e+09 1.38842e+09 0 1
145 4 0 1.39673e+09 1.39699e+09 1.39801e+09 1.3982e+09 0 99
146 1 1 1.40503e+09 1.40529e+09 1.40631e+09 1.40661e+09 0 1
147 1 1 1.41164e+09 1.4119e+09 1.41292e+09 1.41293e+09 0 1
148 5 0 1.4223e+09 1.42256e+09 1.42358e+09 1.42384e+09 0 1
149 5 0 1.43144e+09 1.4317e+09 1.43272e+09 1.43273e+09 0 1
150 2 0 1.44463e+09 1.44489e+09 1.44591e+09 1.50542e+09 0 99
151 2 1 1.51418e+09 1.51444e+09 1.51546e+09 1.51549e+09 0 99
152 5 0 1.5239e+09 1.52415e+09 1.52517e+09 1.52517e+09 0 1
153 5 1 1.53577e+09 1.53603e+09 1.53705e+09 1.57052e+09 0 0
154 5 0 1.57767e+09 1.57792e+09 1.57894e+09 1.57896e+09 1 1
155 5 0 1.58444e+09 1.5847e+09 1.58572e+09 1.58573e+09 0 1
156 1 1 1.59498e+09 1.59524e+09 1.59626e+09 1.59628e+09 0 1
157 5 0 1.60397e+09 1.60423e+09 1.60525e+09 1.60533e+09 0 1
158 1 0 1.61467e+09 1.61493e+09 1.61595e+09 1.61677e+09 0 0
159 1 1 1.62548e+09 1.62573e+09 1.62675e+09 1.62686e+09 1 1
160 4 1 1.63269e+09 1.63293e+09 1.63395e+09 1.63403e+09 0 99
161 1 1 1.63894e+09 1.6392e+09 1.64022e+09 1.64023e+09 0 1
162 3 1 1.64692e+09 1.64719e+09 1.64821e+09 1.64834e+09 0 99
163 5 0 1.65346e+09 1.65371e+09 1.65473e+09 1.65476e+09 0 1
164 1 1 1.66265e+09 1.66291e+09 1.66393e+09 1.66394e+09 0 1
165 5 0 1.67322e+09 1.67348e+09 1.6745e+09 1.6745e+09 0 1
166 1 1 1.67983e+09 1.68009e+09 1.68111e+09 1.68112e+09 0 1
167 5 0 1.68656e+09 1.68681e+09 1.68783e+09 1.6879e+09 0 1
168 5 0 1.69851e+09 1.69877e+09 1.69979e+09 1.69985e+09 0 1
169 5 0 1.70519e+09 1.70544e+09 1.70646e+09 1.70694e+09 0 1
170 1 1 1.71447e+09 1.71473e+09 1.71575e+09 1.71583e+09 0 1
171 4 0 1.72439e+09 1.72464e+09 1.72566e+09 1.72595e+09 0 99
172 5 0 1.73142e+09 1.73167e+09 1.73269e+09 1.73274e+09 0 1
173 1 1 1.73796e+09 1.73821e+09 1.73922e+09 1.73987e+09 0 1
174 4 0 1.74508e+09 1.74534e+09 1.74636e+09 1.74637e+09 0 99
175 1 1 1.75359e+09 1.75384e+09 1.75486e+09 1.7549e+09 0 1
176 1 0 1.76026e+09 1.76052e+09 1.76154e+09 1.77262e+09 0 0
177 1 1 1.77986e+09 1.78012e+09 1.78113e+09 1.78114e+09 1 1
178 4 0 1.79135e+09 1.79162e+09 1.79264e+09 1.79266e+09 0 99
179 5 0 1.7982e+09 1.79846e+09 1.79948e+09 1.79949e+09 0 1
180 3 0 1.80492e+09 1.80517e+09 1.80619e+09 1.80627e+09 0 99
181 5 0 1.81275e+09 1.81302e+09 1.81403e+09 1.81404e+09 0 1
182 1 1 1.82488e+09 1.82512e+09 1.82614e+09 1.82647e+09 0 1
183 1 1 1.83483e+09 1.83508e+09 1.8361e+09 1.83613e+09 0 1
184 5 0 1.84174e+09 1.84198e+09 1.843e+09 1.84302e+09 0 1
185 4 0 1.85516e+09 1.85541e+09 1.85643e+09 1.85666e+09 0 99
186 1 1 1.86317e+09 1.86343e+09 1.86445e+09 1.86447e+09 0 1
187 1 0 1.87043e+09 1.87069e+09 1.87171e+09 1.93063e+09 0 0
188 1 1 1.94054e+09 1.9408e+09 1.94182e+09 1.942e+09 1 1
189 5 0 1.94787e+09 1.94813e+09 1.94915e+09 1.94915e+09 0 1
190 5 0 1.9583e+09 1.95857e+09 1.95959e+09 1.95961e+09 0 1
191 5 0 1.96721e+09 1.96746e+09 1.96848e+09 1.96848e+09 0 1
192 3 1 1.97689e+09 1.97714e+09 1.97816e+09 1.97819e+09 0 99
193 1 0 1.98491e+09 1.98517e+09 1.98619e+09 1.98703e+09 0 0
194 1 1 1.99447e+09 1.99473e+09 1.99575e+09 1.99592e+09 1 1
195 5 0 2.00221e+09 2.00247e+09 2.00349e+09 2.00349e+09 0 1
196 5 1 2.01342e+09 2.01367e+09 2.01469e+09 2.01487e+09 0 0
197 5 0 2.02218e+09 2.02244e+09 2.02346e+09 2.02347e+09 1 1
198 5 0 2.03249e+09 2.03275e+09 2.03377e+09 2.03378e+09 0 1
199 5 0 2.03988e+09 2.04013e+09 2.04115e+09 2.04116e+09 0 1
200 3 0 2.04771e+09 2.04798e+09 2.049e+09 2.0491e+09 0 99
201 5 0 2.05526e+09 2.05551e+09 2.05653e+09 2.05659e+09 0 1
202 3 1 2.0663e+09 2.06655e+09 2.06757e+09 2.06774e+09 0 99
203 5 0 2.07357e+09 2.07383e+09 2.07485e+09 2.07559e+09 0 1
204 2 1 2.08631e+09 2.08656e+09 2.08758e+09 2.08759e+09 0 99
205 5 0 2.09371e+09 2.09396e+09 2.09498e+09 2.09499e+09 0 1
206 1 1 2.10381e+09 2.10406e+09 2.10508e+09 2.10513e+09 0 1
207 1 1 2.11128e+09 2.11152e+09 2.11254e+09 2.11264e+09 0 1
208 5 0 2.12013e+09 2.12038e+09 2.1214e+09 2.12142e+09 0 1
209 1 1 2.12745e+09 2.1277e+09 2.12872e+09 2.12881e+09 0 1
210 1 1 2.13702e+09 2.13729e+09 2.13831e+09 2.1385e+09 0 1
211 5 0 2.14464e+09 2.14489e+09 2.14591e+09 2.14597e+09 0 1
212 5 0 2.15236e+09 2.15263e+09 2.15365e+09 2.15366e+09 0 1
213 5 0 2.16474e+09 2.165e+09 2.16602e+09 2.16603e+09 0 1
214 1 1 2.17404e+09 2.1743e+09 2.17532e+09 2.17533e+09 0 1
215 3 1 2.18486e+09 2.18511e+09 2.18613e+09 2.18614e+09 0 99
216 1 1 2.19219e+09 2.19245e+09 2.19347e+09 2.1935e+09 0 1
217 5 0 2.20134e+09 2.20159e+09 2.20261e+09 2.20262e+09 0 1
218 1 1 2.20961e+09 2.20986e+09 2.21088e+09 2.21121e+09 0 1
219 2 1 2.21752e+09 2.21777e+09 2.21879e+09 2.2188e+09 0 99
220 1 1 2.22626e+09 2.22652e+09 2.22754e+09 2.22755e+09 0 1
221 5 0 2.23497e+09 2.23523e+09 2.23625e+09 2.23626e+09 0 1
222 1 1 2.24351e+09 2.24377e+09 2.24478e+09 2.24548e+09 0 1
223 1 1 2.25513e+09 2.25537e+09 2.25639e+09 2.25643e+09 0 1
224 5 1 2.26266e+09 2.26291e+09 2.26393e+09 2.26422e+09 0 0
225 5 1 2.27145e+09 2.2717e+09 2.27272e+09 2.27289e+09 1 0
226 5 0 2.28088e+09 2.28113e+09 2.28215e+09 2.28217e+09 1 1
227 1 0 2.29217e+09 2.29243e+09 2.29345e+09 2.29418e+09 0 0
228 1 1 2.30132e+09 2.30156e+09 2.30258e+09 2.30265e+09 1 1
229 1 1 2.30912e+09 2.30937e+09 2.31039e+09 2.31045e+09 0 1
230 5 0 2.32132e+09 2.32159e+09 2.3226e+09 2.32263e+09 0 1
231 1 1 2.33014e+09 2.3304e+09 2.33142e+09 2.33153e+09 0 1
232 5 1 2.33949e+09 2.33975e+09 2.34077e+09 2.34136e+09 0 0
233 5 0 2.34887e+09 2.34914e+09 2.35016e+09 2.35016e+09 1 1
234 2 1 2.35697e+09 2.35724e+09 2.35826e+09 2.35844e+09 0 99
235 2 1 2.36567e+09 2.36592e+09 2.36694e+09 2.36794e+09 0 99
236 1 1 2.37473e+09 2.37498e+09 2.376e+09 2.37631e+09 0 1
237 1 1 2.38385e+09 2.38411e+09 2.38513e+09 2.38514e+09 0 1
238 5 0 2.39168e+09 2.39194e+09 2.39295e+09 2.39297e+09 0 1
239 5 0 2.40078e+09 2.40105e+09 2.40207e+09 2.40209e+09 0 1
240 1 1 2.41014e+09 2.41038e+09 2.4114e+09 2.41144e+09 0 1
241 1 1 2.41931e+09 2.41958e+09 2.4206e+09 2.42083e+09 0 1
242 5 0 2.42979e+09 2.43005e+09 2.43107e+09 2.43117e+09 0 1
243 1 1 2.43992e+09 2.44017e+09 2.44119e+09 2.4412e+09 0 1
244 5 0 2.45087e+09 2.45111e+09 2.45213e+09 2.45215e+09 0 1
245 3 0 2.46057e+09 2.46082e+09 2.46184e+09 2.4619e+09 0 99
246 5 1 2.46886e+09 2.46912e+09 2.47014e+09 2.47018e+09 0 0
247 5 0 2.47765e+09 2.4779e+09 2.47892e+09 2.47894e+09 1 1
248 5 0 2.48719e+09 2.48745e+09 2.48847e+09 2.48854e+09 0 1
249 3 1 2.49773e+09 2.49798e+09 2.499e+09 2.50022e+09 0 99
250 1 1 2.5072e+09 2.50745e+09 2.50847e+09 2.50871e+09 0 1
251 5 0 2.52127e+09 2.52153e+09 2.52255e+09 2.52266e+09 0 1
252 5 0 2.53157e+09 2.53182e+09 2.53283e+09 2.53289e+09 0 1
253 2 0 2.54005e+09 2.5403e+09 2.54132e+09 2.54132e+09 0 99
254 1 0 2.55058e+09 2.55084e+09 2.55186e+09 2.55235e+09 0 0
255 1 1 2.55971e+09 2.55997e+09 2.56099e+09 2.56118e+09 1 1
256 5 0 2.5691e+09 2.56936e+09 2.57037e+09 2.5704e+09 0 1
257 4 0 2.57911e+09 2.57937e+09 2.58039e+09 2.5804e+09 0 99
258 1 1 2.58741e+09 2.58767e+09 2.58869e+09 2.5889e+09 0 1
259 5 0 2.59594e+09 2.5962e+09 2.59722e+09 2.59725e+09 0 1
260 4 0 2.60451e+09 2.60476e+09 2.60578e+09 2.62303e+09 0 99
261 2 0 2.63028e+09 2.63054e+09 2.63156e+09 2.63157e+09 0 99
262 5 0 2.63881e+09 2.63906e+09 2.64008e+09 2.64009e+09 0 1
263 1 1 2.64792e+09 2.64816e+09 2.64918e+09 2.64931e+09 0 1
264 5 0 2.65778e+09 2.65804e+09 2.65906e+09 2.65907e+09 0 1
265 5 0 2.67033e+09 2.6706e+09 2.67162e+09 2.67169e+09 0 1
266 2 1 2.67997e+09 2.68024e+09 2.68126e+09 2.6815e+09 0 99
267 2 0 2.6887e+09 2.68895e+09 2.68997e+09 2.69005e+09 0 99
268 1 1 2.70039e+09 2.70065e+09 2.70167e+09 2.70168e+09 0 1
269 3 1 2.7103e+09 2.71055e+09 2.71157e+09 2.71165e+09 0 99
270 5 0 2.71876e+09 2.71902e+09 2.72004e+09 2.72005e+09 0 1
271 5 0 2.72771e+09 2.72796e+09 2.72898e+09 2.729e+09 0 1
272 1 1 2.73701e+09 2.73726e+09 2.73828e+09 2.73829e+09 0 1
273 5 0 2.74697e+09 2.74722e+09 2.74824e+09 2.74824e+09 0 1
274 3 0 2.75926e+09 2.7595e+09 2.76052e+09 2.77991e+09 0 99
275 4 0 2.78936e+09 2.78961e+09 2.79063e+09 2.79063e+09 0 99
276 1 1 2.79813e+09 2.79838e+09 2.7994e+09 2.79941e+09 0 1
277 1 1 2.80788e+09 2.80814e+09 2.80915e+09 2.80917e+09 0 1
278 1 1 2.81736e+09 2.81761e+09 2.81862e+09 2.8187e+09 0 1
279 1 1 2.82645e+09 2.82671e+09 2.82773e+09 2.82774e+09 0 1
280 5 0 2.83629e+09 2.83656e+09 2.83758e+09 2.83758e+09 0 1
281 1 1 2.8452e+09 2.84547e+09 2.84649e+09 2.84657e+09 0 1
282 3 1 2.85443e+09 2.85468e+09 2.8557e+09 2.85581e+09 0 99
283 5 0 2.86339e+09 2.86364e+09 2.86466e+09 2.96355e+09 0 1
284 5 0 2.97195e+09 2.9722e+09 2.97322e+09 2.97322e+09 0 1
285 1 1 2.98182e+09 2.98206e+09 2.98308e+09 2.98313e+09 0 1
286 5 0 2.99319e+09 2.99344e+09 2.99446e+09 2.99447e+09 0 1
287 5 0 3.00294e+09 3.00319e+09 3.00421e+09 3.00421e+09 0 1
288 2 1 3.01266e+09 3.0129e+09 3.01392e+09 3.06994e+09 0 99
289 5 1 3.07859e+09 3.07884e+09 3.07986e+09 3.08002e+09 0 0
290 5 0 3.08791e+09 3.08816e+09 3.08918e+09 3.08931e+09 1 1
291 4 1 3.09754e+09 3.09779e+09 3.09881e+09 3.09893e+09 0 99
292 5 0 3.10703e+09 3.10729e+09 3.10831e+09 3.10832e+09 0 1
293 5 0 3.11957e+09 3.11983e+09 3.12085e+09 3.12085e+09 0 1
294 5 0 3.12864e+09 3.12889e+09 3.12991e+09 3.12993e+09 0 1
295 4 0 3.13783e+09 3.13809e+09 3.13911e+09 3.13911e+09 0 99
296 1 1 3.14692e+09 3.14717e+09 3.14819e+09 3.14828e+09 0 1
297 1 1 3.15617e+09 3.15642e+09 3.15744e+09 3.15747e+09 0 1
298 1 1 3.168e+09 3.16825e+09 3.16927e+09 3.16928e+09 0 1
299 1 1 3.1774e+09 3.17766e+09 3.17868e+09 3.17869e+09 0 1
300 1 1 3.19003e+09 3.19028e+09 3.1913e+09 3.19152e+09 0 1
301 1 1 3.19978e+09 3.20004e+09 3.20106e+09 3.20107e+09 0 1
302 1 1 3.21085e+09 3.2111e+09 3.21212e+09 3.21213e+09 0 1
303 4 1 3.22028e+09 3.22054e+09 3.22156e+09 3.22161e+09 0 99
304 1 1 3.22977e+09 3.23003e+09 3.23105e+09 3.23108e+09 0 1
305 5 0 3.23951e+09 3.23976e+09 3.24078e+09 3.24079e+09 0 1
306 5 0 3.24881e+09 3.24906e+09 3.25008e+09 3.25011e+09 0 1
307 1 1 3.25836e+09 3.25862e+09 3.25964e+09 3.25971e+09 0 1
308 2 1 3.26803e+09 3.26829e+09 3.2693e+09 3.26934e+09 0 99
309 5 0 3.27786e+09 3.27811e+09 3.27913e+09 3.27914e+09 0 1
310 1 1 3.28751e+09 3.28776e+09 3.28878e+09 3.28888e+09 0 1
311 1 1 3.3023e+09 3.30255e+09 3.30357e+09 3.30358e+09 0 1
312 5 0 3.31196e+09 3.31221e+09 3.31323e+09 3.31324e+09 0 1
313 1 1 3.32344e+09 3.32369e+09 3.32471e+09 3.32494e+09 0 1
314 1 1 3.33352e+09 3.33377e+09 3.33479e+09 3.33488e+09 0 1
315 3 0 3.34427e+09 3.34452e+09 3.34554e+09 3.34555e+09 0 99
316 5 0 3.35413e+09 3.35439e+09 3.35541e+09 3.35547e+09 0 1
317 5 0 3.36412e+09 3.36436e+09 3.36538e+09 3.36553e+09 0 1
318 1 1 3.37392e+09 3.37418e+09 3.3752e+09 3.37524e+09 0 1
319 1 1 3.38391e+09 3.38417e+09 3.38519e+09 3.38523e+09 0 1
320 5 0 3.39366e+09 3.39391e+09 3.39493e+09 3.39494e+09 0 1
321 4 0 3.4036e+09 3.40386e+09 3.40487e+09 3.41832e+09 0 99
322 1 1 3.42662e+09 3.42687e+09 3.42789e+09 3.42802e+09 0 1
323 1 1 3.43658e+09 3.43683e+09 3.43785e+09 3.43787e+09 0 1
324 1 1 3.4463e+09 3.44655e+09 3.44757e+09 3.44778e+09 0 1
325 3 0 3.45635e+09 3.4566e+09 3.45762e+09 3.45771e+09 0 99
326 5 0 3.4665e+09 3.46676e+09 3.46778e+09 3.48103e+09 0 1
327 5 0 3.49075e+09 3.49101e+09 3.49203e+09 3.50698e+09 0 1
328 5 0 3.51575e+09 3.516e+09 3.51702e+09 3.52238e+09 0 1
329 3 1 3.53111e+09 3.53137e+09 3.53239e+09 3.5423e+09 0 99
330 4 0 3.55081e+09 3.55106e+09 3.55208e+09 3.55474e+09 0 99
331 1 1 3.56344e+09 3.5637e+09 3.56471e+09 3.56479e+09 0 1
332 5 0 3.57355e+09 3.5738e+09 3.57482e+09 3.64883e+09 0 1
333 1 1 3.65961e+09 3.65987e+09 3.66089e+09 3.66096e+09 0 1
334 5 0 3.67118e+09 3.67144e+09 3.67246e+09 3.70511e+09 0 1
335 1 1 3.71482e+09 3.71506e+09 3.71608e+09 3.71636e+09 0 1
336 1 0 3.72542e+09 3.72568e+09 3.7267e+09 3.74759e+09 0 0
337 1 0 3.75664e+09 3.75689e+09 3.75791e+09 3.75802e+09 1 0
338 1 0 3.76826e+09 3.76851e+09 3.76952e+09 3.77791e+09 1 0
339 1 1 3.78695e+09 3.7872e+09 3.78822e+09 3.78825e+09 1 1
340 5 0 3.79778e+09 3.79803e+09 3.79905e+09 3.8187e+09 0 1
341 5 0 3.82764e+09 3.82789e+09 3.82891e+09 3.87936e+09 0 1
342 3 1 3.88832e+09 3.88858e+09 3.8896e+09 3.89938e+09 0 99
343 1 0 3.90838e+09 3.90863e+09 3.90965e+09 3.96738e+09 0 0
344 1 0 3.97652e+09 3.97677e+09 3.97779e+09 4.02509e+09 1 0
345 1 0 4.03424e+09 4.03448e+09 4.0355e+09 4.29034e+09 1 0
346 1 0 5.86958e+06 6.11787e+06 7.137e+06 1.28309e+08 1 0
347 5 0 1.37586e+08 1.37831e+08 1.38851e+08 1.46698e+08 0 1
348 1 0 1.57602e+08 1.57864e+08 1.58883e+08 1.58929e+08 0 0
349 1 0 1.7913e+08 1.79388e+08 1.80407e+08 1.82584e+08 1 0
350 1 0 1.91866e+08 1.92117e+08 1.93136e+08 4.32145e+08 1 0
351 1 0 4.41557e+08 4.41811e+08 4.4283e+08 4.45097e+08 1 0
352 3 0 4.54685e+08 4.54931e+08 4.5595e+08 4.62745e+08 0 99
353 5 0 4.7226e+08 4.7251e+08 4.73529e+08 5.25742e+08 0 1
354 1 0 5.34995e+08 5.35238e+08 5.36257e+08 5.37805e+08 0 0
355 1 0 5.47486e+08 5.47729e+08 5.48748e+08 5.61236e+08 1 0
