trial trialType response stillTime stimOnset stimOffset respTime correctionTrial correct
001 1 1 1.72032e+07 1.75134e+07 1.85325e+07 2.61703e+07 0 1
002 2 1 2.95066e+07 2.97667e+07 3.07858e+07 3.08932e+07 0 0
003 2 0 4.17168e+07 4.19994e+07 4.30185e+07 4.42245e+07 1 1
004 2 0 8.18616e+07 8.21145e+07 8.31337e+07 8.32512e+07 0 1
005 1 0 8.64287e+07 8.66894e+07 8.77086e+07 8.78588e+07 0 0
006 1 1 1.14787e+08 1.15046e+08 1.16065e+08 1.16095e+08 1 1
007 1 1 1.19227e+08 1.19474e+08 1.20493e+08 1.21611e+08 0 1
008 2 0 1.49018e+08 1.49281e+08 1.503e+08 1.50393e+08 0 1
009 2 0 2.405e+08 2.40757e+08 2.41776e+08 2.42083e+08 0 1
010 2 1 2.56811e+08 2.57076e+08 2.58095e+08 2.5839e+08 0 0
011 2 0 2.821e+08 2.82351e+08 2.8337e+08 2.83545e+08 1 1
012 1 1 2.87474e+08 2.8773e+08 2.88749e+08 2.89058e+08 0 1
013 2 1 3.11137e+08 3.1139e+08 3.12409e+08 3.1243e+08 0 0
014 2 0 3.22997e+08 3.23251e+08 3.2427e+08 3.24343e+08 1 1
015 1 1 3.64624e+08 3.64868e+08 3.65887e+08 3.66122e+08 0 1
016 1 1 3.71616e+08 3.71868e+08 3.72887e+08 3.74782e+08 0 1
017 2 1 3.86114e+08 3.86365e+08 3.87384e+08 3.87403e+08 0 0
018 2 0 4.09288e+08 4.09545e+08 4.10564e+08 4.10615e+08 1 1
019 2 0 4.32902e+08 4.33161e+08 4.3418e+08 4.34202e+08 0 1
020 1 0 4.37234e+08 4.37478e+08 4.38497e+08 4.39067e+08 0 0
021 1 0 4.64747e+08 4.65004e+08 4.66023e+08 4.66516e+08 1 0
022 1 1 4.78142e+08 4.78387e+08 4.79406e+08 4.7944e+08 1 1
023 2 0 4.83711e+08 4.83964e+08 4.84983e+08 4.85287e+08 0 1
024 2 0 4.88489e+08 4.88749e+08 4.89768e+08 4.899e+08 0 1
025 2 0 5.05523e+08 5.05776e+08 5.06795e+08 5.06833e+08 0 1
026 2 1 5.3213e+08 5.3239e+08 5.33409e+08 5.33452e+08 0 0
027 2 0 5.43858e+08 5.44116e+08 5.45135e+08 5.45155e+08 1 1
028 1 0 5.67307e+08 5.67551e+08 5.6857e+08 5.68678e+08 0 0
029 1 0 5.79476e+08 5.79728e+08 5.80747e+08 5.80793e+08 1 0
030 1 1 5.99497e+08 5.99742e+08 6.00762e+08 6.01211e+08 1 1
031 1 0 6.06221e+08 6.06479e+08 6.07498e+08 6.08266e+08 0 0
032 1 1 6.1751e+08 6.17766e+08 6.18785e+08 6.18978e+08 1 1
033 2 0 6.2324e+08 6.23507e+08 6.24526e+08 6.26196e+08 0 1
034 1 1 6.45658e+08 6.45916e+08 6.46935e+08 6.46946e+08 0 1
035 2 0 6.54189e+08 6.54432e+08 6.55451e+08 6.55479e+08 0 1
036 1 0 6.69633e+08 6.69876e+08 6.70895e+08 6.70909e+08 0 0
037 1 1 6.82778e+08 6.83041e+08 6.8406e+08 6.8411e+08 1 1
038 1 0 6.98156e+08 6.98402e+08 6.99421e+08 6.99662e+08 0 0
039 1 1 7.06781e+08 7.07024e+08 7.08043e+08 7.08055e+08 1 1
040 2 0 7.19842e+08 7.20088e+08 7.21107e+08 7.21131e+08 0 1
041 2 0 7.40084e+08 7.40347e+08 7.41366e+08 7.4158e+08 0 1
042 1 0 7.46231e+08 7.4649e+08 7.47509e+08 7.47622e+08 0 0
043 1 1 7.56198e+08 7.56449e+08 7.57468e+08 7.58227e+08 1 1
044 2 1 7.73161e+08 7.73409e+08 7.74428e+08 7.74478e+08 0 0
045 2 0 7.87184e+08 7.8743e+08 7.88449e+08 7.88496e+08 1 1
046 2 0 7.96275e+08 7.96534e+08 7.97553e+08 8.03146e+08 0 1
047 2 1 8.11273e+08 8.11534e+08 8.12553e+08 8.14234e+08 0 0
048 2 0 8.34825e+08 8.35078e+08 8.36097e+08 8.36123e+08 1 1
049 2 0 8.46349e+08 8.46599e+08 8.47618e+08 8.48071e+08 0 1
050 1 0 8.68413e+08 8.68666e+08 8.69686e+08 8.69845e+08 0 0
051 1 1 8.82633e+08 8.82901e+08 8.8392e+08 8.84205e+08 1 1
052 1 0 8.98844e+08 8.99105e+08 9.00124e+08 9.00328e+08 0 0
053 1 1 9.23791e+08 9.24039e+08 9.25058e+08 9.25128e+08 1 1
054 1 1 9.34517e+08 9.34779e+08 9.35798e+08 9.35855e+08 0 1
055 1 1 9.43369e+08 9.43626e+08 9.44645e+08 9.45858e+08 0 1
056 2 0 9.59558e+08 9.59807e+08 9.60827e+08 9.60857e+08 0 1
057 1 1 9.63561e+08 9.63808e+08 9.64827e+08 9.71423e+08 0 1
058 2 0 9.75862e+08 9.7612e+08 9.77139e+08 9.77177e+08 0 1
059 1 0 9.90667e+08 9.90918e+08 9.91937e+08 9.92383e+08 0 0
060 1 1 1.00105e+09 1.00131e+09 1.00233e+09 1.0024e+09 1 1
061 1 1 1.00546e+09 1.00571e+09 1.00673e+09 1.01206e+09 0 1
062 1 1 1.03052e+09 1.03077e+09 1.03179e+09 1.03181e+09 0 1
063 1 0 1.04377e+09 1.04402e+09 1.04504e+09 1.0462e+09 0 0
064 1 1 1.05944e+09 1.0597e+09 1.06072e+09 1.06097e+09 1 1
065 2 0 1.07634e+09 1.07661e+09 1.07763e+09 1.07765e+09 0 1
066 1 0 1.09816e+09 1.09842e+09 1.09944e+09 1.10003e+09 0 0
067 1 0 1.10793e+09 1.10818e+09 1.1092e+09 1.10948e+09 1 0
068 1 0 1.12151e+09 1.12176e+09 1.12278e+09 1.12287e+09 1 0
069 1 0 1.13294e+09 1.1332e+09 1.13422e+09 1.13874e+09 1 0
070 1 0 1.15114e+09 1.15139e+09 1.15241e+09 1.15243e+09 0 0
071 1 1 1.16039e+09 1.16065e+09 1.16167e+09 1.16176e+09 0 1
072 2 1 1.17659e+09 1.17685e+09 1.17787e+09 1.17803e+09 0 0
073 2 1 1.18558e+09 1.18583e+09 1.18685e+09 1.18686e+09 1 0
074 2 1 1.19392e+09 1.19417e+09 1.19519e+09 1.19525e+09 1 0
075 2 0 1.21594e+09 1.2162e+09 1.21722e+09 1.21724e+09 1 1
076 2 0 1.2262e+09 1.22646e+09 1.22748e+09 1.22758e+09 0 1
077 2 0 1.23162e+09 1.23187e+09 1.23289e+09 1.23316e+09 0 1
078 1 0 1.2444e+09 1.24465e+09 1.24567e+09 1.24589e+09 0 0
079 1 0 1.26883e+09 1.26909e+09 1.27011e+09 1.2704e+09 1 0
080 1 1 1.28831e+09 1.28857e+09 1.28959e+09 1.28964e+09 1 1
081 1 1 1.31183e+09 1.31208e+09 1.3131e+09 1.31316e+09 0 1
082 1 1 1.32317e+09 1.32341e+09 1.32443e+09 1.3245e+09 0 1
083 1 0 1.32934e+09 1.3296e+09 1.33062e+09 1.3317e+09 0 0
084 1 0 1.34119e+09 1.34145e+09 1.34247e+09 1.34255e+09 1 0
085 1 0 1.35115e+09 1.35141e+09 1.35243e+09 1.35244e+09 1 0
086 1 1 1.36081e+09 1.36106e+09 1.36208e+09 1.36215e+09 1 1
087 2 0 1.36503e+09 1.36529e+09 1.36631e+09 1.36693e+09 0 1
088 2 0 1.38757e+09 1.38783e+09 1.38885e+09 1.38915e+09 0 1
089 2 0 1.41271e+09 1.41296e+09 1.41398e+09 1.41424e+09 0 1
090 2 0 1.43358e+09 1.43384e+09 1.43486e+09 1.43544e+09 0 1
091 1 0 1.44911e+09 1.44937e+09 1.45038e+09 1.45055e+09 0 0
092 1 0 1.46396e+09 1.46421e+09 1.46523e+09 1.46527e+09 1 0
093 1 1 1.47454e+09 1.47479e+09 1.47581e+09 1.47583e+09 1 1
094 1 1 1.48613e+09 1.48638e+09 1.4874e+09 1.48742e+09 0 1
095 2 0 1.49453e+09 1.49479e+09 1.49581e+09 1.49673e+09 0 1
096 2 0 1.50772e+09 1.50798e+09 1.509e+09 1.50927e+09 0 1
097 2 0 1.51275e+09 1.513e+09 1.51402e+09 1.51449e+09 0 1
098 1 1 1.55613e+09 1.55638e+09 1.5574e+09 1.55764e+09 0 1
099 2 0 1.56194e+09 1.56219e+09 1.56321e+09 1.56549e+09 0 1
100 2 0 1.583e+09 1.58325e+09 1.58427e+09 1.58429e+09 0 1
101 1 1 1.59026e+09 1.5905e+09 1.59152e+09 1.59158e+09 0 1
102 2 1 1.59529e+09 1.59553e+09 1.59655e+09 1.59675e+09 0 0
103 2 1 1.60621e+09 1.60647e+09 1.60749e+09 1.60768e+09 1 0
104 2 0 1.61978e+09 1.62003e+09 1.62105e+09 1.62115e+09 1 1
105 1 1 1.64208e+09 1.64232e+09 1.64334e+09 1.64345e+09 0 1
106 1 1 1.67151e+09 1.67175e+09 1.67277e+09 1.67312e+09 0 1
107 2 1 1.69097e+09 1.69123e+09 1.69225e+09 1.69229e+09 0 0
108 2 0 1.70198e+09 1.70224e+09 1.70326e+09 1.70334e+09 1 1
109 1 0 1.72089e+09 1.72114e+09 1.72216e+09 1.7222e+09 0 0
110 1 1 1.73879e+09 1.73904e+09 1.74006e+09 1.74011e+09 1 1
111 1 1 1.74364e+09 1.7439e+09 1.74492e+09 1.75036e+09 0 1
112 1 0 1.75852e+09 1.75878e+09 1.7598e+09 1.75995e+09 0 0
113 1 0 1.77462e+09 1.77488e+09 1.7759e+09 1.77595e+09 1 0
114 1 0 1.78316e+09 1.78341e+09 1.78443e+09 1.78472e+09 1 0
115 1 1 1.79367e+09 1.79392e+09 1.79494e+09 1.79496e+09 1 1
116 1 0 1.81048e+09 1.81073e+09 1.81175e+09 1.81177e+09 0 0
117 1 0 1.82527e+09 1.82552e+09 1.82654e+09 1.82656e+09 1 0
118 1 1 1.83572e+09 1.83598e+09 1.837e+09 1.83703e+09 1 1
119 2 0 1.84308e+09 1.84333e+09 1.84435e+09 1.84438e+09 0 1
120 1 1 1.85682e+09 1.85707e+09 1.85809e+09 1.85828e+09 0 1
121 1 1 1.86755e+09 1.86782e+09 1.86884e+09 1.86925e+09 0 1
122 1 1 1.87494e+09 1.87522e+09 1.87624e+09 1.88039e+09 0 1
123 2 0 1.89705e+09 1.89731e+09 1.89833e+09 1.89838e+09 0 1
124 2 0 1.91206e+09 1.91231e+09 1.91333e+09 1.9134e+09 0 1
125 2 0 1.93556e+09 1.9358e+09 1.93682e+09 1.93691e+09 0 1
126 1 1 1.95339e+09 1.95364e+09 1.95466e+09 1.95474e+09 0 1
127 2 0 1.96501e+09 1.96526e+09 1.96628e+09 1.96645e+09 0 1
128 1 1 1.97997e+09 1.98021e+09 1.98123e+09 1.98144e+09 0 1
129 1 1 1.99215e+09 1.99241e+09 1.99343e+09 1.99403e+09 0 1
130 2 0 2.0165e+09 2.01675e+09 2.01777e+09 2.01807e+09 0 1
131 2 0 2.04217e+09 2.04242e+09 2.04344e+09 2.04352e+09 0 1
132 2 0 2.07791e+09 2.07816e+09 2.07918e+09 2.07923e+09 0 1
133 1 0 2.09362e+09 2.09386e+09 2.09488e+09 2.09501e+09 0 0
134 1 1 2.10598e+09 2.10623e+09 2.10725e+09 2.1073e+09 1 1
135 1 0 2.1139e+09 2.11414e+09 2.11516e+09 2.11604e+09 0 0
136 1 1 2.12614e+09 2.12639e+09 2.12741e+09 2.12759e+09 1 1
137 2 0 2.13608e+09 2.13633e+09 2.13735e+09 2.13758e+09 0 1
138 2 0 2.15523e+09 2.15548e+09 2.1565e+09 2.15657e+09 0 1
139 2 0 2.17378e+09 2.17403e+09 2.17505e+09 2.17518e+09 0 1
140 1 1 2.17986e+09 2.18012e+09 2.18114e+09 2.18445e+09 0 1
141 1 0 2.19464e+09 2.19488e+09 2.1959e+09 2.19607e+09 0 0
142 1 0 2.20343e+09 2.20368e+09 2.20469e+09 2.20472e+09 1 0
143 1 1 2.22668e+09 2.22694e+09 2.22796e+09 2.22806e+09 1 1
144 2 0 2.23878e+09 2.23904e+09 2.24006e+09 2.24021e+09 0 1
145 1 1 2.24337e+09 2.24362e+09 2.24464e+09 2.24653e+09 0 1
146 2 0 2.26906e+09 2.26932e+09 2.27034e+09 2.27045e+09 0 1
147 2 0 2.28263e+09 2.28288e+09 2.2839e+09 2.28391e+09 0 1
148 2 0 2.29903e+09 2.29928e+09 2.3003e+09 2.30032e+09 0 1
149 1 1 2.32942e+09 2.32966e+09 2.33068e+09 2.33076e+09 0 1
150 2 0 2.34224e+09 2.34249e+09 2.34351e+09 2.34411e+09 0 1
151 1 1 2.35973e+09 2.36e+09 2.36101e+09 2.3611e+09 0 1
152 2 0 2.37135e+09 2.37161e+09 2.37263e+09 2.37309e+09 0 1
153 1 1 2.39117e+09 2.39142e+09 2.39244e+09 2.39253e+09 0 1
154 1 0 2.40711e+09 2.40736e+09 2.40838e+09 2.40844e+09 0 0
155 1 1 2.41795e+09 2.4182e+09 2.41922e+09 2.41923e+09 1 1
156 1 0 2.43951e+09 2.43977e+09 2.44079e+09 2.4408e+09 0 0
157 1 1 2.45916e+09 2.45941e+09 2.46043e+09 2.46045e+09 1 1
158 2 0 2.4762e+09 2.47645e+09 2.47747e+09 2.47751e+09 0 1
159 1 1 2.49171e+09 2.49197e+09 2.49299e+09 2.49302e+09 0 1
160 1 0 2.50414e+09 2.50439e+09 2.50541e+09 2.50567e+09 0 0
161 1 0 2.51664e+09 2.5169e+09 2.51791e+09 2.51802e+09 1 0
162 1 1 2.52627e+09 2.52653e+09 2.52755e+09 2.52758e+09 1 1
163 1 0 2.53259e+09 2.53285e+09 2.53386e+09 2.53405e+09 0 0
164 1 1 2.54135e+09 2.54162e+09 2.54264e+09 2.54267e+09 1 1
165 1 0 2.55455e+09 2.55479e+09 2.55581e+09 2.5559e+09 0 0
166 1 1 2.5666e+09 2.56685e+09 2.56787e+09 2.57013e+09 1 1
167 1 0 2.58676e+09 2.58701e+09 2.58803e+09 2.58819e+09 0 0
168 1 0 2.59638e+09 2.59664e+09 2.59766e+09 2.59783e+09 1 0
169 1 0 2.607e+09 2.60726e+09 2.60828e+09 2.60833e+09 1 0
170 1 0 2.62216e+09 2.62241e+09 2.62343e+09 2.62367e+09 1 0
171 1 1 2.631e+09 2.63125e+09 2.63227e+09 2.63239e+09 0 1
172 2 1 2.64184e+09 2.6421e+09 2.64311e+09 2.64321e+09 0 0
173 2 0 2.65183e+09 2.65209e+09 2.65311e+09 2.6532e+09 1 1
174 2 0 2.67508e+09 2.67534e+09 2.67636e+09 2.67644e+09 0 1
175 2 1 2.69226e+09 2.69252e+09 2.69354e+09 2.69385e+09 0 0
176 2 0 2.70097e+09 2.70122e+09 2.70224e+09 2.70234e+09 1 1
177 1 1 2.71621e+09 2.71646e+09 2.71748e+09 2.71749e+09 0 1
178 2 0 2.72181e+09 2.72207e+09 2.72309e+09 2.72328e+09 0 1
179 1 1 2.73869e+09 2.73894e+09 2.73996e+09 2.74003e+09 0 1
180 1 0 2.75063e+09 2.75089e+09 2.75191e+09 2.75242e+09 0 0
181 1 0 2.76687e+09 2.76713e+09 2.76815e+09 2.76831e+09 1 0
182 1 1 2.77557e+09 2.77582e+09 2.77684e+09 2.77696e+09 1 1
183 2 0 2.78703e+09 2.7873e+09 2.78832e+09 2.78834e+09 0 1
184 2 0 2.79303e+09 2.79328e+09 2.7943e+09 2.79441e+09 0 1
185 1 1 2.80777e+09 2.80803e+09 2.80905e+09 2.80982e+09 0 1
186 1 1 2.82711e+09 2.82736e+09 2.82838e+09 2.82848e+09 0 1
187 2 0 2.8461e+09 2.84635e+09 2.84736e+09 2.84741e+09 0 1
188 2 0 2.85823e+09 2.85848e+09 2.8595e+09 2.85961e+09 0 1
189 1 0 2.87539e+09 2.87565e+09 2.87667e+09 2.87699e+09 0 0
190 1 0 2.88861e+09 2.88886e+09 2.88988e+09 2.89146e+09 1 0
191 1 1 2.90008e+09 2.90033e+09 2.90135e+09 2.90145e+09 1 1
192 2 0 2.91393e+09 2.91418e+09 2.9152e+09 2.91547e+09 0 1
193 2 0 2.92213e+09 2.92238e+09 2.9234e+09 2.92358e+09 0 1
194 1 0 2.9312e+09 2.93145e+09 2.93247e+09 2.93249e+09 0 0
195 1 1 2.95337e+09 2.95362e+09 2.95464e+09 2.9553e+09 1 1
196 1 1 2.95844e+09 2.95869e+09 2.95971e+09 2.9613e+09 0 1
197 2 0 2.96748e+09 2.96773e+09 2.96874e+09 2.96919e+09 0 1
198 2 0 2.98501e+09 2.98526e+09 2.98628e+09 2.98637e+09 0 1
199 1 1 2.99939e+09 2.99963e+09 3.00065e+09 3.00071e+09 0 1
200 1 1 3.01132e+09 3.01158e+09 3.0126e+09 3.01262e+09 0 1
201 1 0 3.03327e+09 3.03351e+09 3.03453e+09 3.03458e+09 0 0
202 1 1 3.04212e+09 3.04238e+09 3.0434e+09 3.0434e+09 1 1
203 1 1 3.05573e+09 3.05598e+09 3.057e+09 3.05704e+09 0 1
204 2 0 3.06182e+09 3.06208e+09 3.0631e+09 3.06321e+09 0 1
205 2 0 3.07247e+09 3.07273e+09 3.07375e+09 3.07379e+09 0 1
206 2 1 3.08068e+09 3.08093e+09 3.08195e+09 3.08231e+09 0 0
207 2 0 3.0949e+09 3.09515e+09 3.09617e+09 3.0963e+09 1 1
208 1 1 3.10964e+09 3.10989e+09 3.11091e+09 3.111e+09 0 1
209 2 0 3.11366e+09 3.11391e+09 3.11493e+09 3.1159e+09 0 1
210 1 1 3.13621e+09 3.13646e+09 3.13748e+09 3.13751e+09 0 1
211 1 1 3.14209e+09 3.14234e+09 3.14336e+09 3.14396e+09 0 1
212 2 0 3.15038e+09 3.15063e+09 3.15165e+09 3.15172e+09 0 1
213 1 0 3.16812e+09 3.16838e+09 3.1694e+09 3.16956e+09 0 0
214 1 1 3.17947e+09 3.17972e+09 3.18074e+09 3.18106e+09 1 1
215 2 0 3.19379e+09 3.19403e+09 3.19505e+09 3.1951e+09 0 1
216 2 0 3.19942e+09 3.19966e+09 3.20068e+09 3.2007e+09 0 1
217 1 1 3.2136e+09 3.21386e+09 3.21488e+09 3.21505e+09 0 1
218 1 0 3.22128e+09 3.22153e+09 3.22255e+09 3.22281e+09 0 0
219 1 0 3.23011e+09 3.23036e+09 3.23138e+09 3.23157e+09 1 0
220 1 1 3.23896e+09 3.23922e+09 3.24024e+09 3.24033e+09 1 1
221 2 0 3.24682e+09 3.24707e+09 3.24809e+09 3.24818e+09 0 1
222 1 0 3.26474e+09 3.26498e+09 3.266e+09 3.26601e+09 0 0
223 1 1 3.28034e+09 3.28059e+09 3.28161e+09 3.28168e+09 1 1
224 2 0 3.29448e+09 3.29473e+09 3.29575e+09 3.2958e+09 0 1
225 1 0 3.30036e+09 3.30061e+09 3.30163e+09 3.3021e+09 0 0
226 1 1 3.31236e+09 3.31261e+09 3.31363e+09 3.31377e+09 1 1
227 2 1 3.32769e+09 3.32794e+09 3.32896e+09 3.32898e+09 0 0
228 2 0 3.33634e+09 3.33659e+09 3.33761e+09 3.33817e+09 1 1
229 1 1 3.34638e+09 3.34662e+09 3.34764e+09 3.34766e+09 0 1
230 2 1 3.36436e+09 3.36462e+09 3.36564e+09 3.36574e+09 0 0
231 2 1 3.37433e+09 3.37459e+09 3.37561e+09 3.37563e+09 1 0
232 2 0 3.38273e+09 3.38297e+09 3.38399e+09 3.38405e+09 1 1
233 2 0 3.39427e+09 3.39453e+09 3.39555e+09 3.39568e+09 0 1
234 1 1 3.41236e+09 3.41261e+09 3.41363e+09 3.41367e+09 0 1
235 2 0 3.42606e+09 3.42631e+09 3.42733e+09 3.42758e+09 0 1
236 1 1 3.43793e+09 3.43818e+09 3.4392e+09 3.44108e+09 0 1
237 1 1 3.44398e+09 3.44424e+09 3.44526e+09 3.44542e+09 0 1
238 1 1 3.46067e+09 3.46092e+09 3.46194e+09 3.46197e+09 0 1
239 2 1 3.47312e+09 3.47338e+09 3.4744e+09 3.4749e+09 0 0
240 2 0 3.48796e+09 3.48821e+09 3.48922e+09 3.48939e+09 1 1
241 2 0 3.49281e+09 3.49306e+09 3.49408e+09 3.49412e+09 0 1
242 1 0 3.50275e+09 3.50301e+09 3.50402e+09 3.50415e+09 0 0
243 1 1 3.51738e+09 3.51762e+09 3.51864e+09 3.51865e+09 1 1
244 2 0 3.52116e+09 3.52141e+09 3.52243e+09 3.52249e+09 0 1
245 2 0 3.53926e+09 3.53951e+09 3.54052e+09 3.54063e+09 0 1
246 1 1 3.54834e+09 3.54859e+09 3.54961e+09 3.54988e+09 0 1
247 2 0 3.5713e+09 3.57155e+09 3.57257e+09 3.57273e+09 0 1
248 1 0 3.58653e+09 3.58679e+09 3.5878e+09 3.58783e+09 0 0
249 1 1 3.5951e+09 3.59535e+09 3.59637e+09 3.59879e+09 1 1
250 1 0 3.60478e+09 3.60502e+09 3.60604e+09 3.60626e+09 0 0
251 1 1 3.61607e+09 3.61633e+09 3.61735e+09 3.61748e+09 1 1
252 2 0 3.62533e+09 3.62558e+09 3.6266e+09 3.62671e+09 0 1
253 2 0 3.63023e+09 3.63048e+09 3.6315e+09 3.63153e+09 0 1
254 1 1 3.64469e+09 3.64494e+09 3.64596e+09 3.64605e+09 0 1
255 2 1 3.66095e+09 3.66119e+09 3.66221e+09 3.66225e+09 0 0
256 2 0 3.67123e+09 3.67147e+09 3.67249e+09 3.67252e+09 1 1
257 2 0 3.67524e+09 3.67549e+09 3.67651e+09 3.67655e+09 0 1
258 2 1 3.68578e+09 3.68604e+09 3.68706e+09 3.68709e+09 0 0
259 2 1 3.69516e+09 3.69541e+09 3.69643e+09 3.69655e+09 1 0
