trial trialType response stillTime stimOnset stimOffset respTime correctionTrial correct
001 5 0 7.2315e+06 7.5485e+06 8.56764e+06 2.76615e+07 0 1
002 1 0 3.06739e+07 3.09481e+07 3.19673e+07 3.63798e+07 0 0
003 1 1 4.41784e+07 4.44638e+07 4.5483e+07 5.21893e+07 1 1
004 2 0 5.49151e+07 5.5176e+07 5.61951e+07 5.76202e+07 0 99
005 1 0 6.04467e+07 6.07193e+07 6.17385e+07 6.81163e+07 0 0
006 1 0 7.64641e+07 7.67348e+07 7.77539e+07 2.38189e+08 1 0
007 1 1 2.45591e+08 2.45858e+08 2.46877e+08 2.47087e+08 1 1
008 5 0 2.50065e+08 2.50337e+08 2.51356e+08 2.51512e+08 0 1
009 1 1 2.54268e+08 2.54522e+08 2.55541e+08 2.56479e+08 0 1
010 4 0 2.61319e+08 2.6159e+08 2.62609e+08 2.62628e+08 0 99
011 1 1 2.65649e+08 2.65918e+08 2.66937e+08 2.67765e+08 0 1
012 5 0 2.71946e+08 2.72218e+08 2.73237e+08 2.7353e+08 0 1
013 1 0 2.76564e+08 2.76813e+08 2.77832e+08 3.59775e+08 0 0
014 1 0 3.68013e+08 3.68269e+08 3.69288e+08 5.80792e+08 1 0
015 1 0 5.88155e+08 5.88421e+08 5.8944e+08 6.04156e+08 1 0
016 1 1 6.18e+08 6.1825e+08 6.19269e+08 6.19374e+08 1 1
017 1 1 6.4639e+08 6.46647e+08 6.47666e+08 6.47671e+08 0 1
018 5 0 6.76472e+08 6.76742e+08 6.77761e+08 6.77783e+08 0 1
019 5 0 6.97599e+08 6.9787e+08 6.98889e+08 6.98894e+08 0 1
020 5 0 7.02029e+08 7.02287e+08 7.03306e+08 7.03407e+08 0 1
021 1 0 7.46347e+08 7.46613e+08 7.47632e+08 7.47666e+08 0 0
022 1 1 7.55959e+08 7.56231e+08 7.5725e+08 7.57259e+08 1 1
023 1 1 7.76755e+08 7.77028e+08 7.78047e+08 7.78055e+08 0 1
024 2 1 7.93789e+08 7.94045e+08 7.95064e+08 7.97047e+08 0 99
025 5 0 8.01732e+08 8.01981e+08 8.03e+08 8.03008e+08 0 1
026 1 1 8.06773e+08 8.07036e+08 8.08055e+08 8.08089e+08 0 1
027 1 1 8.2409e+08 8.24338e+08 8.25357e+08 8.25371e+08 0 1
028 4 1 8.43693e+08 8.43952e+08 8.44972e+08 8.45178e+08 0 99
029 5 0 8.4981e+08 8.50077e+08 8.51096e+08 8.51102e+08 0 1
030 1 1 8.66939e+08 8.67188e+08 8.68207e+08 8.68213e+08 0 1
031 1 1 8.82045e+08 8.82302e+08 8.83321e+08 8.83365e+08 0 1
032 1 1 8.95567e+08 8.95826e+08 8.96845e+08 8.96849e+08 0 1
033 5 0 9.09515e+08 9.09781e+08 9.10801e+08 9.10807e+08 0 1
034 4 0 9.15272e+08 9.15542e+08 9.16562e+08 9.16577e+08 0 99
035 1 1 9.40746e+08 9.41002e+08 9.42021e+08 9.42028e+08 0 1
036 5 0 9.44991e+08 9.45259e+08 9.46278e+08 9.4641e+08 0 1
037 4 0 9.49091e+08 9.49352e+08 9.50371e+08 9.55996e+08 0 99
038 5 0 1.00228e+09 1.00254e+09 1.00356e+09 1.00358e+09 0 1
039 1 1 1.00726e+09 1.00753e+09 1.00855e+09 1.0086e+09 0 1
040 5 0 1.04126e+09 1.04152e+09 1.04254e+09 1.04265e+09 0 1
041 1 1 1.06936e+09 1.06963e+09 1.07064e+09 1.0715e+09 0 1
042 1 1 1.07415e+09 1.07441e+09 1.07543e+09 1.07549e+09 0 1
043 1 1 1.09211e+09 1.09238e+09 1.0934e+09 1.09344e+09 0 1
044 5 0 1.10797e+09 1.10823e+09 1.10925e+09 1.10925e+09 0 1
045 4 1 1.113e+09 1.11327e+09 1.11428e+09 1.11437e+09 0 99
046 1 1 1.12166e+09 1.12191e+09 1.12293e+09 1.12293e+09 0 1
047 1 0 1.15081e+09 1.15107e+09 1.15209e+09 1.15211e+09 0 0
048 1 1 1.16047e+09 1.16073e+09 1.16175e+09 1.16176e+09 1 1
049 4 0 1.18559e+09 1.18585e+09 1.18687e+09 1.18688e+09 0 99
050 2 0 1.18961e+09 1.18987e+09 1.19089e+09 1.19657e+09 0 99
051 1 1 1.20144e+09 1.2017e+09 1.20272e+09 1.20273e+09 0 1
052 5 0 1.21001e+09 1.21027e+09 1.21129e+09 1.21131e+09 0 1
053 1 1 1.22331e+09 1.22357e+09 1.22458e+09 1.22459e+09 0 1
054 5 0 1.2425e+09 1.24276e+09 1.24378e+09 1.24407e+09 0 1
055 1 1 1.2479e+09 1.24815e+09 1.24917e+09 1.24919e+09 0 1
056 5 0 1.26547e+09 1.26574e+09 1.26676e+09 1.26678e+09 0 1
057 5 0 1.26969e+09 1.26995e+09 1.27097e+09 1.27099e+09 0 1
058 3 0 1.27445e+09 1.27471e+09 1.27573e+09 1.28166e+09 0 99
059 5 0 1.29719e+09 1.29746e+09 1.29848e+09 1.29854e+09 0 1
060 2 0 1.32048e+09 1.32074e+09 1.32176e+09 1.32239e+09 0 99
061 1 1 1.32809e+09 1.32835e+09 1.32937e+09 1.32938e+09 0 1
062 5 0 1.34757e+09 1.34783e+09 1.34885e+09 1.34885e+09 0 1
063 1 1 1.35318e+09 1.35345e+09 1.35447e+09 1.35462e+09 0 1
064 1 1 1.37203e+09 1.3723e+09 1.37332e+09 1.37332e+09 0 1
065 4 0 1.38569e+09 1.38595e+09 1.38697e+09 1.39099e+09 0 99
066 2 0 1.40077e+09 1.40103e+09 1.40205e+09 1.40341e+09 0 99
067 5 0 1.41312e+09 1.41338e+09 1.4144e+09 1.41441e+09 0 1
068 5 0 1.4171e+09 1.41735e+09 1.41837e+09 1.4184e+09 0 1
069 3 1 1.42235e+09 1.42261e+09 1.42362e+09 1.42743e+09 0 99
070 1 1 1.42992e+09 1.43018e+09 1.4312e+09 1.43121e+09 0 1
071 1 1 1.44404e+09 1.4443e+09 1.44532e+09 1.44533e+09 0 1
072 5 0 1.46306e+09 1.46333e+09 1.46435e+09 1.46436e+09 0 1
073 3 0 1.46767e+09 1.46794e+09 1.46895e+09 1.47881e+09 0 99
074 4 0 1.49295e+09 1.49321e+09 1.49423e+09 1.50401e+09 0 99
075 2 0 1.51228e+09 1.51255e+09 1.51356e+09 1.51389e+09 0 99
076 5 0 1.51638e+09 1.51663e+09 1.51765e+09 1.51767e+09 0 1
077 5 1 1.52196e+09 1.52221e+09 1.52323e+09 1.52475e+09 0 0
078 5 0 1.5353e+09 1.53556e+09 1.53658e+09 1.53659e+09 1 1
079 5 0 1.53956e+09 1.53982e+09 1.54084e+09 1.54089e+09 0 1
080 5 0 1.55129e+09 1.55155e+09 1.55257e+09 1.55272e+09 0 1
081 5 0 1.55914e+09 1.55939e+09 1.56041e+09 1.56045e+09 0 1
082 5 0 1.57208e+09 1.57234e+09 1.57336e+09 1.57337e+09 0 1
083 3 0 1.58175e+09 1.58201e+09 1.58303e+09 1.58751e+09 0 99
084 3 0 1.59043e+09 1.59068e+09 1.5917e+09 1.59561e+09 0 99
085 5 0 1.59847e+09 1.59873e+09 1.59975e+09 1.59976e+09 0 1
086 1 1 1.60489e+09 1.60515e+09 1.60616e+09 1.60618e+09 0 1
087 5 0 1.62643e+09 1.62668e+09 1.6277e+09 1.62771e+09 0 1
088 5 1 1.63969e+09 1.63995e+09 1.64097e+09 1.64324e+09 0 0
089 5 0 1.66528e+09 1.66553e+09 1.66655e+09 1.66656e+09 1 1
090 2 0 1.67742e+09 1.67768e+09 1.67869e+09 1.68559e+09 0 99
091 1 1 1.68855e+09 1.68881e+09 1.68983e+09 1.68994e+09 0 1
092 5 0 1.71552e+09 1.7158e+09 1.71682e+09 1.71683e+09 0 1
093 1 1 1.73252e+09 1.73278e+09 1.7338e+09 1.73386e+09 0 1
094 1 1 1.74677e+09 1.74705e+09 1.74806e+09 1.74808e+09 0 1
095 3 0 1.758e+09 1.75826e+09 1.75927e+09 1.75958e+09 0 99
096 5 0 1.7629e+09 1.76316e+09 1.76418e+09 1.76419e+09 0 1
097 1 1 1.76714e+09 1.7674e+09 1.76842e+09 1.76844e+09 0 1
098 1 1 1.78388e+09 1.78413e+09 1.78515e+09 1.78516e+09 0 1
099 1 1 1.8016e+09 1.80188e+09 1.8029e+09 1.8029e+09 0 1
100 2 0 1.81749e+09 1.81774e+09 1.81876e+09 1.82024e+09 0 99
101 5 0 1.82776e+09 1.82803e+09 1.82905e+09 1.82906e+09 0 1
102 5 1 1.83166e+09 1.83193e+09 1.83295e+09 1.83306e+09 0 0
103 5 0 1.8405e+09 1.84075e+09 1.84177e+09 1.84178e+09 1 1
104 5 0 1.84543e+09 1.84569e+09 1.84671e+09 1.84671e+09 0 1
105 3 0 1.86471e+09 1.86497e+09 1.86599e+09 1.86787e+09 0 99
106 1 1 1.87266e+09 1.87292e+09 1.87394e+09 1.87395e+09 0 1
107 5 0 1.91043e+09 1.91068e+09 1.9117e+09 1.91171e+09 0 1
108 1 1 1.91792e+09 1.91818e+09 1.9192e+09 1.91921e+09 0 1
109 5 0 1.96236e+09 1.96262e+09 1.96364e+09 1.96364e+09 0 1
110 1 1 1.96659e+09 1.96686e+09 1.96788e+09 1.96789e+09 0 1
111 3 1 1.99683e+09 1.99708e+09 1.9981e+09 1.99933e+09 0 99
112 5 0 2.00232e+09 2.00258e+09 2.0036e+09 2.00361e+09 0 1
113 1 1 2.00795e+09 2.00821e+09 2.00923e+09 2.00924e+09 0 1
114 1 1 2.01203e+09 2.0123e+09 2.01332e+09 2.01354e+09 0 1
115 2 1 2.03198e+09 2.03225e+09 2.03327e+09 2.03791e+09 0 99
116 5 0 2.0405e+09 2.04075e+09 2.04177e+09 2.04177e+09 0 1
117 3 0 2.05122e+09 2.05148e+09 2.0525e+09 2.05748e+09 0 99
118 5 0 2.06924e+09 2.06949e+09 2.07051e+09 2.07052e+09 0 1
119 5 0 2.07401e+09 2.07427e+09 2.07529e+09 2.0753e+09 0 1
120 1 1 2.08491e+09 2.08516e+09 2.08618e+09 2.08619e+09 0 1
121 1 1 2.10445e+09 2.1047e+09 2.10572e+09 2.10574e+09 0 1
122 5 0 2.12213e+09 2.1224e+09 2.12342e+09 2.12343e+09 0 1
123 1 1 2.13511e+09 2.13539e+09 2.13641e+09 2.13645e+09 0 1
124 1 1 2.15177e+09 2.15203e+09 2.15305e+09 2.15306e+09 0 1
125 2 0 2.15608e+09 2.15634e+09 2.15736e+09 2.15829e+09 0 99
126 1 1 2.16091e+09 2.1612e+09 2.16222e+09 2.16224e+09 0 1
127 2 0 2.17446e+09 2.17473e+09 2.17575e+09 2.17905e+09 0 99
128 1 1 2.18199e+09 2.18225e+09 2.18327e+09 2.18328e+09 0 1
129 5 0 2.19807e+09 2.19833e+09 2.19935e+09 2.19936e+09 0 1
130 1 1 2.21458e+09 2.21484e+09 2.21585e+09 2.21586e+09 0 1
131 1 1 2.22879e+09 2.22906e+09 2.23008e+09 2.23009e+09 0 1
132 5 0 2.25119e+09 2.25145e+09 2.25247e+09 2.25249e+09 0 1
133 5 0 2.26151e+09 2.26177e+09 2.26279e+09 2.2628e+09 0 1
134 1 1 2.2676e+09 2.26787e+09 2.26889e+09 2.26891e+09 0 1
135 4 0 2.28401e+09 2.28428e+09 2.2853e+09 2.28606e+09 0 99
136 2 0 2.2929e+09 2.29316e+09 2.29418e+09 2.29539e+09 0 99
137 1 1 2.30058e+09 2.30083e+09 2.30185e+09 2.30187e+09 0 1
138 1 1 2.31728e+09 2.31753e+09 2.31855e+09 2.31855e+09 0 1
139 1 1 2.33465e+09 2.33492e+09 2.33594e+09 2.33595e+09 0 1
140 5 0 2.3386e+09 2.33887e+09 2.33989e+09 2.3399e+09 0 1
141 4 1 2.34315e+09 2.34342e+09 2.34444e+09 2.34876e+09 0 99
142 1 1 2.35172e+09 2.35199e+09 2.35301e+09 2.35301e+09 0 1
143 5 0 2.35669e+09 2.35695e+09 2.35796e+09 2.36125e+09 0 1
144 3 0 2.36433e+09 2.3646e+09 2.36562e+09 2.37262e+09 0 99
145 1 1 2.38163e+09 2.3819e+09 2.38292e+09 2.38293e+09 0 1
146 5 0 2.39111e+09 2.39138e+09 2.3924e+09 2.3924e+09 0 1
147 4 0 2.39511e+09 2.39537e+09 2.39639e+09 2.40947e+09 0 99
148 5 0 2.41374e+09 2.41401e+09 2.41503e+09 2.41504e+09 0 1
149 5 0 2.426e+09 2.42626e+09 2.42728e+09 2.42762e+09 0 1
150 5 1 2.43052e+09 2.43077e+09 2.43179e+09 2.43295e+09 0 0
151 5 0 2.45024e+09 2.4505e+09 2.45152e+09 2.45153e+09 1 1
152 1 1 2.46408e+09 2.46433e+09 2.46535e+09 2.46539e+09 0 1
153 5 0 2.48362e+09 2.48389e+09 2.48491e+09 2.48492e+09 0 1
154 3 0 2.48973e+09 2.48999e+09 2.49101e+09 2.50294e+09 0 99
155 4 0 2.51149e+09 2.51174e+09 2.51276e+09 2.51277e+09 0 99
156 5 0 2.51555e+09 2.5158e+09 2.51682e+09 2.51682e+09 0 1
157 1 1 2.52077e+09 2.52103e+09 2.52205e+09 2.52206e+09 0 1
158 1 1 2.53561e+09 2.53587e+09 2.53689e+09 2.5369e+09 0 1
159 1 1 2.55671e+09 2.55698e+09 2.558e+09 2.55801e+09 0 1
160 1 1 2.56684e+09 2.56709e+09 2.56811e+09 2.56812e+09 0 1
161 4 0 2.58739e+09 2.58765e+09 2.58867e+09 2.59804e+09 0 99
162 5 0 2.60336e+09 2.60361e+09 2.60463e+09 2.60481e+09 0 1
163 1 1 2.60794e+09 2.6082e+09 2.60922e+09 2.60923e+09 0 1
164 3 0 2.62755e+09 2.6278e+09 2.62882e+09 2.62889e+09 0 99
165 3 0 2.63425e+09 2.6345e+09 2.63552e+09 2.64405e+09 0 99
166 5 0 2.64709e+09 2.64735e+09 2.64837e+09 2.64838e+09 0 1
167 5 0 2.65124e+09 2.65151e+09 2.65253e+09 2.65254e+09 0 1
168 5 0 2.65701e+09 2.65727e+09 2.65829e+09 2.6583e+09 0 1
169 1 1 2.66877e+09 2.66903e+09 2.67005e+09 2.67006e+09 0 1
170 5 0 2.67819e+09 2.67846e+09 2.67947e+09 2.67948e+09 0 1
171 4 1 2.68233e+09 2.68258e+09 2.6836e+09 2.6946e+09 0 99
172 3 0 2.70624e+09 2.7065e+09 2.70752e+09 2.71269e+09 0 99
173 5 0 2.7162e+09 2.71646e+09 2.71748e+09 2.71748e+09 0 1
174 5 1 2.72128e+09 2.72153e+09 2.72255e+09 2.72316e+09 0 0
175 5 0 2.73053e+09 2.73079e+09 2.7318e+09 2.73225e+09 1 1
176 1 1 2.73521e+09 2.73546e+09 2.73648e+09 2.73651e+09 0 1
177 4 0 2.74599e+09 2.74625e+09 2.74727e+09 2.74732e+09 0 99
178 1 1 2.75465e+09 2.7549e+09 2.75592e+09 2.75593e+09 0 1
179 1 1 2.77712e+09 2.77737e+09 2.77838e+09 2.7784e+09 0 1
180 5 0 2.78604e+09 2.7863e+09 2.78732e+09 2.78733e+09 0 1
181 5 0 2.80322e+09 2.80349e+09 2.80451e+09 2.80453e+09 0 1
182 5 0 2.80877e+09 2.80903e+09 2.81005e+09 2.81006e+09 0 1
183 1 1 2.81428e+09 2.81457e+09 2.81559e+09 2.8156e+09 0 1
184 1 1 2.82585e+09 2.82611e+09 2.82713e+09 2.82714e+09 0 1
185 1 1 2.8306e+09 2.83086e+09 2.83188e+09 2.83189e+09 0 1
186 5 0 2.84387e+09 2.84415e+09 2.84517e+09 2.84517e+09 0 1
187 1 1 2.84824e+09 2.8485e+09 2.84952e+09 2.84952e+09 0 1
188 5 0 2.86296e+09 2.86321e+09 2.86423e+09 2.86427e+09 0 1
189 2 0 2.86894e+09 2.8692e+09 2.87022e+09 2.87392e+09 0 99
190 1 1 2.88514e+09 2.8854e+09 2.88641e+09 2.88642e+09 0 1
191 5 0 2.89026e+09 2.89051e+09 2.89153e+09 2.89153e+09 0 1
192 1 1 2.89648e+09 2.89675e+09 2.89776e+09 2.89779e+09 0 1
193 1 1 2.90717e+09 2.90744e+09 2.90846e+09 2.90846e+09 0 1
194 5 0 2.93339e+09 2.93364e+09 2.93466e+09 2.93467e+09 0 1
195 3 0 2.94085e+09 2.94112e+09 2.94214e+09 2.94717e+09 0 99
196 2 0 2.95012e+09 2.95038e+09 2.9514e+09 2.96107e+09 0 99
197 1 1 2.97358e+09 2.97385e+09 2.97486e+09 2.97487e+09 0 1
198 5 0 2.99152e+09 2.99178e+09 2.99279e+09 2.9928e+09 0 1
199 5 0 3.001e+09 3.00126e+09 3.00228e+09 3.00228e+09 0 1
200 5 0 3.00759e+09 3.00785e+09 3.00887e+09 3.00888e+09 0 1
201 5 0 3.01213e+09 3.0124e+09 3.01342e+09 3.01343e+09 0 1
202 5 0 3.01752e+09 3.01777e+09 3.01879e+09 3.01879e+09 0 1
203 4 0 3.02342e+09 3.02369e+09 3.02471e+09 3.02471e+09 0 99
204 1 1 3.02945e+09 3.02971e+09 3.03073e+09 3.03076e+09 0 1
205 5 0 3.05264e+09 3.0529e+09 3.05392e+09 3.05392e+09 0 1
206 5 0 3.06034e+09 3.0606e+09 3.06162e+09 3.06188e+09 0 1
207 1 1 3.06649e+09 3.06675e+09 3.06777e+09 3.06777e+09 0 1
208 1 1 3.07482e+09 3.07508e+09 3.0761e+09 3.07611e+09 0 1
209 3 0 3.09676e+09 3.09702e+09 3.09803e+09 3.11082e+09 0 99
210 2 0 3.11399e+09 3.11425e+09 3.11527e+09 3.11552e+09 0 99
211 5 0 3.12215e+09 3.12241e+09 3.12343e+09 3.12343e+09 0 1
212 1 1 3.12657e+09 3.12682e+09 3.12784e+09 3.12785e+09 0 1
213 2 0 3.13254e+09 3.13281e+09 3.13383e+09 3.13768e+09 0 99
214 1 1 3.14327e+09 3.14353e+09 3.14455e+09 3.14456e+09 0 1
215 1 1 3.14944e+09 3.14969e+09 3.15071e+09 3.15074e+09 0 1
216 1 1 3.15638e+09 3.15663e+09 3.15765e+09 3.15773e+09 0 1
217 5 0 3.1659e+09 3.16616e+09 3.16718e+09 3.16718e+09 0 1
218 1 1 3.17465e+09 3.1749e+09 3.17592e+09 3.17593e+09 0 1
219 1 1 3.17883e+09 3.17909e+09 3.18011e+09 3.18015e+09 0 1
220 1 1 3.18328e+09 3.18354e+09 3.18456e+09 3.18462e+09 0 1
221 1 1 3.19441e+09 3.19466e+09 3.19568e+09 3.19569e+09 0 1
222 1 0 3.20632e+09 3.20657e+09 3.20759e+09 3.20763e+09 0 0
223 1 1 3.22649e+09 3.22675e+09 3.22777e+09 3.22777e+09 1 1
224 5 0 3.23727e+09 3.23753e+09 3.23854e+09 3.23855e+09 0 1
225 1 1 3.24375e+09 3.24402e+09 3.24503e+09 3.24504e+09 0 1
226 3 0 3.26918e+09 3.26944e+09 3.27046e+09 3.27175e+09 0 99
227 5 0 3.27475e+09 3.275e+09 3.27602e+09 3.27603e+09 0 1
228 2 0 3.28254e+09 3.28279e+09 3.28381e+09 3.29312e+09 0 99
229 5 0 3.29658e+09 3.29684e+09 3.29786e+09 3.29787e+09 0 1
230 5 0 3.30091e+09 3.30117e+09 3.30219e+09 3.30222e+09 0 1
231 5 0 3.3056e+09 3.30586e+09 3.30688e+09 3.30699e+09 0 1
232 5 1 3.31353e+09 3.31379e+09 3.31481e+09 3.31962e+09 0 0
233 5 0 3.3267e+09 3.32695e+09 3.32797e+09 3.32798e+09 1 1
234 4 0 3.33563e+09 3.3359e+09 3.33691e+09 3.33713e+09 0 99
235 4 0 3.34287e+09 3.34312e+09 3.34414e+09 3.34693e+09 0 99
236 1 1 3.35493e+09 3.35519e+09 3.35621e+09 3.35621e+09 0 1
237 1 1 3.37444e+09 3.37469e+09 3.37571e+09 3.37572e+09 0 1
238 1 1 3.39455e+09 3.39482e+09 3.39584e+09 3.39585e+09 0 1
239 5 0 3.4105e+09 3.41075e+09 3.41177e+09 3.41178e+09 0 1
240 4 0 3.42428e+09 3.42454e+09 3.42556e+09 3.42567e+09 0 99
241 1 1 3.42907e+09 3.42933e+09 3.43035e+09 3.43035e+09 0 1
242 5 0 3.44529e+09 3.44554e+09 3.44656e+09 3.44657e+09 0 1
243 1 1 3.44981e+09 3.45007e+09 3.45109e+09 3.45112e+09 0 1
244 3 0 3.47674e+09 3.477e+09 3.47802e+09 3.48789e+09 0 99
245 1 1 3.49114e+09 3.4914e+09 3.49242e+09 3.49243e+09 0 1
246 1 1 3.50063e+09 3.50089e+09 3.50191e+09 3.50195e+09 0 1
247 2 0 3.50877e+09 3.50902e+09 3.51004e+09 3.51258e+09 0 99
248 2 0 3.52132e+09 3.52158e+09 3.5226e+09 3.52372e+09 0 99
249 1 1 3.52708e+09 3.52733e+09 3.52835e+09 3.52836e+09 0 1
250 1 1 3.54804e+09 3.54829e+09 3.54931e+09 3.54935e+09 0 1
251 5 0 3.56239e+09 3.56266e+09 3.56367e+09 3.56369e+09 0 1
252 5 0 3.56706e+09 3.56731e+09 3.56833e+09 3.56834e+09 0 1
253 5 0 3.57134e+09 3.5716e+09 3.57262e+09 3.57263e+09 0 1
254 5 0 3.5817e+09 3.58195e+09 3.58297e+09 3.58298e+09 0 1
255 1 1 3.58612e+09 3.58638e+09 3.5874e+09 3.58746e+09 0 1
256 1 1 3.5916e+09 3.59186e+09 3.59288e+09 3.59289e+09 0 1
257 2 0 3.60512e+09 3.60538e+09 3.6064e+09 3.62766e+09 0 99
258 1 1 3.63105e+09 3.63131e+09 3.63233e+09 3.63234e+09 0 1
259 3 0 3.64178e+09 3.64204e+09 3.64306e+09 3.64821e+09 0 99
260 3 0 3.65142e+09 3.65169e+09 3.65271e+09 3.67171e+09 0 99
261 5 0 3.67601e+09 3.67627e+09 3.67729e+09 3.6773e+09 0 1
262 5 0 3.68103e+09 3.68128e+09 3.6823e+09 3.6823e+09 0 1
263 5 0 3.68554e+09 3.68579e+09 3.68681e+09 3.68682e+09 0 1
264 1 1 3.69156e+09 3.69182e+09 3.69283e+09 3.69285e+09 0 1
265 4 0 3.71365e+09 3.71392e+09 3.71494e+09 3.71586e+09 0 99
266 1 1 3.71936e+09 3.71961e+09 3.72063e+09 3.72064e+09 0 1
267 5 0 3.72441e+09 3.72466e+09 3.72568e+09 3.72569e+09 0 1
268 5 0 3.72979e+09 3.73006e+09 3.73108e+09 3.73124e+09 0 1
269 5 0 3.73637e+09 3.73663e+09 3.73765e+09 3.73766e+09 0 1
270 1 1 3.74319e+09 3.74344e+09 3.74446e+09 3.7445e+09 0 1
271 3 0 3.75707e+09 3.75732e+09 3.75834e+09 3.76428e+09 0 99
272 5 0 3.76869e+09 3.76894e+09 3.76996e+09 3.76998e+09 0 1
273 1 0 3.7801e+09 3.78036e+09 3.78137e+09 3.78146e+09 0 0
274 1 1 3.79219e+09 3.79245e+09 3.79347e+09 3.79348e+09 1 1
275 4 0 3.80812e+09 3.80839e+09 3.80941e+09 3.85846e+09 0 99
276 5 0 3.86197e+09 3.86223e+09 3.86325e+09 3.86326e+09 0 1
277 5 0 3.86841e+09 3.86866e+09 3.86968e+09 3.86976e+09 0 1
278 1 1 3.87622e+09 3.87647e+09 3.87749e+09 3.87759e+09 0 1
279 5 0 3.8894e+09 3.88966e+09 3.89068e+09 3.89073e+09 0 1
280 5 0 3.89502e+09 3.89528e+09 3.8963e+09 3.89631e+09 0 1
281 2 1 3.90153e+09 3.90178e+09 3.9028e+09 3.90554e+09 0 99
282 5 0 3.90891e+09 3.90916e+09 3.91018e+09 3.91021e+09 0 1
283 1 1 3.91356e+09 3.91382e+09 3.91484e+09 3.91485e+09 0 1
284 1 1 3.9256e+09 3.92587e+09 3.92689e+09 3.92691e+09 0 1
285 1 1 3.93925e+09 3.93951e+09 3.94053e+09 3.94054e+09 0 1
286 1 1 3.94533e+09 3.94559e+09 3.94661e+09 3.94662e+09 0 1
287 2 0 3.96025e+09 3.96051e+09 3.96153e+09 3.96483e+09 0 99
288 1 1 3.96803e+09 3.9683e+09 3.96932e+09 3.96933e+09 0 1
289 5 0 3.98181e+09 3.98207e+09 3.98309e+09 3.98309e+09 0 1
290 5 0 3.99548e+09 3.99574e+09 3.99676e+09 3.99677e+09 0 1
291 5 0 4.01151e+09 4.01176e+09 4.01278e+09 4.0128e+09 0 1
292 5 0 4.02789e+09 4.02814e+09 4.02916e+09 4.02917e+09 0 1
293 1 1 4.03501e+09 4.03526e+09 4.03628e+09 4.03629e+09 0 1
294 1 1 4.04978e+09 4.05004e+09 4.05106e+09 4.05106e+09 0 1
295 1 1 4.05899e+09 4.05927e+09 4.06029e+09 4.06029e+09 0 1
296 5 0 4.07537e+09 4.07562e+09 4.07664e+09 4.07666e+09 0 1
297 1 1 4.09583e+09 4.09608e+09 4.0971e+09 4.0971e+09 0 1
298 5 0 4.11512e+09 4.11537e+09 4.11639e+09 4.1164e+09 0 1
299 4 1 4.1385e+09 4.13875e+09 4.13977e+09 4.1685e+09 0 99
300 1 1 4.17207e+09 4.17233e+09 4.17334e+09 4.17336e+09 0 1
301 1 1 4.18111e+09 4.18136e+09 4.18238e+09 4.1824e+09 0 1
302 5 0 4.18792e+09 4.18818e+09 4.1892e+09 4.18926e+09 0 1
303 5 0 4.19428e+09 4.19454e+09 4.19556e+09 4.19557e+09 0 1
304 4 0 4.20305e+09 4.2033e+09 4.20432e+09 4.20435e+09 0 99
305 3 0 4.20979e+09 4.21005e+09 4.21107e+09 4.21518e+09 0 99
306 5 0 4.21861e+09 4.21886e+09 4.21988e+09 4.21994e+09 0 1
307 3 0 4.22429e+09 4.22456e+09 4.22558e+09 4.23358e+09 0 99
308 5 0 4.23796e+09 4.23821e+09 4.23923e+09 4.23929e+09 0 1
309 5 0 4.24387e+09 4.24412e+09 4.24514e+09 4.24516e+09 0 1
310 5 0 4.25672e+09 4.25698e+09 4.258e+09 4.25801e+09 0 1
311 5 0 4.26936e+09 4.26963e+09 4.27064e+09 4.27065e+09 0 1
312 2 0 4.27712e+09 4.27738e+09 4.2784e+09 4.28102e+09 0 99
313 3 0 4.28432e+09 4.28457e+09 4.28559e+09 2.06897e+07 0 99
314 1 1 2.44746e+07 2.47372e+07 2.57563e+07 2.57626e+07 0 1
315 2 0 4.05289e+07 4.07788e+07 4.1798e+07 6.33134e+07 0 99
316 4 0 6.87831e+07 6.90388e+07 7.0058e+07 7.02232e+07 0 99
317 5 0 7.73008e+07 7.75569e+07 7.8576e+07 7.85842e+07 0 1
318 5 0 8.18217e+07 8.2082e+07 8.31012e+07 8.31079e+07 0 1
319 4 1 8.63591e+07 8.66231e+07 8.76422e+07 9.40696e+07 0 99
320 1 1 9.84822e+07 9.87419e+07 9.97611e+07 9.97676e+07 0 1
321 1 1 1.04362e+08 1.04625e+08 1.05644e+08 1.05651e+08 0 1
322 1 1 1.18366e+08 1.1862e+08 1.19639e+08 1.19647e+08 0 1
323 5 0 1.3048e+08 1.30734e+08 1.31753e+08 1.31758e+08 0 1
324 1 1 1.38417e+08 1.38668e+08 1.39687e+08 1.39691e+08 0 1
325 3 0 1.47671e+08 1.47921e+08 1.4894e+08 1.49734e+08 0 99
326 1 1 1.53198e+08 1.53457e+08 1.54476e+08 1.54481e+08 0 1
327 5 0 1.63341e+08 1.63591e+08 1.6461e+08 1.64614e+08 0 1
328 5 0 1.67913e+08 1.68175e+08 1.69194e+08 1.69199e+08 0 1
329 5 0 1.7466e+08 1.74917e+08 1.75936e+08 2.06783e+08 0 1
330 5 0 2.19935e+08 2.20199e+08 2.21219e+08 2.21229e+08 0 1
331 1 1 2.26726e+08 2.26989e+08 2.28009e+08 2.28016e+08 0 1
332 2 0 2.41865e+08 2.42114e+08 2.43134e+08 2.43583e+08 0 99
333 1 1 2.52036e+08 2.52298e+08 2.53317e+08 2.53344e+08 0 1
334 1 1 2.63863e+08 2.64121e+08 2.6514e+08 2.65147e+08 0 1
335 1 1 2.76085e+08 2.76336e+08 2.77355e+08 2.77396e+08 0 1
336 1 1 2.8545e+08 2.85699e+08 2.86718e+08 2.86723e+08 0 1
337 4 0 2.98231e+08 2.98483e+08 2.99502e+08 3.24165e+08 0 99
338 5 0 3.27755e+08 3.28005e+08 3.29025e+08 3.29031e+08 0 1
339 3 0 3.35726e+08 3.3599e+08 3.37009e+08 3.37826e+08 0 99
340 5 0 3.42896e+08 3.43148e+08 3.44167e+08 3.44174e+08 0 1
341 2 0 3.52293e+08 3.52543e+08 3.53562e+08 4.23005e+08 0 99
342 1 1 4.26441e+08 4.26702e+08 4.27721e+08 4.27733e+08 0 1
343 5 0 4.34798e+08 4.35061e+08 4.3608e+08 4.36091e+08 0 1
344 1 1 4.39907e+08 4.40175e+08 4.41194e+08 4.41243e+08 0 1
345 1 1 4.54419e+08 4.5467e+08 4.55689e+08 4.55703e+08 0 1
346 1 1 4.5932e+08 4.59578e+08 4.60597e+08 4.60603e+08 0 1
347 1 1 4.69438e+08 4.69689e+08 4.70708e+08 4.70773e+08 0 1
348 5 0 4.76927e+08 4.77189e+08 4.78208e+08 4.78221e+08 0 1
349 5 0 4.82925e+08 4.83172e+08 4.84191e+08 4.84213e+08 0 1
