trial trialType response stillTime stimOnset stimOffset respTime correctionTrial correct
001 2 0 1.9753e+07 2.0049e+07 2.10682e+07 2.10863e+07 0 1
002 2 0 3.50177e+07 3.52935e+07 3.63127e+07 3.63702e+07 0 1
003 2 0 5.71832e+07 5.74633e+07 5.84824e+07 5.85403e+07 0 1
004 1 0 6.88138e+07 6.90727e+07 7.00918e+07 7.03399e+07 0 0
005 1 0 8.4906e+07 8.51519e+07 8.6171e+07 8.61985e+07 1 0
006 1 0 9.91089e+07 9.93585e+07 1.00378e+08 1.00446e+08 1 0
007 1 1 1.08585e+08 1.08832e+08 1.09852e+08 1.0998e+08 1 1
008 1 0 1.19551e+08 1.19797e+08 1.20816e+08 1.21029e+08 0 0
009 1 1 1.28745e+08 1.28999e+08 1.30018e+08 1.30189e+08 1 1
010 2 0 1.44166e+08 1.44411e+08 1.45431e+08 1.45624e+08 0 1
011 2 0 1.62598e+08 1.62844e+08 1.63863e+08 1.64205e+08 0 1
012 1 1 1.76936e+08 1.77181e+08 1.782e+08 1.78234e+08 0 1
013 2 1 1.83429e+08 1.83675e+08 1.84694e+08 1.84923e+08 0 0
014 2 0 1.92e+08 1.92245e+08 1.93265e+08 1.9362e+08 1 1
015 1 0 2.11185e+08 2.11451e+08 2.1247e+08 2.1311e+08 0 0
016 1 0 2.20589e+08 2.2085e+08 2.21869e+08 2.22682e+08 1 0
017 1 1 2.32078e+08 2.32322e+08 2.33341e+08 2.33415e+08 1 1
018 1 1 2.64356e+08 2.64605e+08 2.65624e+08 2.65645e+08 0 1
019 1 1 2.78734e+08 2.78985e+08 2.80004e+08 2.80211e+08 0 1
020 1 1 2.84866e+08 2.85117e+08 2.86136e+08 2.87169e+08 0 1
021 1 0 2.96978e+08 2.97235e+08 2.98254e+08 2.98795e+08 0 0
022 1 1 3.07036e+08 3.07284e+08 3.08304e+08 3.08394e+08 1 1
023 2 1 3.13427e+08 3.13675e+08 3.14694e+08 3.14842e+08 0 0
024 2 0 3.26755e+08 3.27014e+08 3.28033e+08 3.28111e+08 1 1
025 1 1 3.31363e+08 3.31607e+08 3.32626e+08 3.38507e+08 0 1
026 2 0 3.42032e+08 3.42283e+08 3.43302e+08 3.43928e+08 0 1
027 1 0 3.48332e+08 3.48585e+08 3.49604e+08 3.50221e+08 0 0
028 1 0 3.59714e+08 3.59972e+08 3.60991e+08 3.6155e+08 1 0
029 1 0 3.70636e+08 3.70897e+08 3.71916e+08 3.72352e+08 1 0
030 1 1 3.82601e+08 3.82853e+08 3.83872e+08 3.84357e+08 1 1
031 2 0 3.87118e+08 3.87376e+08 3.88395e+08 3.89141e+08 0 1
032 1 0 3.98992e+08 3.99239e+08 4.00259e+08 4.00581e+08 0 0
033 1 1 4.11469e+08 4.11722e+08 4.12741e+08 4.13267e+08 1 1
034 2 1 4.36762e+08 4.37015e+08 4.38034e+08 4.38084e+08 0 0
035 2 1 4.46476e+08 4.46725e+08 4.47744e+08 4.47874e+08 1 0
036 2 0 4.55043e+08 4.55291e+08 4.5631e+08 4.56596e+08 1 1
037 2 1 4.98765e+08 4.99016e+08 5.00035e+08 5.00233e+08 0 0
038 2 1 5.07978e+08 5.08243e+08 5.09262e+08 5.09337e+08 1 0
039 2 0 5.16888e+08 5.17135e+08 5.18154e+08 5.1818e+08 1 1
040 1 0 5.30778e+08 5.31026e+08 5.32046e+08 5.32326e+08 0 0
041 1 0 5.39835e+08 5.40089e+08 5.41108e+08 5.4161e+08 1 0
042 1 1 5.5034e+08 5.50595e+08 5.51614e+08 5.52359e+08 1 1
043 2 0 5.56198e+08 5.5646e+08 5.57479e+08 5.58496e+08 0 1
044 2 0 5.76347e+08 5.76603e+08 5.77622e+08 5.77667e+08 0 1
045 2 0 5.9649e+08 5.96739e+08 5.97759e+08 5.98509e+08 0 1
046 2 0 6.15072e+08 6.15316e+08 6.16336e+08 6.16353e+08 0 1
047 1 0 6.31976e+08 6.3223e+08 6.33249e+08 6.33288e+08 0 0
048 1 1 6.40885e+08 6.41137e+08 6.42156e+08 6.42198e+08 1 1
049 2 0 6.46622e+08 6.46876e+08 6.47895e+08 6.48153e+08 0 1
050 2 0 6.62362e+08 6.62623e+08 6.63642e+08 6.63733e+08 0 1
051 1 1 6.6622e+08 6.66473e+08 6.67492e+08 6.71419e+08 0 1
052 1 1 6.83334e+08 6.83591e+08 6.8461e+08 6.85095e+08 0 1
053 2 0 6.89057e+08 6.89313e+08 6.90332e+08 6.90352e+08 0 1
054 1 1 7.11366e+08 7.11627e+08 7.12646e+08 7.12726e+08 0 1
055 2 0 7.16061e+08 7.16305e+08 7.17324e+08 7.17388e+08 0 1
056 2 0 7.35855e+08 7.36119e+08 7.37138e+08 7.37189e+08 0 1
057 2 0 7.42027e+08 7.42275e+08 7.43294e+08 7.4338e+08 0 1
058 1 1 7.67716e+08 7.67982e+08 7.69001e+08 7.69261e+08 0 1
059 1 0 7.8209e+08 7.82335e+08 7.83354e+08 7.8365e+08 0 0
060 1 1 7.9132e+08 7.91579e+08 7.92598e+08 7.92631e+08 1 1
061 1 1 7.96332e+08 7.96592e+08 7.97612e+08 8.01215e+08 0 1
062 2 0 8.03966e+08 8.04213e+08 8.05232e+08 8.05345e+08 0 1
063 2 0 8.2247e+08 8.22721e+08 8.2374e+08 8.23789e+08 0 1
064 2 1 8.3776e+08 8.38012e+08 8.39031e+08 8.40532e+08 0 0
065 2 0 8.53427e+08 8.53691e+08 8.5471e+08 8.54726e+08 1 1
066 2 1 8.68545e+08 8.68797e+08 8.69817e+08 8.71871e+08 0 0
067 2 1 8.8876e+08 8.89018e+08 8.90037e+08 8.91777e+08 1 0
068 2 0 9.02521e+08 9.02773e+08 9.03792e+08 9.03931e+08 1 1
069 2 0 9.13992e+08 9.14248e+08 9.15267e+08 9.15399e+08 0 1
070 1 1 9.25919e+08 9.2618e+08 9.27199e+08 9.27215e+08 0 1
071 2 0 9.4338e+08 9.43635e+08 9.44654e+08 9.44667e+08 0 1
072 2 0 9.62931e+08 9.63185e+08 9.64204e+08 9.64228e+08 0 1
073 1 1 9.79906e+08 9.80162e+08 9.81181e+08 9.81245e+08 0 1
074 1 1 9.91104e+08 9.91362e+08 9.92381e+08 9.92539e+08 0 1
075 1 1 1.00845e+09 1.0087e+09 1.00972e+09 1.01029e+09 0 1
076 1 0 1.03233e+09 1.03258e+09 1.0336e+09 1.03372e+09 0 0
077 1 1 1.04447e+09 1.04471e+09 1.04573e+09 1.04577e+09 1 1
078 1 0 1.05171e+09 1.05196e+09 1.05298e+09 1.05339e+09 0 0
079 1 0 1.06982e+09 1.07007e+09 1.07109e+09 1.07131e+09 1 0
080 1 1 1.08066e+09 1.08091e+09 1.08193e+09 1.08396e+09 1 1
081 1 1 1.09907e+09 1.09932e+09 1.10033e+09 1.10037e+09 0 1
082 2 0 1.10763e+09 1.10788e+09 1.1089e+09 1.10899e+09 0 1
083 2 1 1.11159e+09 1.11184e+09 1.11285e+09 1.11639e+09 0 0
084 2 1 1.13168e+09 1.13194e+09 1.13296e+09 1.13837e+09 1 0
085 2 1 1.14631e+09 1.14657e+09 1.14759e+09 1.14806e+09 1 0
086 2 1 1.1553e+09 1.15555e+09 1.15656e+09 1.157e+09 1 0
087 2 0 1.16544e+09 1.1657e+09 1.16672e+09 1.16679e+09 0 1
088 1 1 1.20693e+09 1.20719e+09 1.20821e+09 1.20824e+09 0 1
089 1 1 1.22166e+09 1.22192e+09 1.22294e+09 1.22324e+09 0 1
090 1 0 1.23933e+09 1.23958e+09 1.2406e+09 1.24094e+09 0 0
091 1 1 1.25206e+09 1.25232e+09 1.25333e+09 1.25334e+09 1 1
092 2 0 1.2608e+09 1.26104e+09 1.26206e+09 1.2627e+09 0 1
093 2 1 1.26624e+09 1.26651e+09 1.26753e+09 1.27135e+09 0 0
094 2 0 1.27876e+09 1.27901e+09 1.28003e+09 1.28006e+09 1 1
095 1 1 1.28645e+09 1.2867e+09 1.28772e+09 1.28782e+09 0 1
096 1 0 1.29715e+09 1.2974e+09 1.29842e+09 1.29863e+09 0 0
097 1 1 1.30653e+09 1.30678e+09 1.3078e+09 1.30787e+09 1 1
098 1 1 1.32553e+09 1.32581e+09 1.32683e+09 1.32687e+09 0 1
099 2 0 1.33711e+09 1.33737e+09 1.33839e+09 1.3384e+09 0 1
100 2 0 1.34102e+09 1.34128e+09 1.3423e+09 1.34646e+09 0 1
101 1 1 1.36449e+09 1.36474e+09 1.36576e+09 1.36599e+09 0 1
102 1 0 1.3733e+09 1.37356e+09 1.37458e+09 1.37475e+09 0 0
103 1 1 1.38391e+09 1.38417e+09 1.38518e+09 1.38571e+09 1 1
104 2 0 1.39141e+09 1.39165e+09 1.39267e+09 1.39272e+09 0 1
105 2 0 1.40775e+09 1.40801e+09 1.40903e+09 1.40907e+09 0 1
106 2 0 1.41314e+09 1.41339e+09 1.41441e+09 1.41689e+09 0 1
107 1 1 1.42933e+09 1.42958e+09 1.4306e+09 1.43061e+09 0 1
108 1 1 1.43362e+09 1.43387e+09 1.43489e+09 1.43594e+09 0 1
109 1 1 1.43871e+09 1.43896e+09 1.43998e+09 1.4414e+09 0 1
110 1 1 1.45982e+09 1.46007e+09 1.46109e+09 1.46115e+09 0 1
111 1 1 1.46489e+09 1.46514e+09 1.46615e+09 1.47228e+09 0 1
112 1 1 1.49406e+09 1.4943e+09 1.49532e+09 1.49534e+09 0 1
113 2 1 1.50702e+09 1.50728e+09 1.5083e+09 1.51192e+09 0 0
114 2 0 1.51914e+09 1.5194e+09 1.52042e+09 1.52075e+09 1 1
115 2 0 1.53661e+09 1.53687e+09 1.53788e+09 1.53799e+09 0 1
116 2 0 1.5522e+09 1.55245e+09 1.55347e+09 1.5535e+09 0 1
117 2 0 1.55615e+09 1.55642e+09 1.55744e+09 1.55798e+09 0 1
118 1 1 1.56085e+09 1.5611e+09 1.56212e+09 1.56339e+09 0 1
119 1 1 1.58462e+09 1.58487e+09 1.58588e+09 1.58593e+09 0 1
120 1 1 1.6011e+09 1.60135e+09 1.60237e+09 1.60269e+09 0 1
121 1 0 1.61399e+09 1.61424e+09 1.61526e+09 1.61559e+09 0 0
122 1 0 1.62268e+09 1.62293e+09 1.62395e+09 1.62503e+09 1 0
123 1 1 1.63403e+09 1.63428e+09 1.63529e+09 1.63537e+09 1 1
124 2 0 1.64672e+09 1.64697e+09 1.64799e+09 1.64922e+09 0 1
125 2 0 1.6527e+09 1.65295e+09 1.65397e+09 1.65406e+09 0 1
126 2 0 1.65702e+09 1.65728e+09 1.6583e+09 1.65834e+09 0 1
127 2 0 1.66188e+09 1.66212e+09 1.66314e+09 1.66327e+09 0 1
128 1 0 1.66815e+09 1.66841e+09 1.66943e+09 1.66946e+09 0 0
129 1 0 1.67809e+09 1.67834e+09 1.67936e+09 1.67948e+09 1 0
130 1 1 1.69019e+09 1.69043e+09 1.69145e+09 1.69163e+09 1 1
131 1 1 1.71225e+09 1.71252e+09 1.71354e+09 1.71355e+09 0 1
132 1 1 1.74562e+09 1.74587e+09 1.74689e+09 1.7469e+09 0 1
133 1 1 1.75238e+09 1.75264e+09 1.75366e+09 1.75371e+09 0 1
134 2 1 1.78459e+09 1.78485e+09 1.78587e+09 1.7873e+09 0 0
135 2 0 1.79621e+09 1.79647e+09 1.79749e+09 1.79754e+09 1 1
136 2 0 1.81516e+09 1.81542e+09 1.81643e+09 1.81677e+09 0 1
137 2 0 1.81946e+09 1.81971e+09 1.82073e+09 1.82077e+09 0 1
138 2 1 1.82347e+09 1.82372e+09 1.82474e+09 1.82546e+09 0 0
139 2 0 1.83385e+09 1.83412e+09 1.83513e+09 1.83514e+09 1 1
140 1 1 1.85416e+09 1.85442e+09 1.85543e+09 1.85544e+09 0 1
141 1 0 1.85877e+09 1.85903e+09 1.86005e+09 1.86087e+09 0 0
142 1 0 1.86823e+09 1.86849e+09 1.86951e+09 1.86953e+09 1 0
143 1 0 1.87682e+09 1.87708e+09 1.87809e+09 1.8783e+09 1 0
144 1 1 1.88699e+09 1.88724e+09 1.88826e+09 1.88831e+09 1 1
145 2 0 1.89528e+09 1.89553e+09 1.89655e+09 1.89657e+09 0 1
146 2 1 1.91011e+09 1.91038e+09 1.9114e+09 1.91227e+09 0 0
147 2 0 1.91944e+09 1.9197e+09 1.92072e+09 1.92075e+09 1 1
148 1 1 1.92342e+09 1.92369e+09 1.92471e+09 1.92475e+09 0 1
149 1 1 1.93609e+09 1.93634e+09 1.93736e+09 1.93738e+09 0 1
150 1 1 1.94925e+09 1.94951e+09 1.95053e+09 1.95057e+09 0 1
151 2 1 1.96573e+09 1.96599e+09 1.96701e+09 1.96762e+09 0 0
152 2 0 1.97507e+09 1.97532e+09 1.97634e+09 1.97643e+09 1 1
153 1 1 1.98799e+09 1.98824e+09 1.98926e+09 1.98928e+09 0 1
154 1 1 2.00378e+09 2.00402e+09 2.00504e+09 2.00507e+09 0 1
155 2 0 2.02038e+09 2.02064e+09 2.02166e+09 2.02184e+09 0 1
156 1 1 2.02486e+09 2.0251e+09 2.02612e+09 2.02633e+09 0 1
157 1 0 2.04046e+09 2.04071e+09 2.04173e+09 2.04211e+09 0 0
158 1 1 2.05243e+09 2.05269e+09 2.05371e+09 2.05391e+09 1 1
159 2 0 2.06469e+09 2.06494e+09 2.06596e+09 2.06604e+09 0 1
160 2 0 2.06867e+09 2.06893e+09 2.06995e+09 2.0707e+09 0 1
161 1 1 2.07332e+09 2.07357e+09 2.07459e+09 2.0774e+09 0 1
162 2 0 2.09445e+09 2.09471e+09 2.09573e+09 2.09597e+09 0 1
163 1 1 2.09904e+09 2.09929e+09 2.10031e+09 2.10062e+09 0 1
164 2 0 2.11414e+09 2.11439e+09 2.11541e+09 2.11542e+09 0 1
165 2 0 2.11815e+09 2.1184e+09 2.11942e+09 2.11947e+09 0 1
166 1 1 2.12688e+09 2.12712e+09 2.12814e+09 2.12815e+09 0 1
167 1 1 2.13291e+09 2.13317e+09 2.13419e+09 2.13419e+09 0 1
168 1 1 2.15271e+09 2.15296e+09 2.15398e+09 2.15418e+09 0 1
169 1 1 2.18109e+09 2.18134e+09 2.18236e+09 2.18237e+09 0 1
170 2 0 2.19478e+09 2.19502e+09 2.19604e+09 2.19605e+09 0 1
171 1 1 2.2016e+09 2.20186e+09 2.20288e+09 2.20299e+09 0 1
172 2 1 2.23028e+09 2.23056e+09 2.23158e+09 2.2325e+09 0 0
173 2 0 2.24805e+09 2.2483e+09 2.24932e+09 2.24934e+09 1 1
174 2 0 2.25501e+09 2.25526e+09 2.25628e+09 2.25636e+09 0 1
175 1 1 2.26885e+09 2.2691e+09 2.27012e+09 2.27035e+09 0 1
176 1 1 2.27816e+09 2.27842e+09 2.27944e+09 2.27949e+09 0 1
177 2 0 2.28693e+09 2.28719e+09 2.28821e+09 2.28822e+09 0 1
178 1 1 2.29086e+09 2.29111e+09 2.29213e+09 2.29313e+09 0 1
179 2 0 2.29888e+09 2.29914e+09 2.30016e+09 2.30171e+09 0 1
180 2 0 2.3071e+09 2.30735e+09 2.30837e+09 2.30839e+09 0 1
181 1 1 2.32116e+09 2.32142e+09 2.32243e+09 2.32245e+09 0 1
182 1 1 2.32517e+09 2.32543e+09 2.32645e+09 2.32649e+09 0 1
183 1 1 2.3356e+09 2.33586e+09 2.33688e+09 2.33695e+09 0 1
184 1 1 2.34916e+09 2.34941e+09 2.35043e+09 2.35048e+09 0 1
185 1 1 2.369e+09 2.36926e+09 2.37028e+09 2.3703e+09 0 1
186 1 1 2.38044e+09 2.38068e+09 2.3817e+09 2.38171e+09 0 1
187 2 0 2.39067e+09 2.39093e+09 2.39194e+09 2.39196e+09 0 1
188 1 1 2.40735e+09 2.40761e+09 2.40863e+09 2.40865e+09 0 1
189 2 0 2.4233e+09 2.42354e+09 2.42456e+09 2.42457e+09 0 1
190 1 1 2.43936e+09 2.43963e+09 2.44065e+09 2.44068e+09 0 1
191 2 0 2.44514e+09 2.4454e+09 2.44642e+09 2.44643e+09 0 1
192 2 0 2.46305e+09 2.4633e+09 2.46432e+09 2.46433e+09 0 1
193 1 0 2.47233e+09 2.47258e+09 2.4736e+09 2.47361e+09 0 0
194 1 1 2.48247e+09 2.48273e+09 2.48375e+09 2.48393e+09 1 1
195 1 1 2.49292e+09 2.49318e+09 2.4942e+09 2.49421e+09 0 1
196 2 0 2.50705e+09 2.5073e+09 2.50832e+09 2.50836e+09 0 1
197 2 0 2.51745e+09 2.51771e+09 2.51873e+09 2.51874e+09 0 1
198 2 1 2.52995e+09 2.53021e+09 2.53123e+09 2.53218e+09 0 0
199 2 0 2.54851e+09 2.54875e+09 2.54977e+09 2.54978e+09 1 1
200 2 0 2.56557e+09 2.56582e+09 2.56684e+09 2.56691e+09 0 1
201 2 1 2.57615e+09 2.57641e+09 2.57743e+09 2.57799e+09 0 0
202 2 1 2.58633e+09 2.58658e+09 2.5876e+09 2.58808e+09 1 0
203 2 1 2.59662e+09 2.59687e+09 2.59789e+09 2.59857e+09 1 0
204 2 0 2.60599e+09 2.60625e+09 2.60727e+09 2.60728e+09 1 1
205 1 0 2.60996e+09 2.61022e+09 2.61124e+09 2.61125e+09 0 0
206 1 1 2.62547e+09 2.62573e+09 2.62675e+09 2.62678e+09 1 1
207 1 1 2.63613e+09 2.63639e+09 2.63741e+09 2.63746e+09 0 1
208 2 1 2.65128e+09 2.65153e+09 2.65255e+09 2.65297e+09 0 0
209 2 1 2.66467e+09 2.66492e+09 2.66594e+09 2.66645e+09 1 0
210 2 0 2.67388e+09 2.67414e+09 2.67515e+09 2.67523e+09 1 1
211 2 1 2.67996e+09 2.68021e+09 2.68123e+09 2.68192e+09 0 0
212 2 0 2.69347e+09 2.69373e+09 2.69475e+09 2.69476e+09 1 1
213 1 1 2.70345e+09 2.70369e+09 2.70471e+09 2.70475e+09 0 1
214 2 0 2.71998e+09 2.72024e+09 2.72125e+09 2.72128e+09 0 1
215 2 0 2.72748e+09 2.72774e+09 2.72876e+09 2.72879e+09 0 1
216 1 1 2.73536e+09 2.73561e+09 2.73663e+09 2.73665e+09 0 1
217 2 0 2.74111e+09 2.74136e+09 2.74238e+09 2.74252e+09 0 1
218 2 0 2.75967e+09 2.75993e+09 2.76094e+09 2.76099e+09 0 1
219 1 0 2.7654e+09 2.76566e+09 2.76667e+09 2.76669e+09 0 0
220 1 1 2.77912e+09 2.77936e+09 2.78038e+09 2.78039e+09 1 1
221 2 0 2.78599e+09 2.78623e+09 2.78725e+09 2.78727e+09 0 1
222 2 0 2.79633e+09 2.79657e+09 2.79759e+09 2.79759e+09 0 1
223 2 0 2.80059e+09 2.80084e+09 2.80186e+09 2.80192e+09 0 1
224 2 0 2.8191e+09 2.81937e+09 2.82039e+09 2.8204e+09 0 1
225 2 0 2.82316e+09 2.82342e+09 2.82444e+09 2.82445e+09 0 1
226 2 0 2.84184e+09 2.8421e+09 2.84312e+09 2.84312e+09 0 1
227 2 0 2.846e+09 2.84626e+09 2.84728e+09 2.84748e+09 0 1
228 2 1 2.8606e+09 2.86086e+09 2.86188e+09 2.86221e+09 0 0
229 2 0 2.87048e+09 2.87073e+09 2.87175e+09 2.8722e+09 1 1
230 2 0 2.87501e+09 2.87527e+09 2.87629e+09 2.87632e+09 0 1
231 2 0 2.89199e+09 2.89225e+09 2.89327e+09 2.89439e+09 0 1
232 2 0 2.9051e+09 2.90536e+09 2.90638e+09 2.90639e+09 0 1
233 1 1 2.9195e+09 2.91976e+09 2.92078e+09 2.9208e+09 0 1
234 1 1 2.92556e+09 2.92582e+09 2.92684e+09 2.92698e+09 0 1
235 1 1 2.94854e+09 2.94879e+09 2.94981e+09 2.94995e+09 0 1
236 2 1 2.95806e+09 2.95831e+09 2.95933e+09 2.96022e+09 0 0
237 2 1 2.9688e+09 2.96904e+09 2.97006e+09 2.97063e+09 1 0
238 2 0 2.97849e+09 2.97874e+09 2.97976e+09 2.97976e+09 1 1
239 2 1 2.99115e+09 2.9914e+09 2.99242e+09 2.99292e+09 0 0
240 2 0 3.00098e+09 3.00122e+09 3.00224e+09 3.00225e+09 1 1
241 1 1 3.01131e+09 3.01156e+09 3.01258e+09 3.01259e+09 0 1
242 2 0 3.02231e+09 3.02257e+09 3.02359e+09 3.0236e+09 0 1
243 2 0 3.03571e+09 3.03595e+09 3.03697e+09 3.03698e+09 0 1
244 2 0 3.0401e+09 3.04036e+09 3.04138e+09 3.04139e+09 0 1
245 2 0 3.0595e+09 3.05975e+09 3.06077e+09 3.06078e+09 0 1
246 1 1 3.06333e+09 3.06358e+09 3.0646e+09 3.06465e+09 0 1
247 1 0 3.07074e+09 3.071e+09 3.07202e+09 3.07203e+09 0 0
248 1 1 3.0825e+09 3.08276e+09 3.08378e+09 3.08406e+09 1 1
249 1 1 3.09064e+09 3.09089e+09 3.09191e+09 3.09192e+09 0 1
250 2 1 3.09768e+09 3.09793e+09 3.09895e+09 3.09916e+09 0 0
251 2 0 3.10914e+09 3.1094e+09 3.11041e+09 3.11044e+09 1 1
252 1 0 3.11548e+09 3.11575e+09 3.11676e+09 3.11701e+09 0 0
253 1 1 3.12821e+09 3.12847e+09 3.12949e+09 3.12953e+09 1 1
254 1 0 3.13326e+09 3.13351e+09 3.13453e+09 3.13501e+09 0 0
255 1 1 3.14287e+09 3.14312e+09 3.14414e+09 3.14417e+09 1 1
256 1 1 3.14939e+09 3.14965e+09 3.15066e+09 3.15073e+09 0 1
257 1 1 3.16068e+09 3.16093e+09 3.16195e+09 3.16211e+09 0 1
258 1 1 3.17226e+09 3.17252e+09 3.17354e+09 3.17368e+09 0 1
259 1 1 3.17903e+09 3.17928e+09 3.1803e+09 3.18035e+09 0 1
260 1 0 3.18736e+09 3.18761e+09 3.18863e+09 3.18879e+09 0 0
261 1 1 3.199e+09 3.19925e+09 3.20027e+09 3.20034e+09 1 1
262 2 0 3.2049e+09 3.20515e+09 3.20617e+09 3.20618e+09 0 1
263 1 1 3.21432e+09 3.21458e+09 3.2156e+09 3.21568e+09 0 1
264 2 1 3.21984e+09 3.2201e+09 3.22112e+09 3.22181e+09 0 0
265 2 1 3.23026e+09 3.23051e+09 3.23153e+09 3.23228e+09 1 0
266 2 0 3.24501e+09 3.24526e+09 3.24628e+09 3.2464e+09 1 1
267 1 1 3.25678e+09 3.25704e+09 3.25806e+09 3.25807e+09 0 1
268 1 1 3.26262e+09 3.26287e+09 3.26389e+09 3.26393e+09 0 1
269 1 0 3.2718e+09 3.27205e+09 3.27307e+09 3.27481e+09 0 0
270 1 1 3.28224e+09 3.28249e+09 3.28351e+09 3.28373e+09 1 1
271 2 0 3.28771e+09 3.28797e+09 3.28899e+09 3.28901e+09 0 1
272 2 0 3.29686e+09 3.29712e+09 3.29814e+09 3.29822e+09 0 1
273 1 1 3.30093e+09 3.30119e+09 3.30221e+09 3.30347e+09 0 1
274 1 1 3.31483e+09 3.31507e+09 3.31609e+09 3.31611e+09 0 1
275 1 1 3.31894e+09 3.31919e+09 3.32021e+09 3.32028e+09 0 1
276 2 1 3.3292e+09 3.32946e+09 3.33047e+09 3.33116e+09 0 0
277 2 0 3.33945e+09 3.33969e+09 3.34071e+09 3.34072e+09 1 1
278 2 1 3.34344e+09 3.34371e+09 3.34473e+09 3.3458e+09 0 0
279 2 0 3.35397e+09 3.35423e+09 3.35525e+09 3.3554e+09 1 1
280 1 1 3.36165e+09 3.36191e+09 3.36293e+09 3.36294e+09 0 1
281 2 0 3.3787e+09 3.37895e+09 3.37997e+09 3.37998e+09 0 1
282 2 1 3.38759e+09 3.38784e+09 3.38886e+09 3.38967e+09 0 0
283 2 0 3.40008e+09 3.40033e+09 3.40135e+09 3.40135e+09 1 1
284 2 0 3.40691e+09 3.40718e+09 3.4082e+09 3.40823e+09 0 1
285 2 0 3.41495e+09 3.4152e+09 3.41622e+09 3.41626e+09 0 1
286 1 1 3.42148e+09 3.42173e+09 3.42275e+09 3.42283e+09 0 1
287 2 1 3.44053e+09 3.44079e+09 3.44181e+09 3.44195e+09 0 0
288 2 0 3.44958e+09 3.44983e+09 3.45085e+09 3.45088e+09 1 1
289 1 1 3.45451e+09 3.45476e+09 3.45578e+09 3.4558e+09 0 1
290 2 1 3.46266e+09 3.46292e+09 3.46393e+09 3.46428e+09 0 0
291 2 0 3.47188e+09 3.47213e+09 3.47315e+09 3.47316e+09 1 1
292 2 0 3.47883e+09 3.47909e+09 3.4801e+09 3.48023e+09 0 1
293 2 0 3.4832e+09 3.48345e+09 3.48447e+09 3.48452e+09 0 1
294 2 0 3.50045e+09 3.50071e+09 3.50173e+09 3.50178e+09 0 1
295 1 1 3.50787e+09 3.50811e+09 3.50913e+09 3.50914e+09 0 1
296 2 1 3.51241e+09 3.51267e+09 3.51369e+09 3.51433e+09 0 0
297 2 1 3.52443e+09 3.52469e+09 3.52571e+09 3.5258e+09 1 0
298 2 1 3.53315e+09 3.53341e+09 3.53443e+09 3.53445e+09 1 0
299 2 1 3.54178e+09 3.54203e+09 3.54305e+09 3.54307e+09 1 0
300 1 1 3.55169e+09 3.55194e+09 3.55296e+09 3.553e+09 0 1
301 1 1 3.55661e+09 3.55686e+09 3.55788e+09 3.56348e+09 0 1
302 1 1 3.56698e+09 3.56724e+09 3.56826e+09 3.56828e+09 0 1
303 2 0 3.57125e+09 3.57151e+09 3.57253e+09 3.57272e+09 0 1
304 2 0 3.58512e+09 3.58538e+09 3.5864e+09 3.58689e+09 0 1
305 1 1 3.59182e+09 3.59207e+09 3.59309e+09 3.5931e+09 0 1
306 1 1 3.59654e+09 3.5968e+09 3.59782e+09 3.59786e+09 0 1
307 1 0 3.60354e+09 3.60379e+09 3.60481e+09 3.60506e+09 0 0
308 1 1 3.61424e+09 3.6145e+09 3.61552e+09 3.61565e+09 1 1
309 1 1 3.61911e+09 3.61937e+09 3.62039e+09 3.62045e+09 0 1
310 2 1 3.62392e+09 3.62417e+09 3.62519e+09 3.62586e+09 0 0
311 2 0 3.63305e+09 3.6333e+09 3.63432e+09 3.63438e+09 1 1
312 1 1 3.64249e+09 3.64275e+09 3.64377e+09 3.64388e+09 0 1
313 2 0 3.64666e+09 3.64691e+09 3.64793e+09 3.648e+09 0 1
314 2 0 3.65382e+09 3.65407e+09 3.65509e+09 3.65523e+09 0 1
315 1 1 3.65827e+09 3.65853e+09 3.65955e+09 3.65962e+09 0 1
316 2 0 3.6676e+09 3.66785e+09 3.66887e+09 3.66888e+09 0 1
317 2 0 3.67175e+09 3.672e+09 3.67302e+09 3.67316e+09 0 1
318 2 0 3.68218e+09 3.68243e+09 3.68345e+09 3.68349e+09 0 1
319 1 0 3.68685e+09 3.6871e+09 3.68811e+09 3.68823e+09 0 0
320 1 1 3.69683e+09 3.69707e+09 3.69809e+09 3.69815e+09 1 1
321 1 1 3.70098e+09 3.70124e+09 3.70226e+09 3.70229e+09 0 1
322 2 1 3.70537e+09 3.70563e+09 3.70665e+09 3.70694e+09 0 0
323 2 1 3.71416e+09 3.71441e+09 3.71543e+09 3.716e+09 1 0
324 2 0 3.72314e+09 3.7234e+09 3.72442e+09 3.72447e+09 1 1
325 1 1 3.73036e+09 3.73061e+09 3.73162e+09 3.74215e+09 0 1
326 2 0 3.74939e+09 3.74964e+09 3.75066e+09 3.75074e+09 0 1
327 2 0 3.75338e+09 3.75363e+09 3.75464e+09 3.75466e+09 0 1
328 1 1 3.75887e+09 3.75912e+09 3.76014e+09 3.76015e+09 0 1
329 2 1 3.76269e+09 3.76294e+09 3.76395e+09 3.76504e+09 0 0
330 2 0 3.77507e+09 3.77532e+09 3.77634e+09 3.77636e+09 1 1
331 2 0 3.77921e+09 3.77946e+09 3.78048e+09 3.7805e+09 0 1
332 2 1 3.78721e+09 3.78746e+09 3.78848e+09 3.78902e+09 0 0
333 2 1 3.79643e+09 3.79668e+09 3.7977e+09 3.79786e+09 1 0
334 2 0 3.80565e+09 3.80591e+09 3.80693e+09 3.80694e+09 1 1
335 1 1 3.81136e+09 3.81161e+09 3.81263e+09 3.81272e+09 0 1
336 1 1 3.81543e+09 3.81568e+09 3.8167e+09 3.81692e+09 0 1
337 2 0 3.82079e+09 3.82104e+09 3.82206e+09 3.82206e+09 0 1
338 2 0 3.82876e+09 3.82901e+09 3.83003e+09 3.83004e+09 0 1
339 2 0 3.83298e+09 3.83322e+09 3.83424e+09 3.83426e+09 0 1
340 2 0 3.83992e+09 3.84017e+09 3.84119e+09 3.84206e+09 0 1
341 1 1 3.84523e+09 3.84548e+09 3.8465e+09 3.84661e+09 0 1
342 1 1 3.85142e+09 3.85168e+09 3.8527e+09 3.85272e+09 0 1
343 1 1 3.8566e+09 3.85686e+09 3.85788e+09 3.85791e+09 0 1
344 1 1 3.86158e+09 3.86184e+09 3.86286e+09 3.86306e+09 0 1
345 1 1 3.87169e+09 3.87196e+09 3.87297e+09 3.873e+09 0 1
346 2 0 3.87632e+09 3.87657e+09 3.87759e+09 3.87798e+09 0 1
347 1 1 3.88172e+09 3.88198e+09 3.883e+09 3.88303e+09 0 1
348 1 1 3.88777e+09 3.88802e+09 3.88904e+09 3.88905e+09 0 1
349 1 1 3.89298e+09 3.89324e+09 3.89425e+09 3.8943e+09 0 1
350 2 1 3.90046e+09 3.90071e+09 3.90173e+09 3.90217e+09 0 0
351 2 1 3.9127e+09 3.91296e+09 3.91398e+09 3.9143e+09 1 0
352 2 0 3.92354e+09 3.92379e+09 3.92481e+09 3.92517e+09 1 1
353 1 1 3.9279e+09 3.92815e+09 3.92917e+09 3.92968e+09 0 1
354 1 1 3.93257e+09 3.93282e+09 3.93384e+09 3.93393e+09 0 1
355 1 1 3.94371e+09 3.94396e+09 3.94498e+09 3.94499e+09 0 1
356 2 1 3.94793e+09 3.94819e+09 3.94921e+09 3.94962e+09 0 0
357 2 0 3.95701e+09 3.95727e+09 3.95829e+09 3.95852e+09 1 1
358 2 0 3.96113e+09 3.96138e+09 3.9624e+09 3.96306e+09 0 1
359 2 0 3.9686e+09 3.96884e+09 3.96986e+09 3.96997e+09 0 1
360 1 0 3.97699e+09 3.97725e+09 3.97827e+09 3.98521e+09 0 0
361 1 1 3.99294e+09 3.99318e+09 3.9942e+09 3.99473e+09 1 1
362 1 1 3.99736e+09 3.99762e+09 3.99864e+09 3.99868e+09 0 1
363 2 1 4.00162e+09 4.00187e+09 4.00289e+09 4.00355e+09 0 0
364 2 1 4.01072e+09 4.01096e+09 4.01198e+09 4.01241e+09 1 0
365 2 1 4.0214e+09 4.02165e+09 4.02267e+09 4.02388e+09 1 0
366 2 1 4.03138e+09 4.03162e+09 4.03264e+09 4.03265e+09 1 0
367 2 1 4.04001e+09 4.04028e+09 4.04129e+09 4.04131e+09 0 0
368 2 1 4.04867e+09 4.04891e+09 4.04993e+09 4.04995e+09 0 0
369 1 1 4.05744e+09 4.05769e+09 4.05871e+09 4.05873e+09 0 1
370 2 1 4.06159e+09 4.06185e+09 4.06287e+09 4.06295e+09 0 0
371 2 1 4.07047e+09 4.07072e+09 4.07174e+09 4.07176e+09 1 0
372 2 0 4.08016e+09 4.08041e+09 4.08143e+09 4.08144e+09 1 1
373 1 1 4.08425e+09 4.0845e+09 4.08551e+09 4.08553e+09 0 1
374 2 1 4.08846e+09 4.08871e+09 4.08973e+09 4.08975e+09 0 0
375 2 0 4.09963e+09 4.09989e+09 4.10091e+09 4.10102e+09 1 1
376 1 1 4.104e+09 4.10427e+09 4.10528e+09 4.10536e+09 0 1
377 2 1 4.10839e+09 4.10864e+09 4.10966e+09 4.10969e+09 0 0
378 2 1 4.11714e+09 4.1174e+09 4.11842e+09 4.11843e+09 1 0
379 2 1 4.12578e+09 4.12604e+09 4.12706e+09 4.12734e+09 1 0
380 2 0 4.13561e+09 4.13587e+09 4.13689e+09 4.13728e+09 1 1
381 1 0 4.14027e+09 4.14052e+09 4.14154e+09 4.14173e+09 0 0
382 1 0 4.14897e+09 4.14922e+09 4.15024e+09 4.15316e+09 1 0
383 1 0 4.16172e+09 4.16197e+09 4.16299e+09 4.19228e+09 1 0
384 1 0 4.19974e+09 4.2e+09 4.20101e+09 4.21631e+09 1 0
385 1 0 4.22504e+09 4.22528e+09 4.2263e+09 4.23693e+09 0 0
386 1 0 4.24426e+09 4.24451e+09 4.24553e+09 4.24893e+09 0 0
387 1 0 4.25767e+09 4.25791e+09 4.25893e+09 4.29137e+09 0 0
388 2 1 3.71611e+06 3.97686e+06 4.996e+06 5.01667e+06 0 0
389 1 0 1.25153e+07 1.2762e+07 1.37811e+07 1.50919e+07 0 0
390 2 0 2.50051e+07 2.52502e+07 2.62693e+07 2.85608e+07 0 1
391 1 0 3.11153e+07 3.13669e+07 3.2386e+07 6.55556e+07 0 0
