trial trialType response stillTime stimOnset stimOffset respTime correctionTrial correct
001 2 1 9.32968e+06 9.6618e+06 1.06809e+07 2.75746e+07 0 0
002 2 1 3.4858e+07 3.51288e+07 3.61479e+07 3.86088e+07 1 0
003 2 0 4.57278e+07 4.60049e+07 4.7024e+07 8.41156e+07 1 1
004 1 1 8.74588e+07 8.77322e+07 8.87513e+07 8.87746e+07 0 1
005 1 1 9.17688e+07 9.20293e+07 9.30484e+07 9.60885e+07 0 1
006 1 0 1.05143e+08 1.05406e+08 1.06425e+08 1.06482e+08 0 0
007 1 0 1.18784e+08 1.1905e+08 1.20069e+08 1.2051e+08 1 0
008 1 0 1.2793e+08 1.28179e+08 1.29199e+08 1.29678e+08 1 0
009 1 0 1.37134e+08 1.37388e+08 1.38407e+08 1.38619e+08 1 0
010 2 1 1.4591e+08 1.46161e+08 1.4718e+08 1.47808e+08 0 0
011 2 0 1.55326e+08 1.55588e+08 1.56608e+08 1.5687e+08 0 1
012 3 0 1.64443e+08 1.64707e+08 1.65726e+08 1.71569e+08 0 1
013 3 1 1.80281e+08 1.80547e+08 1.81566e+08 1.83049e+08 0 0
014 3 0 1.90654e+08 1.9091e+08 1.91929e+08 1.9224e+08 1 1
015 1 1 2.18422e+08 2.18687e+08 2.19706e+08 2.19734e+08 0 1
016 1 1 2.24162e+08 2.2442e+08 2.25439e+08 2.25503e+08 0 1
017 1 1 2.34051e+08 2.3432e+08 2.3534e+08 2.3543e+08 0 1
018 1 1 2.50494e+08 2.5077e+08 2.51789e+08 2.51863e+08 0 1
019 2 0 2.64319e+08 2.64584e+08 2.65603e+08 2.6568e+08 0 1
020 3 0 2.68349e+08 2.68605e+08 2.69624e+08 2.69753e+08 0 1
021 2 0 2.726e+08 2.72866e+08 2.73885e+08 2.73971e+08 0 1
022 2 0 2.80446e+08 2.80697e+08 2.81716e+08 2.82927e+08 0 1
023 3 0 2.91897e+08 2.92168e+08 2.93188e+08 2.93286e+08 0 1
024 2 1 2.98843e+08 2.99098e+08 3.00117e+08 3.00196e+08 0 0
025 2 0 3.07291e+08 3.07556e+08 3.08575e+08 3.08705e+08 1 1
026 1 1 3.11668e+08 3.1193e+08 3.12949e+08 3.13083e+08 0 1
027 3 0 3.22272e+08 3.2255e+08 3.23569e+08 3.23824e+08 0 1
028 3 0 3.33495e+08 3.33756e+08 3.34776e+08 3.34888e+08 0 1
029 1 1 3.38265e+08 3.3852e+08 3.39539e+08 3.39688e+08 0 1
030 1 1 3.47697e+08 3.47948e+08 3.48967e+08 3.48988e+08 0 1
031 1 1 3.54046e+08 3.54298e+08 3.55317e+08 3.55494e+08 0 1
032 2 0 3.77472e+08 3.77733e+08 3.78752e+08 3.7877e+08 0 1
033 3 0 3.81345e+08 3.81604e+08 3.82623e+08 3.83279e+08 0 1
034 1 1 3.97794e+08 3.9806e+08 3.99079e+08 3.99134e+08 0 1
035 1 1 4.01959e+08 4.0222e+08 4.03239e+08 4.03736e+08 0 1
036 3 0 4.16816e+08 4.17081e+08 4.181e+08 4.1814e+08 0 1
037 1 1 4.38584e+08 4.38834e+08 4.39854e+08 4.39869e+08 0 1
038 1 0 4.5167e+08 4.5194e+08 4.5296e+08 4.53154e+08 0 0
039 1 1 4.65406e+08 4.65661e+08 4.6668e+08 4.66708e+08 1 1
040 1 1 4.78277e+08 4.78537e+08 4.79556e+08 4.79598e+08 0 1
041 2 0 4.90001e+08 4.90271e+08 4.9129e+08 4.91728e+08 0 1
042 2 0 4.94473e+08 4.9474e+08 4.9576e+08 4.9578e+08 0 1
043 1 1 5.04296e+08 5.0456e+08 5.05579e+08 5.05621e+08 0 1
044 2 0 5.33174e+08 5.33424e+08 5.34443e+08 5.34453e+08 0 1
045 1 1 5.41941e+08 5.42217e+08 5.43236e+08 5.435e+08 0 1
046 2 1 5.47643e+08 5.47895e+08 5.48914e+08 5.49107e+08 0 0
047 2 1 5.57617e+08 5.57873e+08 5.58892e+08 5.58953e+08 1 0
048 2 0 5.66084e+08 5.66338e+08 5.67357e+08 5.6737e+08 1 1
049 3 0 5.75823e+08 5.76087e+08 5.77106e+08 5.77157e+08 0 1
050 1 1 5.80093e+08 5.80345e+08 5.81364e+08 5.81404e+08 0 1
051 2 0 5.87662e+08 5.87919e+08 5.88938e+08 5.88946e+08 0 1
052 2 0 5.9255e+08 5.92812e+08 5.93832e+08 5.93844e+08 0 1
053 1 1 5.96622e+08 5.96882e+08 5.97901e+08 5.98071e+08 0 1
054 2 0 6.04503e+08 6.04766e+08 6.05785e+08 6.05877e+08 0 1
055 1 1 6.11427e+08 6.11691e+08 6.1271e+08 6.12823e+08 0 1
056 3 0 6.21256e+08 6.21518e+08 6.22537e+08 6.22568e+08 0 1
057 1 1 6.29268e+08 6.29531e+08 6.3055e+08 6.30729e+08 0 1
058 1 1 6.37978e+08 6.38236e+08 6.39255e+08 6.3927e+08 0 1
059 2 0 6.48983e+08 6.49248e+08 6.50267e+08 6.50385e+08 0 1
060 2 0 6.61091e+08 6.61347e+08 6.62366e+08 6.62402e+08 0 1
061 2 1 6.70902e+08 6.71161e+08 6.7218e+08 6.72437e+08 0 0
062 2 0 6.80843e+08 6.81117e+08 6.82136e+08 6.82212e+08 1 1
063 3 1 6.84849e+08 6.85104e+08 6.86123e+08 6.86307e+08 0 0
064 3 1 6.9336e+08 6.9361e+08 6.94629e+08 6.94647e+08 1 0
065 3 0 7.02532e+08 7.02792e+08 7.03811e+08 7.04834e+08 1 1
066 3 1 7.07763e+08 7.08033e+08 7.09052e+08 7.18071e+08 0 0
067 3 0 7.28483e+08 7.28738e+08 7.29757e+08 7.30285e+08 1 1
068 1 1 7.34595e+08 7.34853e+08 7.35872e+08 7.35914e+08 0 1
069 1 1 7.38637e+08 7.38901e+08 7.3992e+08 7.40072e+08 0 1
070 2 0 7.4958e+08 7.49838e+08 7.50857e+08 7.50881e+08 0 1
071 1 1 7.62037e+08 7.62298e+08 7.63318e+08 7.63413e+08 0 1
072 3 1 7.7227e+08 7.72532e+08 7.73551e+08 7.73729e+08 0 0
073 3 0 7.80889e+08 7.81159e+08 7.82178e+08 7.82277e+08 1 1
074 1 1 7.91899e+08 7.92152e+08 7.93171e+08 7.93212e+08 0 1
075 2 1 8.01331e+08 8.01589e+08 8.02608e+08 8.02722e+08 0 0
076 2 0 8.13915e+08 8.14166e+08 8.15185e+08 8.15251e+08 1 1
077 3 0 8.18353e+08 8.18618e+08 8.19637e+08 8.19734e+08 0 1
078 2 0 8.22246e+08 8.225e+08 8.23519e+08 8.24069e+08 0 1
079 1 1 8.28153e+08 8.28428e+08 8.29447e+08 8.29836e+08 0 1
080 1 1 8.32702e+08 8.3296e+08 8.33979e+08 8.34167e+08 0 1
081 3 0 8.40275e+08 8.40539e+08 8.41558e+08 8.41603e+08 0 1
082 1 1 8.54145e+08 8.54405e+08 8.55424e+08 8.55523e+08 0 1
083 1 1 8.65493e+08 8.65748e+08 8.66767e+08 8.66783e+08 0 1
084 1 1 8.70278e+08 8.70533e+08 8.71552e+08 8.71637e+08 0 1
085 1 1 8.74854e+08 8.75113e+08 8.76132e+08 8.76205e+08 0 1
086 1 1 8.86983e+08 8.87231e+08 8.8825e+08 8.88275e+08 0 1
087 3 1 8.97071e+08 8.97331e+08 8.98351e+08 8.9844e+08 0 0
088 3 1 9.05889e+08 9.06147e+08 9.07166e+08 9.1008e+08 1 0
089 3 0 9.18662e+08 9.18918e+08 9.19937e+08 9.1997e+08 1 1
090 1 1 9.26588e+08 9.26854e+08 9.27873e+08 9.28225e+08 0 1
091 1 0 9.30917e+08 9.3118e+08 9.322e+08 9.32298e+08 0 0
092 1 1 9.39444e+08 9.39697e+08 9.40716e+08 9.40853e+08 1 1
093 2 0 9.4624e+08 9.46503e+08 9.47522e+08 9.47545e+08 0 1
094 3 1 9.53589e+08 9.5384e+08 9.54859e+08 9.55669e+08 0 0
095 3 0 9.62951e+08 9.63214e+08 9.64233e+08 9.6428e+08 1 1
096 1 1 9.78678e+08 9.78945e+08 9.79964e+08 9.80204e+08 0 1
097 1 1 9.8526e+08 9.85527e+08 9.86547e+08 9.86918e+08 0 1
098 2 0 9.91179e+08 9.91449e+08 9.92468e+08 9.92905e+08 0 1
099 3 0 1.00993e+09 1.0102e+09 1.01122e+09 1.01134e+09 0 1
100 1 0 1.01406e+09 1.01433e+09 1.01535e+09 1.0189e+09 0 0
101 1 1 1.03147e+09 1.03175e+09 1.03277e+09 1.03279e+09 1 1
102 1 1 1.04512e+09 1.04539e+09 1.04641e+09 1.04648e+09 0 1
103 3 0 1.0545e+09 1.05475e+09 1.05577e+09 1.05596e+09 0 1
104 1 1 1.07002e+09 1.07027e+09 1.07129e+09 1.07131e+09 0 1
105 3 0 1.08226e+09 1.08253e+09 1.08355e+09 1.08358e+09 0 1
106 3 0 1.08697e+09 1.08722e+09 1.08824e+09 1.08825e+09 0 1
107 1 1 1.09858e+09 1.09883e+09 1.09985e+09 1.09992e+09 0 1
108 3 0 1.11659e+09 1.11685e+09 1.11787e+09 1.11793e+09 0 1
109 1 0 1.12069e+09 1.12095e+09 1.12197e+09 1.12897e+09 0 0
110 1 1 1.13641e+09 1.13667e+09 1.13769e+09 1.1377e+09 1 1
111 1 1 1.14371e+09 1.14396e+09 1.14498e+09 1.1451e+09 0 1
112 1 1 1.15291e+09 1.15316e+09 1.15418e+09 1.1542e+09 0 1
113 1 1 1.16107e+09 1.16133e+09 1.16235e+09 1.16236e+09 0 1
114 2 0 1.17564e+09 1.1759e+09 1.17692e+09 1.17697e+09 0 1
115 1 1 1.18431e+09 1.18456e+09 1.18558e+09 1.18565e+09 0 1
116 3 0 1.19393e+09 1.1942e+09 1.19522e+09 1.19523e+09 0 1
117 1 1 1.20194e+09 1.20221e+09 1.20322e+09 1.20325e+09 0 1
118 1 1 1.21013e+09 1.21039e+09 1.2114e+09 1.21149e+09 0 1
119 3 0 1.22209e+09 1.22234e+09 1.22336e+09 1.22395e+09 0 1
120 1 1 1.23009e+09 1.23036e+09 1.23138e+09 1.23151e+09 0 1
121 3 0 1.2378e+09 1.23806e+09 1.23908e+09 1.23929e+09 0 1
122 2 0 1.24327e+09 1.24352e+09 1.24454e+09 1.24466e+09 0 1
123 2 0 1.24747e+09 1.24773e+09 1.24875e+09 1.24876e+09 0 1
124 1 1 1.25126e+09 1.25152e+09 1.25254e+09 1.25262e+09 0 1
125 1 0 1.26056e+09 1.26081e+09 1.26183e+09 1.26221e+09 0 0
126 1 1 1.26972e+09 1.26997e+09 1.27099e+09 1.27103e+09 1 1
127 1 1 1.28048e+09 1.28075e+09 1.28177e+09 1.2818e+09 0 1
128 3 0 1.2914e+09 1.29165e+09 1.29267e+09 1.29272e+09 0 1
129 1 0 1.29522e+09 1.29548e+09 1.2965e+09 1.29766e+09 0 0
130 1 1 1.30515e+09 1.30541e+09 1.30643e+09 1.30647e+09 1 1
131 1 0 1.32109e+09 1.32136e+09 1.32238e+09 1.32282e+09 0 0
132 1 1 1.33022e+09 1.33047e+09 1.33149e+09 1.33155e+09 1 1
133 1 1 1.34521e+09 1.34547e+09 1.34649e+09 1.34661e+09 0 1
134 3 1 1.34945e+09 1.34971e+09 1.35073e+09 1.35424e+09 0 0
135 3 0 1.36155e+09 1.36181e+09 1.36283e+09 1.36297e+09 1 1
136 3 0 1.36616e+09 1.36642e+09 1.36744e+09 1.36763e+09 0 1
137 2 0 1.37031e+09 1.37057e+09 1.37159e+09 1.37165e+09 0 1
138 1 1 1.37435e+09 1.37461e+09 1.37563e+09 1.37565e+09 0 1
139 2 0 1.38574e+09 1.386e+09 1.38702e+09 1.3872e+09 0 1
140 3 0 1.39888e+09 1.39915e+09 1.40017e+09 1.40054e+09 0 1
141 1 1 1.40509e+09 1.40535e+09 1.40637e+09 1.40649e+09 0 1
142 1 1 1.41139e+09 1.41165e+09 1.41267e+09 1.41291e+09 0 1
143 3 0 1.42837e+09 1.42863e+09 1.42965e+09 1.42978e+09 0 1
144 1 1 1.43312e+09 1.43338e+09 1.4344e+09 1.43469e+09 0 1
145 3 0 1.44116e+09 1.44141e+09 1.44243e+09 1.44245e+09 0 1
146 1 0 1.45351e+09 1.45378e+09 1.4548e+09 1.45538e+09 0 0
147 1 1 1.46255e+09 1.46282e+09 1.46384e+09 1.46387e+09 1 1
148 1 1 1.47412e+09 1.47438e+09 1.4754e+09 1.47543e+09 0 1
149 3 0 1.4882e+09 1.48846e+09 1.48948e+09 1.48981e+09 0 1
150 1 1 1.49406e+09 1.49432e+09 1.49534e+09 1.49553e+09 0 1
151 1 1 1.49995e+09 1.50021e+09 1.50123e+09 1.50129e+09 0 1
152 1 1 1.51063e+09 1.51089e+09 1.51191e+09 1.51202e+09 0 1
153 2 0 1.51784e+09 1.5181e+09 1.51912e+09 1.51946e+09 0 1
154 2 0 1.52908e+09 1.52933e+09 1.53035e+09 1.53042e+09 0 1
155 1 1 1.53591e+09 1.53618e+09 1.5372e+09 1.53735e+09 0 1
156 1 1 1.54076e+09 1.54103e+09 1.54205e+09 1.54217e+09 0 1
157 3 0 1.54885e+09 1.54911e+09 1.55013e+09 1.55059e+09 0 1
158 2 0 1.56794e+09 1.5682e+09 1.56922e+09 1.56929e+09 0 1
159 2 0 1.57308e+09 1.57335e+09 1.57437e+09 1.57472e+09 0 1
160 1 1 1.5818e+09 1.58206e+09 1.58307e+09 1.58309e+09 0 1
161 1 1 1.60153e+09 1.60179e+09 1.60281e+09 1.60285e+09 0 1
162 1 0 1.61366e+09 1.61391e+09 1.61493e+09 1.61522e+09 0 0
163 1 1 1.62258e+09 1.62284e+09 1.62386e+09 1.62387e+09 1 1
164 1 1 1.6398e+09 1.64006e+09 1.64108e+09 1.64109e+09 0 1
165 2 0 1.64497e+09 1.64524e+09 1.64626e+09 1.64638e+09 0 1
166 2 0 1.65755e+09 1.6578e+09 1.65882e+09 1.65884e+09 0 1
167 1 1 1.66307e+09 1.66334e+09 1.66436e+09 1.66451e+09 0 1
168 2 0 1.67096e+09 1.67121e+09 1.67223e+09 1.6723e+09 0 1
169 1 0 1.67828e+09 1.67854e+09 1.67956e+09 1.67959e+09 0 0
170 1 0 1.68666e+09 1.68692e+09 1.68794e+09 1.68822e+09 1 0
171 1 1 1.69549e+09 1.69575e+09 1.69677e+09 1.69679e+09 1 1
172 1 0 1.7011e+09 1.70136e+09 1.70238e+09 1.70866e+09 0 0
173 1 1 1.71607e+09 1.71633e+09 1.71735e+09 1.71736e+09 1 1
174 3 0 1.73244e+09 1.7327e+09 1.73372e+09 1.73381e+09 0 1
175 3 0 1.73781e+09 1.73807e+09 1.73909e+09 1.73911e+09 0 1
176 2 1 1.74291e+09 1.74316e+09 1.74418e+09 1.74494e+09 0 0
177 2 0 1.75203e+09 1.75229e+09 1.75331e+09 1.75344e+09 1 1
178 2 1 1.7571e+09 1.75736e+09 1.75838e+09 1.75945e+09 0 0
179 2 0 1.76662e+09 1.76689e+09 1.76791e+09 1.76819e+09 1 1
180 1 1 1.77225e+09 1.77253e+09 1.77355e+09 1.77364e+09 0 1
181 1 1 1.77882e+09 1.77907e+09 1.78009e+09 1.78016e+09 0 1
182 3 0 1.79712e+09 1.79738e+09 1.7984e+09 1.79872e+09 0 1
183 1 0 1.80147e+09 1.80173e+09 1.80275e+09 1.80306e+09 0 0
184 1 1 1.81299e+09 1.81326e+09 1.81428e+09 1.8144e+09 1 1
185 2 0 1.82389e+09 1.82416e+09 1.82518e+09 1.82521e+09 0 1
186 1 1 1.83133e+09 1.83158e+09 1.8326e+09 1.83261e+09 0 1
187 3 0 1.85259e+09 1.85284e+09 1.85386e+09 1.8542e+09 0 1
188 3 0 1.86103e+09 1.8613e+09 1.86232e+09 1.86233e+09 0 1
189 2 0 1.87167e+09 1.87193e+09 1.87295e+09 1.87296e+09 0 1
190 3 0 1.87596e+09 1.87622e+09 1.87724e+09 1.87727e+09 0 1
191 1 1 1.88395e+09 1.88421e+09 1.88523e+09 1.88526e+09 0 1
192 2 0 1.89099e+09 1.89125e+09 1.89227e+09 1.89234e+09 0 1
193 1 1 1.89612e+09 1.89639e+09 1.89741e+09 1.89749e+09 0 1
194 1 1 1.90384e+09 1.9041e+09 1.90512e+09 1.90551e+09 0 1
195 3 0 1.91011e+09 1.91038e+09 1.9114e+09 1.91185e+09 0 1
196 1 1 1.91996e+09 1.92021e+09 1.92123e+09 1.92128e+09 0 1
197 2 0 1.92381e+09 1.92407e+09 1.92509e+09 1.92564e+09 0 1
198 2 0 1.93093e+09 1.93119e+09 1.93221e+09 1.93228e+09 0 1
199 2 0 1.9415e+09 1.94176e+09 1.94278e+09 1.94295e+09 0 1
200 2 0 1.9465e+09 1.94676e+09 1.94778e+09 1.94786e+09 0 1
201 1 1 1.95238e+09 1.95265e+09 1.95367e+09 1.95385e+09 0 1
202 2 0 1.96382e+09 1.96407e+09 1.96509e+09 1.96511e+09 0 1
203 2 0 1.97428e+09 1.97454e+09 1.97556e+09 1.9756e+09 0 1
204 3 0 1.985e+09 1.98527e+09 1.98629e+09 1.98645e+09 0 1
205 1 1 1.99055e+09 1.99082e+09 1.99184e+09 1.99194e+09 0 1
206 3 0 1.99667e+09 1.99694e+09 1.99796e+09 1.99797e+09 0 1
207 1 1 2.00973e+09 2.01e+09 2.01102e+09 2.01105e+09 0 1
208 3 0 2.01521e+09 2.01546e+09 2.01648e+09 2.01655e+09 0 1
209 1 1 2.0274e+09 2.02766e+09 2.02868e+09 2.0287e+09 0 1
210 2 0 2.04353e+09 2.04379e+09 2.04481e+09 2.04496e+09 0 1
211 3 0 2.05086e+09 2.05112e+09 2.05214e+09 2.05269e+09 0 1
212 1 1 2.06258e+09 2.06284e+09 2.06386e+09 2.06399e+09 0 1
213 3 0 2.06781e+09 2.06807e+09 2.06909e+09 2.06931e+09 0 1
214 1 1 2.07364e+09 2.0739e+09 2.07492e+09 2.07501e+09 0 1
215 3 0 2.07962e+09 2.07989e+09 2.08091e+09 2.08116e+09 0 1
216 2 0 2.08588e+09 2.08615e+09 2.08717e+09 2.08784e+09 0 1
217 1 0 2.09169e+09 2.09196e+09 2.09298e+09 2.09418e+09 0 0
218 1 1 2.10158e+09 2.10185e+09 2.10286e+09 2.10288e+09 1 1
219 3 0 2.11009e+09 2.11036e+09 2.11138e+09 2.1114e+09 0 1
220 1 1 2.11442e+09 2.11469e+09 2.11571e+09 2.11574e+09 0 1
221 2 0 2.12218e+09 2.12243e+09 2.12345e+09 2.12368e+09 0 1
222 1 1 2.13632e+09 2.13658e+09 2.1376e+09 2.13763e+09 0 1
223 1 0 2.15457e+09 2.15482e+09 2.15584e+09 2.15642e+09 0 0
224 1 1 2.16381e+09 2.16407e+09 2.16509e+09 2.16517e+09 1 1
225 1 1 2.17158e+09 2.17185e+09 2.17287e+09 2.17288e+09 0 1
226 2 0 2.17984e+09 2.18009e+09 2.18111e+09 2.18113e+09 0 1
227 3 0 2.19315e+09 2.19341e+09 2.19443e+09 2.19444e+09 0 1
228 1 1 2.20737e+09 2.20764e+09 2.20865e+09 2.20876e+09 0 1
229 3 0 2.21508e+09 2.21533e+09 2.21635e+09 2.21636e+09 0 1
230 1 1 2.22617e+09 2.22644e+09 2.22746e+09 2.22757e+09 0 1
231 1 1 2.23478e+09 2.23502e+09 2.23604e+09 2.23613e+09 0 1
232 1 1 2.24997e+09 2.25024e+09 2.25126e+09 2.25144e+09 0 1
233 1 0 2.25683e+09 2.25709e+09 2.25811e+09 2.25811e+09 0 0
234 1 1 2.26562e+09 2.26587e+09 2.26689e+09 2.26696e+09 1 1
235 3 1 2.2718e+09 2.27205e+09 2.27307e+09 2.27386e+09 0 0
236 3 0 2.28377e+09 2.28402e+09 2.28504e+09 2.28514e+09 1 1
237 1 1 2.2914e+09 2.29167e+09 2.29269e+09 2.29275e+09 0 1
238 1 1 2.29956e+09 2.29983e+09 2.30085e+09 2.3009e+09 0 1
239 3 0 2.30503e+09 2.30529e+09 2.30631e+09 2.30662e+09 0 1
240 1 1 2.30964e+09 2.30991e+09 2.31092e+09 2.31095e+09 0 1
241 1 1 2.31614e+09 2.3164e+09 2.31742e+09 2.3175e+09 0 1
242 2 0 2.32554e+09 2.3258e+09 2.32682e+09 2.32685e+09 0 1
243 1 1 2.33183e+09 2.33209e+09 2.33311e+09 2.33333e+09 0 1
244 2 1 2.33583e+09 2.33609e+09 2.33711e+09 2.33721e+09 0 0
245 2 1 2.35009e+09 2.35035e+09 2.35137e+09 2.35147e+09 1 0
246 2 0 2.36141e+09 2.36167e+09 2.36269e+09 2.36295e+09 1 1
247 3 0 2.3682e+09 2.36846e+09 2.36947e+09 2.36949e+09 0 1
248 1 1 2.37412e+09 2.37438e+09 2.3754e+09 2.37541e+09 0 1
249 3 0 2.38423e+09 2.38449e+09 2.38551e+09 2.38552e+09 0 1
250 1 1 2.38835e+09 2.38861e+09 2.38963e+09 2.38965e+09 0 1
251 3 0 2.39838e+09 2.39865e+09 2.39967e+09 2.39968e+09 0 1
252 1 1 2.40344e+09 2.4037e+09 2.40472e+09 2.40485e+09 0 1
253 3 0 2.4156e+09 2.41588e+09 2.4169e+09 2.41745e+09 0 1
254 1 1 2.42075e+09 2.42101e+09 2.42203e+09 2.42205e+09 0 1
255 2 0 2.42469e+09 2.42495e+09 2.42597e+09 2.42601e+09 0 1
256 1 1 2.43598e+09 2.43624e+09 2.43726e+09 2.43727e+09 0 1
257 2 0 2.44538e+09 2.44564e+09 2.44666e+09 2.44667e+09 0 1
258 3 0 2.45081e+09 2.45107e+09 2.45209e+09 2.4521e+09 0 1
259 1 0 2.45623e+09 2.45649e+09 2.45751e+09 2.45789e+09 0 0
260 1 1 2.46493e+09 2.4652e+09 2.46622e+09 2.46624e+09 1 1
261 2 0 2.47765e+09 2.4779e+09 2.47892e+09 2.47893e+09 0 1
262 1 1 2.48171e+09 2.48196e+09 2.48298e+09 2.48306e+09 0 1
263 1 1 2.48952e+09 2.48978e+09 2.4908e+09 2.49082e+09 0 1
264 3 0 2.49679e+09 2.49705e+09 2.49807e+09 2.49825e+09 0 1
265 1 1 2.51444e+09 2.51471e+09 2.51573e+09 2.51574e+09 0 1
266 2 0 2.5302e+09 2.53046e+09 2.53148e+09 2.53162e+09 0 1
267 1 1 2.53732e+09 2.53758e+09 2.5386e+09 2.53882e+09 0 1
268 1 1 2.54568e+09 2.54594e+09 2.54696e+09 2.54698e+09 0 1
269 1 1 2.55025e+09 2.55052e+09 2.55153e+09 2.55162e+09 0 1
270 3 0 2.55416e+09 2.55443e+09 2.55545e+09 2.5555e+09 0 1
271 1 1 2.56034e+09 2.56062e+09 2.56164e+09 2.56167e+09 0 1
272 3 0 2.56978e+09 2.57004e+09 2.57105e+09 2.57106e+09 0 1
273 3 0 2.57376e+09 2.57402e+09 2.57504e+09 2.57509e+09 0 1
274 3 0 2.58149e+09 2.58174e+09 2.58276e+09 2.58276e+09 0 1
275 2 0 2.58533e+09 2.5856e+09 2.58662e+09 2.58667e+09 0 1
276 3 0 2.58962e+09 2.58987e+09 2.59089e+09 2.59116e+09 0 1
277 3 0 2.59419e+09 2.59446e+09 2.59548e+09 2.59552e+09 0 1
278 2 0 2.59823e+09 2.59849e+09 2.59951e+09 2.59952e+09 0 1
279 1 1 2.60207e+09 2.60232e+09 2.60334e+09 2.60354e+09 0 1
280 3 0 2.60939e+09 2.60967e+09 2.61069e+09 2.6107e+09 0 1
281 1 1 2.61368e+09 2.61394e+09 2.61496e+09 2.61498e+09 0 1
282 1 1 2.62367e+09 2.62393e+09 2.62495e+09 2.62506e+09 0 1
283 2 1 2.62863e+09 2.62888e+09 2.6299e+09 2.63039e+09 0 0
284 2 0 2.63773e+09 2.63799e+09 2.63901e+09 2.63902e+09 1 1
285 1 1 2.64308e+09 2.64335e+09 2.64437e+09 2.64439e+09 0 1
286 2 0 2.65276e+09 2.65303e+09 2.65405e+09 2.6541e+09 0 1
287 1 1 2.65701e+09 2.65728e+09 2.6583e+09 2.65835e+09 0 1
288 2 0 2.66578e+09 2.66603e+09 2.66705e+09 2.66708e+09 0 1
289 2 1 2.67028e+09 2.67055e+09 2.67157e+09 2.67258e+09 0 0
290 2 0 2.67982e+09 2.68008e+09 2.6811e+09 2.68111e+09 1 1
291 2 0 2.68383e+09 2.6841e+09 2.68512e+09 2.68512e+09 0 1
292 1 1 2.68776e+09 2.68802e+09 2.68904e+09 2.68908e+09 0 1
293 1 1 2.6934e+09 2.69366e+09 2.69468e+09 2.69471e+09 0 1
294 3 0 2.70191e+09 2.70218e+09 2.7032e+09 2.70353e+09 0 1
295 1 1 2.71184e+09 2.71209e+09 2.71311e+09 2.71312e+09 0 1
296 1 1 2.71579e+09 2.71607e+09 2.71709e+09 2.71711e+09 0 1
297 1 0 2.72335e+09 2.72361e+09 2.72463e+09 2.72473e+09 0 0
298 1 1 2.73208e+09 2.73233e+09 2.73335e+09 2.73338e+09 1 1
299 1 1 2.74646e+09 2.74672e+09 2.74774e+09 2.74775e+09 0 1
300 2 0 2.75228e+09 2.75253e+09 2.75355e+09 2.75357e+09 0 1
301 3 0 2.75667e+09 2.75694e+09 2.75796e+09 2.75855e+09 0 1
302 1 0 2.76128e+09 2.76154e+09 2.76256e+09 2.76353e+09 0 0
303 1 1 2.77069e+09 2.77096e+09 2.77198e+09 2.772e+09 1 1
304 2 0 2.77764e+09 2.7779e+09 2.77892e+09 2.77893e+09 0 1
305 1 1 2.78342e+09 2.78368e+09 2.7847e+09 2.78472e+09 0 1
306 3 0 2.78769e+09 2.78795e+09 2.78897e+09 2.78898e+09 0 1
307 1 1 2.79448e+09 2.79474e+09 2.79576e+09 2.7958e+09 0 1
308 2 0 2.80038e+09 2.80065e+09 2.80166e+09 2.80213e+09 0 1
309 1 1 2.80465e+09 2.80492e+09 2.80594e+09 2.80604e+09 0 1
310 1 1 2.81257e+09 2.81284e+09 2.81386e+09 2.81394e+09 0 1
311 1 1 2.81749e+09 2.81776e+09 2.81878e+09 2.81884e+09 0 1
312 2 1 2.82342e+09 2.82369e+09 2.82471e+09 2.8248e+09 0 0
313 2 0 2.83189e+09 2.83216e+09 2.83318e+09 2.83323e+09 1 1
314 3 1 2.83609e+09 2.83636e+09 2.83737e+09 2.83787e+09 0 0
315 3 0 2.84556e+09 2.84582e+09 2.84684e+09 2.84693e+09 1 1
316 3 0 2.85196e+09 2.85222e+09 2.85324e+09 2.85325e+09 0 1
317 3 0 2.85614e+09 2.85639e+09 2.85741e+09 2.85746e+09 0 1
318 1 1 2.86341e+09 2.86366e+09 2.86468e+09 2.86469e+09 0 1
319 2 1 2.86886e+09 2.86911e+09 2.87013e+09 2.8707e+09 0 0
320 2 0 2.87786e+09 2.87812e+09 2.87914e+09 2.87915e+09 1 1
321 2 0 2.8825e+09 2.88276e+09 2.88378e+09 2.8838e+09 0 1
322 2 0 2.8887e+09 2.88896e+09 2.88998e+09 2.89038e+09 0 1
323 2 0 2.89355e+09 2.89381e+09 2.89483e+09 2.89508e+09 0 1
324 3 0 2.8977e+09 2.89796e+09 2.89898e+09 2.89942e+09 0 1
325 1 1 2.90337e+09 2.90362e+09 2.90464e+09 2.90465e+09 0 1
326 1 1 2.91154e+09 2.91181e+09 2.91283e+09 2.91284e+09 0 1
327 1 1 2.91744e+09 2.91771e+09 2.91873e+09 2.91873e+09 0 1
328 3 0 2.92324e+09 2.9235e+09 2.92452e+09 2.92462e+09 0 1
329 1 1 2.92715e+09 2.92741e+09 2.92842e+09 2.92855e+09 0 1
330 1 1 2.9315e+09 2.93176e+09 2.93278e+09 2.9328e+09 0 1
331 2 0 2.93584e+09 2.93611e+09 2.93713e+09 2.93724e+09 0 1
332 3 0 2.94073e+09 2.94099e+09 2.94201e+09 2.94204e+09 0 1
333 1 1 2.94619e+09 2.94646e+09 2.94748e+09 2.94757e+09 0 1
334 1 0 2.95258e+09 2.95284e+09 2.95386e+09 2.95393e+09 0 0
335 1 1 2.96133e+09 2.96158e+09 2.9626e+09 2.96262e+09 1 1
336 1 1 2.96576e+09 2.96603e+09 2.96705e+09 2.96713e+09 0 1
337 1 1 2.9699e+09 2.97017e+09 2.97119e+09 2.97119e+09 0 1
338 2 0 2.97482e+09 2.97509e+09 2.9761e+09 2.97613e+09 0 1
339 1 1 2.981e+09 2.98126e+09 2.98228e+09 2.9823e+09 0 1
340 1 1 2.98596e+09 2.98622e+09 2.98724e+09 2.98738e+09 0 1
341 2 0 2.99096e+09 2.99122e+09 2.99224e+09 2.99411e+09 0 1
342 1 1 2.99848e+09 2.99875e+09 2.99977e+09 2.99978e+09 0 1
343 1 1 3.00275e+09 3.00302e+09 3.00404e+09 3.00435e+09 0 1
344 3 0 3.00747e+09 3.00774e+09 3.00876e+09 3.01732e+09 0 1
345 3 0 3.02039e+09 3.02066e+09 3.02168e+09 3.02193e+09 0 1
346 2 0 3.02466e+09 3.02492e+09 3.02594e+09 3.03958e+09 0 1
347 1 1 3.04243e+09 3.04268e+09 3.0437e+09 3.0438e+09 0 1
348 1 1 3.04678e+09 3.04703e+09 3.04805e+09 3.04807e+09 0 1
349 1 0 3.05214e+09 3.0524e+09 3.05342e+09 3.05345e+09 0 0
350 1 1 3.06084e+09 3.06109e+09 3.06211e+09 3.06237e+09 1 1
351 3 0 3.06499e+09 3.06526e+09 3.06628e+09 3.07635e+09 0 1
352 3 0 3.08043e+09 3.08069e+09 3.08171e+09 3.08172e+09 0 1
353 1 0 3.08516e+09 3.08543e+09 3.08645e+09 3.08692e+09 0 0
354 1 0 3.09433e+09 3.09459e+09 3.09561e+09 3.10372e+09 1 0
355 1 0 3.1111e+09 3.11137e+09 3.11239e+09 3.11366e+09 1 0
356 1 1 3.12111e+09 3.12136e+09 3.12238e+09 3.12927e+09 1 1
357 2 0 3.13282e+09 3.13309e+09 3.13411e+09 3.22489e+09 0 1
358 1 1 3.22859e+09 3.22884e+09 3.22986e+09 3.23849e+09 0 1
