trial trialType response stillTime stimOnset stimOffset respTime correctionTrial correct
001 1 1 9.64302e+06 9.92724e+06 1.09464e+07 1.1462e+07 0 1
002 1 1 3.52533e+07 3.55227e+07 3.65419e+07 3.65596e+07 0 1
003 1 1 4.7571e+07 4.78452e+07 4.88643e+07 4.89407e+07 0 1
004 2 0 5.24677e+07 5.27246e+07 5.37437e+07 5.37496e+07 0 1
005 1 1 8.0001e+07 8.02546e+07 8.12737e+07 8.13737e+07 0 1
006 2 0 1.08936e+08 1.09196e+08 1.10215e+08 1.10264e+08 0 1
007 1 0 1.13059e+08 1.13318e+08 1.14337e+08 1.14384e+08 0 0
008 1 1 1.24767e+08 1.25014e+08 1.26033e+08 1.26042e+08 1 1
009 1 0 1.32719e+08 1.32973e+08 1.33992e+08 1.34011e+08 0 0
010 1 1 1.49117e+08 1.49361e+08 1.5038e+08 1.50479e+08 1 1
011 2 0 1.54503e+08 1.54771e+08 1.5579e+08 1.5586e+08 0 1
012 2 0 1.63146e+08 1.63403e+08 1.64423e+08 1.64429e+08 0 1
013 2 0 2.05114e+08 2.05377e+08 2.06396e+08 2.06401e+08 0 1
014 1 1 2.11001e+08 2.11266e+08 2.12286e+08 2.12329e+08 0 1
015 2 0 2.31889e+08 2.32146e+08 2.33165e+08 2.3318e+08 0 1
016 1 0 2.46561e+08 2.46822e+08 2.47841e+08 2.47957e+08 0 0
017 1 1 2.57437e+08 2.57686e+08 2.58705e+08 2.59661e+08 1 1
018 2 0 2.67546e+08 2.67812e+08 2.68831e+08 2.68927e+08 0 1
019 2 0 2.98612e+08 2.98866e+08 2.99885e+08 2.99924e+08 0 1
020 2 0 3.24873e+08 3.25128e+08 3.26147e+08 3.26333e+08 0 1
021 2 0 3.29201e+08 3.29464e+08 3.30483e+08 3.30498e+08 0 1
022 2 0 3.37373e+08 3.37629e+08 3.38648e+08 3.38667e+08 0 1
023 2 0 3.606e+08 3.60861e+08 3.6188e+08 3.61885e+08 0 1
024 2 0 3.73656e+08 3.73904e+08 3.74923e+08 3.75385e+08 0 1
025 2 0 3.78792e+08 3.79047e+08 3.80066e+08 3.80076e+08 0 1
026 1 1 3.83062e+08 3.83315e+08 3.84334e+08 3.84351e+08 0 1
027 2 0 3.87742e+08 3.87986e+08 3.89005e+08 3.89082e+08 0 1
028 2 0 4.16411e+08 4.16655e+08 4.17675e+08 4.17822e+08 0 1
029 1 0 4.37976e+08 4.38234e+08 4.39253e+08 4.3926e+08 0 0
030 1 0 4.49997e+08 4.50253e+08 4.51272e+08 4.51324e+08 1 0
031 1 1 4.58605e+08 4.5885e+08 4.59869e+08 4.60295e+08 1 1
032 1 1 4.71408e+08 4.71653e+08 4.72672e+08 4.7304e+08 0 1
033 2 0 4.9219e+08 4.92452e+08 4.93472e+08 4.93483e+08 0 1
034 1 1 5.00994e+08 5.01244e+08 5.02263e+08 5.02268e+08 0 1
035 1 1 5.11767e+08 5.12011e+08 5.1303e+08 5.13641e+08 0 1
036 1 1 5.22245e+08 5.22504e+08 5.23523e+08 5.23816e+08 0 1
037 1 0 5.37076e+08 5.3732e+08 5.38339e+08 5.38578e+08 0 0
038 1 1 5.52158e+08 5.52417e+08 5.53436e+08 5.53505e+08 1 1
039 1 0 5.64195e+08 5.64444e+08 5.65463e+08 5.65521e+08 0 0
040 1 1 5.74414e+08 5.74667e+08 5.75687e+08 5.75738e+08 1 1
041 2 0 5.93801e+08 5.94057e+08 5.95077e+08 5.95089e+08 0 1
042 2 0 5.97746e+08 5.97997e+08 5.99016e+08 5.99035e+08 0 1
043 2 0 6.19165e+08 6.19414e+08 6.20433e+08 6.20438e+08 0 1
044 1 0 6.28259e+08 6.28512e+08 6.29531e+08 6.29582e+08 0 0
045 1 1 6.46472e+08 6.46715e+08 6.47734e+08 6.47791e+08 1 1
046 2 0 6.54633e+08 6.54891e+08 6.5591e+08 6.55915e+08 0 1
047 1 1 6.64937e+08 6.65186e+08 6.66205e+08 6.66643e+08 0 1
048 2 0 6.71653e+08 6.71911e+08 6.7293e+08 6.7294e+08 0 1
049 1 1 6.79365e+08 6.79616e+08 6.80636e+08 6.80662e+08 0 1
050 1 1 6.89695e+08 6.89952e+08 6.90971e+08 6.90978e+08 0 1
051 1 0 6.96931e+08 6.97189e+08 6.98208e+08 6.98216e+08 0 0
052 1 0 7.08548e+08 7.08799e+08 7.09818e+08 7.0986e+08 1 0
053 1 1 7.17095e+08 7.1736e+08 7.18379e+08 7.18388e+08 1 1
054 1 0 7.23286e+08 7.23547e+08 7.24566e+08 7.27362e+08 0 0
055 1 0 7.35172e+08 7.35425e+08 7.36444e+08 7.36608e+08 1 0
056 1 1 7.45338e+08 7.45583e+08 7.46602e+08 7.46628e+08 1 1
057 1 1 7.50006e+08 7.50256e+08 7.51275e+08 7.59781e+08 0 1
058 2 0 7.62454e+08 7.62709e+08 7.63728e+08 7.63738e+08 0 1
059 1 0 7.66249e+08 7.66494e+08 7.67513e+08 7.67579e+08 0 0
060 1 0 7.78318e+08 7.78571e+08 7.79591e+08 7.79615e+08 1 0
061 1 0 7.86865e+08 7.87119e+08 7.88138e+08 7.95719e+08 1 0
062 1 0 8.03479e+08 8.03721e+08 8.0474e+08 8.04843e+08 1 0
063 2 0 8.11983e+08 8.1224e+08 8.13259e+08 8.13285e+08 0 1
064 1 1 8.15933e+08 8.16181e+08 8.172e+08 8.17288e+08 0 1
065 2 0 8.2081e+08 8.21071e+08 8.2209e+08 8.22106e+08 0 1
066 2 0 8.34474e+08 8.34735e+08 8.35754e+08 8.35761e+08 0 1
067 2 0 8.4406e+08 8.44315e+08 8.45334e+08 8.45348e+08 0 1
068 1 0 8.5402e+08 8.54276e+08 8.55295e+08 8.55552e+08 0 0
069 1 1 8.64538e+08 8.64789e+08 8.65808e+08 8.65977e+08 1 1
070 2 0 8.72421e+08 8.72677e+08 8.73697e+08 8.73791e+08 0 1
071 2 0 8.77517e+08 8.77776e+08 8.78795e+08 8.78891e+08 0 1
072 1 0 8.88831e+08 8.89086e+08 8.90106e+08 8.90119e+08 0 0
073 1 0 8.97528e+08 8.97781e+08 8.988e+08 8.98887e+08 1 0
074 1 1 9.06879e+08 9.0713e+08 9.08149e+08 9.09146e+08 1 1
075 1 0 9.16342e+08 9.16584e+08 9.17603e+08 9.17637e+08 0 0
076 1 1 9.26163e+08 9.26422e+08 9.27441e+08 9.27603e+08 1 1
077 1 1 9.3187e+08 9.32125e+08 9.33144e+08 9.33174e+08 0 1
078 1 0 9.38086e+08 9.38332e+08 9.39351e+08 9.39658e+08 0 0
079 1 1 9.47891e+08 9.48149e+08 9.49168e+08 9.49172e+08 1 1
080 1 0 9.51858e+08 9.52109e+08 9.53128e+08 9.60532e+08 0 0
081 1 0 9.67673e+08 9.67933e+08 9.68952e+08 9.69147e+08 1 0
082 1 1 9.77573e+08 9.77821e+08 9.7884e+08 9.78845e+08 1 1
083 1 0 9.84321e+08 9.84585e+08 9.85604e+08 9.85627e+08 0 0
084 1 0 9.93326e+08 9.93588e+08 9.94607e+08 9.94729e+08 1 0
085 1 1 1.0035e+09 1.00376e+09 1.00478e+09 1.00478e+09 1 1
086 1 1 1.0091e+09 1.00935e+09 1.01037e+09 1.01059e+09 0 1
087 2 0 1.01454e+09 1.01479e+09 1.01581e+09 1.01584e+09 0 1
088 1 0 1.021e+09 1.02125e+09 1.02227e+09 1.02241e+09 0 0
089 1 0 1.02989e+09 1.03015e+09 1.03117e+09 1.03125e+09 1 0
090 1 1 1.03858e+09 1.03884e+09 1.03986e+09 1.03986e+09 1 1
091 1 0 1.04452e+09 1.04477e+09 1.04579e+09 1.04587e+09 0 0
092 1 1 1.05425e+09 1.0545e+09 1.05552e+09 1.05553e+09 1 1
093 1 1 1.0594e+09 1.05966e+09 1.06068e+09 1.06073e+09 0 1
094 1 1 1.07303e+09 1.07328e+09 1.0743e+09 1.07433e+09 0 1
095 1 1 1.08326e+09 1.08352e+09 1.08453e+09 1.08456e+09 0 1
096 1 1 1.08738e+09 1.08764e+09 1.08866e+09 1.08879e+09 0 1
097 1 0 1.09189e+09 1.09215e+09 1.09317e+09 1.09446e+09 0 0
098 1 1 1.10183e+09 1.10209e+09 1.10311e+09 1.10312e+09 1 1
099 1 1 1.11428e+09 1.11453e+09 1.11555e+09 1.11583e+09 0 1
100 1 1 1.12226e+09 1.12252e+09 1.12354e+09 1.12383e+09 0 1
101 2 0 1.12686e+09 1.12712e+09 1.12814e+09 1.12814e+09 0 1
102 1 0 1.1379e+09 1.13815e+09 1.13917e+09 1.13929e+09 0 0
103 1 1 1.14774e+09 1.148e+09 1.14901e+09 1.14904e+09 1 1
104 2 0 1.15187e+09 1.15212e+09 1.15314e+09 1.15315e+09 0 1
105 1 0 1.15871e+09 1.15896e+09 1.15997e+09 1.16006e+09 0 0
106 1 1 1.16776e+09 1.16802e+09 1.16904e+09 1.16932e+09 1 1
107 1 1 1.17198e+09 1.17225e+09 1.17327e+09 1.17331e+09 0 1
108 2 0 1.1772e+09 1.17746e+09 1.17848e+09 1.17852e+09 0 1
109 2 0 1.18855e+09 1.1888e+09 1.18982e+09 1.18983e+09 0 1
110 2 0 1.20199e+09 1.20225e+09 1.20327e+09 1.20334e+09 0 1
111 2 0 1.20749e+09 1.20775e+09 1.20877e+09 1.20878e+09 0 1
112 1 1 1.21862e+09 1.21888e+09 1.21989e+09 1.21991e+09 0 1
113 2 0 1.22423e+09 1.22449e+09 1.22551e+09 1.22554e+09 0 1
114 2 0 1.23765e+09 1.23791e+09 1.23893e+09 1.23894e+09 0 1
115 2 0 1.24701e+09 1.24726e+09 1.24828e+09 1.24836e+09 0 1
116 2 0 1.2579e+09 1.25817e+09 1.25919e+09 1.25919e+09 0 1
117 1 1 1.26465e+09 1.2649e+09 1.26592e+09 1.26592e+09 0 1
118 2 0 1.27057e+09 1.27083e+09 1.27185e+09 1.27185e+09 0 1
119 2 0 1.28687e+09 1.28713e+09 1.28815e+09 1.28819e+09 0 1
120 2 0 1.29769e+09 1.29795e+09 1.29897e+09 1.29905e+09 0 1
121 2 0 1.30688e+09 1.30714e+09 1.30816e+09 1.30824e+09 0 1
122 2 0 1.31308e+09 1.31333e+09 1.31435e+09 1.31439e+09 0 1
123 1 1 1.31907e+09 1.31932e+09 1.32034e+09 1.32036e+09 0 1
124 2 0 1.32404e+09 1.32429e+09 1.32531e+09 1.32535e+09 0 1
125 1 1 1.32827e+09 1.32854e+09 1.32956e+09 1.32961e+09 0 1
126 2 0 1.33682e+09 1.33707e+09 1.33809e+09 1.33824e+09 0 1
127 1 1 1.34323e+09 1.34349e+09 1.3445e+09 1.34457e+09 0 1
128 2 0 1.35151e+09 1.35176e+09 1.35278e+09 1.35279e+09 0 1
129 2 0 1.35669e+09 1.35695e+09 1.35797e+09 1.35798e+09 0 1
130 2 0 1.36094e+09 1.3612e+09 1.36222e+09 1.36224e+09 0 1
131 1 0 1.36518e+09 1.36543e+09 1.36645e+09 1.36664e+09 0 0
132 1 1 1.37517e+09 1.37543e+09 1.37645e+09 1.37645e+09 1 1
133 2 0 1.38049e+09 1.38074e+09 1.38176e+09 1.38178e+09 0 1
134 1 1 1.38895e+09 1.38921e+09 1.39023e+09 1.39029e+09 0 1
135 2 0 1.39304e+09 1.39329e+09 1.39431e+09 1.39432e+09 0 1
136 2 0 1.4032e+09 1.40345e+09 1.40447e+09 1.40451e+09 0 1
137 2 0 1.4072e+09 1.40745e+09 1.40847e+09 1.40855e+09 0 1
138 2 0 1.41486e+09 1.41511e+09 1.41613e+09 1.41614e+09 0 1
139 1 0 1.41881e+09 1.41906e+09 1.42008e+09 1.4201e+09 0 0
140 1 1 1.42753e+09 1.42779e+09 1.42881e+09 1.42881e+09 1 1
141 1 1 1.43384e+09 1.4341e+09 1.43512e+09 1.43522e+09 0 1
142 2 0 1.43985e+09 1.4401e+09 1.44111e+09 1.44113e+09 0 1
143 2 0 1.44825e+09 1.4485e+09 1.44951e+09 1.44965e+09 0 1
144 2 0 1.4522e+09 1.45245e+09 1.45347e+09 1.45349e+09 0 1
145 2 0 1.45611e+09 1.45636e+09 1.45738e+09 1.45738e+09 0 1
146 1 0 1.47663e+09 1.47688e+09 1.4779e+09 1.47794e+09 0 0
147 1 0 1.48593e+09 1.48619e+09 1.48721e+09 1.48731e+09 1 0
148 1 1 1.4957e+09 1.49595e+09 1.49696e+09 1.49697e+09 1 1
149 2 0 1.50315e+09 1.5034e+09 1.50442e+09 1.50449e+09 0 1
150 2 0 1.50775e+09 1.50801e+09 1.50903e+09 1.50904e+09 0 1
151 2 0 1.52198e+09 1.52223e+09 1.52325e+09 1.52331e+09 0 1
152 1 1 1.52674e+09 1.52699e+09 1.52801e+09 1.52801e+09 0 1
153 2 0 1.53061e+09 1.53088e+09 1.5319e+09 1.53191e+09 0 1
154 2 0 1.54265e+09 1.54291e+09 1.54393e+09 1.54399e+09 0 1
155 1 1 1.54997e+09 1.55021e+09 1.55123e+09 1.55125e+09 0 1
156 2 0 1.55406e+09 1.55431e+09 1.55533e+09 1.55541e+09 0 1
157 1 1 1.56395e+09 1.5642e+09 1.56522e+09 1.56523e+09 0 1
158 2 0 1.57135e+09 1.5716e+09 1.57262e+09 1.57265e+09 0 1
159 1 1 1.57556e+09 1.5758e+09 1.57682e+09 1.57689e+09 0 1
160 1 1 1.59139e+09 1.59165e+09 1.59266e+09 1.59267e+09 0 1
161 1 0 1.59645e+09 1.59669e+09 1.59771e+09 1.59781e+09 0 0
162 1 1 1.60761e+09 1.60786e+09 1.60888e+09 1.60891e+09 1 1
163 2 0 1.614e+09 1.61425e+09 1.61527e+09 1.61529e+09 0 1
164 2 0 1.62211e+09 1.62237e+09 1.62339e+09 1.62349e+09 0 1
165 1 0 1.63415e+09 1.63439e+09 1.63541e+09 1.63545e+09 0 0
166 1 0 1.64382e+09 1.64408e+09 1.6451e+09 1.64511e+09 1 0
167 1 0 1.65236e+09 1.65261e+09 1.65362e+09 1.65408e+09 1 0
168 1 1 1.66146e+09 1.66171e+09 1.66273e+09 1.6629e+09 1 1
169 2 0 1.67291e+09 1.67317e+09 1.67418e+09 1.67429e+09 0 1
170 2 0 1.68091e+09 1.68118e+09 1.6822e+09 1.6822e+09 0 1
171 1 0 1.68721e+09 1.68747e+09 1.68848e+09 1.6885e+09 0 0
172 1 1 1.69592e+09 1.69618e+09 1.6972e+09 1.69723e+09 1 1
173 2 0 1.70368e+09 1.70394e+09 1.70496e+09 1.70504e+09 0 1
174 1 1 1.71025e+09 1.7105e+09 1.71152e+09 1.71158e+09 0 1
175 2 0 1.72097e+09 1.72122e+09 1.72224e+09 1.72289e+09 0 1
176 2 0 1.72749e+09 1.72774e+09 1.72876e+09 1.72889e+09 0 1
177 1 0 1.73473e+09 1.73498e+09 1.736e+09 1.73607e+09 0 0
178 1 1 1.74388e+09 1.74413e+09 1.74515e+09 1.7452e+09 1 1
179 1 1 1.74785e+09 1.7481e+09 1.74912e+09 1.74915e+09 0 1
180 2 0 1.75555e+09 1.7558e+09 1.75682e+09 1.75688e+09 0 1
181 1 0 1.76642e+09 1.76668e+09 1.76769e+09 1.76779e+09 0 0
182 1 1 1.77626e+09 1.77651e+09 1.77753e+09 1.77759e+09 1 1
183 1 0 1.78281e+09 1.78306e+09 1.78408e+09 1.78426e+09 0 0
184 1 1 1.79132e+09 1.79157e+09 1.79259e+09 1.79296e+09 1 1
185 1 1 1.80065e+09 1.80089e+09 1.80191e+09 1.80195e+09 0 1
186 2 0 1.80682e+09 1.80707e+09 1.80809e+09 1.8081e+09 0 1
187 1 0 1.81569e+09 1.81594e+09 1.81696e+09 1.817e+09 0 0
188 1 1 1.82443e+09 1.82468e+09 1.8257e+09 1.82575e+09 1 1
189 1 1 1.82988e+09 1.83013e+09 1.83115e+09 1.83119e+09 0 1
190 2 0 1.83587e+09 1.83612e+09 1.83714e+09 1.83717e+09 0 1
191 2 0 1.84401e+09 1.84428e+09 1.8453e+09 1.84536e+09 0 1
192 1 0 1.8499e+09 1.85015e+09 1.85117e+09 1.85121e+09 0 0
193 1 1 1.85854e+09 1.8588e+09 1.85982e+09 1.85983e+09 1 1
194 1 0 1.87803e+09 1.87829e+09 1.87931e+09 1.87933e+09 0 0
195 1 1 1.8865e+09 1.88675e+09 1.88777e+09 1.88782e+09 1 1
196 2 0 1.89694e+09 1.8972e+09 1.89822e+09 1.89836e+09 0 1
197 2 0 1.9009e+09 1.90116e+09 1.90218e+09 1.90243e+09 0 1
198 2 0 1.90914e+09 1.9094e+09 1.91042e+09 1.91056e+09 0 1
199 2 0 1.91324e+09 1.91351e+09 1.91453e+09 1.91458e+09 0 1
200 2 0 1.92656e+09 1.92682e+09 1.92783e+09 1.92799e+09 0 1
201 1 1 1.93499e+09 1.93523e+09 1.93625e+09 1.93628e+09 0 1
202 1 1 1.9425e+09 1.94275e+09 1.94377e+09 1.94384e+09 0 1
203 1 1 1.94802e+09 1.94828e+09 1.9493e+09 1.94931e+09 0 1
204 2 0 1.95393e+09 1.9542e+09 1.95521e+09 1.95522e+09 0 1
205 2 0 1.95791e+09 1.95816e+09 1.95918e+09 1.95923e+09 0 1
206 2 0 1.97113e+09 1.97139e+09 1.9724e+09 1.97241e+09 0 1
207 2 0 1.98153e+09 1.98178e+09 1.9828e+09 1.98297e+09 0 1
208 1 1 1.98838e+09 1.98863e+09 1.98965e+09 1.98966e+09 0 1
209 2 0 1.9933e+09 1.99356e+09 1.99458e+09 1.99472e+09 0 1
210 2 0 2.00292e+09 2.00318e+09 2.0042e+09 2.00424e+09 0 1
211 1 1 2.00679e+09 2.00705e+09 2.00807e+09 2.00822e+09 0 1
212 1 1 2.01559e+09 2.01585e+09 2.01687e+09 2.01692e+09 0 1
213 1 0 2.01975e+09 2.02001e+09 2.02103e+09 2.0211e+09 0 0
214 1 0 2.03038e+09 2.03063e+09 2.03165e+09 2.03172e+09 1 0
215 1 1 2.03892e+09 2.03917e+09 2.04019e+09 2.0402e+09 1 1
216 1 1 2.04501e+09 2.04526e+09 2.04628e+09 2.04629e+09 0 1
217 2 0 2.04938e+09 2.04965e+09 2.05067e+09 2.05142e+09 0 1
218 1 0 2.05928e+09 2.05953e+09 2.06055e+09 2.06064e+09 0 0
219 1 1 2.06793e+09 2.06818e+09 2.0692e+09 2.0692e+09 1 1
220 1 1 2.07183e+09 2.07209e+09 2.07311e+09 2.07316e+09 0 1
221 2 0 2.08063e+09 2.08089e+09 2.08191e+09 2.08199e+09 0 1
222 1 0 2.08517e+09 2.08543e+09 2.08645e+09 2.08652e+09 0 0
223 1 1 2.09405e+09 2.0943e+09 2.09532e+09 2.09539e+09 1 1
224 1 1 2.09816e+09 2.09841e+09 2.09943e+09 2.09943e+09 0 1
225 2 0 2.10349e+09 2.10374e+09 2.10476e+09 2.10477e+09 0 1
226 1 0 2.11255e+09 2.11279e+09 2.11381e+09 2.11385e+09 0 0
227 1 1 2.12126e+09 2.12152e+09 2.12254e+09 2.12264e+09 1 1
228 2 0 2.12562e+09 2.12587e+09 2.12688e+09 2.12692e+09 0 1
229 1 1 2.12947e+09 2.12973e+09 2.13074e+09 2.13286e+09 0 1
230 1 1 2.13902e+09 2.13928e+09 2.1403e+09 2.14086e+09 0 1
231 1 1 2.14376e+09 2.144e+09 2.14502e+09 2.14565e+09 0 1
232 1 0 2.152e+09 2.15226e+09 2.15328e+09 2.15362e+09 0 0
233 1 0 2.16075e+09 2.161e+09 2.16202e+09 2.16219e+09 1 0
234 1 1 2.16971e+09 2.16997e+09 2.17099e+09 2.171e+09 1 1
235 1 1 2.17737e+09 2.17762e+09 2.17864e+09 2.17865e+09 0 1
236 1 1 2.18267e+09 2.18292e+09 2.18394e+09 2.18394e+09 0 1
237 2 0 2.18686e+09 2.18711e+09 2.18813e+09 2.18822e+09 0 1
238 2 0 2.19103e+09 2.19129e+09 2.19231e+09 2.19232e+09 0 1
239 1 0 2.19615e+09 2.19641e+09 2.19742e+09 2.20376e+09 0 0
240 1 0 2.21568e+09 2.21593e+09 2.21695e+09 2.21704e+09 1 0
241 1 1 2.22425e+09 2.2245e+09 2.22552e+09 2.22559e+09 1 1
242 1 0 2.22885e+09 2.22912e+09 2.23013e+09 2.24532e+09 0 0
243 1 0 2.25336e+09 2.25362e+09 2.25464e+09 2.25477e+09 1 0
244 1 1 2.26279e+09 2.26305e+09 2.26407e+09 2.26414e+09 1 1
245 1 1 2.26841e+09 2.26867e+09 2.26969e+09 2.2698e+09 0 1
246 1 1 2.27231e+09 2.27257e+09 2.27358e+09 2.27362e+09 0 1
247 1 1 2.27907e+09 2.27932e+09 2.28034e+09 2.28035e+09 0 1
248 1 1 2.28317e+09 2.28343e+09 2.28445e+09 2.2845e+09 0 1
249 2 0 2.2884e+09 2.28866e+09 2.28968e+09 2.2897e+09 0 1
250 2 0 2.29722e+09 2.29747e+09 2.29849e+09 2.29911e+09 0 1
251 2 0 2.30343e+09 2.30369e+09 2.3047e+09 2.30472e+09 0 1
252 2 0 2.30737e+09 2.30763e+09 2.30865e+09 2.30866e+09 0 1
253 1 1 2.31312e+09 2.31339e+09 2.31441e+09 2.31448e+09 0 1
254 1 1 2.31858e+09 2.31885e+09 2.31987e+09 2.31991e+09 0 1
255 2 0 2.32579e+09 2.32604e+09 2.32706e+09 2.32712e+09 0 1
256 2 0 2.32997e+09 2.33023e+09 2.33125e+09 2.33126e+09 0 1
257 2 0 2.33411e+09 2.33437e+09 2.33539e+09 2.33539e+09 0 1
258 1 1 2.34405e+09 2.3443e+09 2.34532e+09 2.34585e+09 0 1
259 2 0 2.34838e+09 2.34863e+09 2.34965e+09 2.34967e+09 0 1
260 2 0 2.35345e+09 2.3537e+09 2.35472e+09 2.35473e+09 0 1
261 2 0 2.35765e+09 2.35791e+09 2.35893e+09 2.35894e+09 0 1
262 2 0 2.36172e+09 2.36198e+09 2.363e+09 2.363e+09 0 1
263 1 1 2.37139e+09 2.37165e+09 2.37267e+09 2.37279e+09 0 1
264 2 0 2.37729e+09 2.37754e+09 2.37856e+09 2.37857e+09 0 1
265 1 1 2.38151e+09 2.38177e+09 2.38279e+09 2.38288e+09 0 1
266 2 0 2.38695e+09 2.3872e+09 2.38822e+09 2.38825e+09 0 1
267 1 1 2.39083e+09 2.39108e+09 2.3921e+09 2.3922e+09 0 1
268 2 0 2.39496e+09 2.39521e+09 2.39623e+09 2.39626e+09 0 1
269 1 0 2.39901e+09 2.39926e+09 2.40028e+09 2.40037e+09 0 0
270 1 1 2.40746e+09 2.40772e+09 2.40874e+09 2.40883e+09 1 1
271 2 0 2.41167e+09 2.41192e+09 2.41294e+09 2.41305e+09 0 1
272 1 1 2.41763e+09 2.4179e+09 2.41892e+09 2.41892e+09 0 1
273 1 1 2.42289e+09 2.42314e+09 2.42416e+09 2.42453e+09 0 1
274 1 0 2.43002e+09 2.43028e+09 2.4313e+09 2.43137e+09 0 0
275 1 1 2.43845e+09 2.43871e+09 2.43972e+09 2.43973e+09 1 1
276 1 0 2.44513e+09 2.44538e+09 2.4464e+09 2.44681e+09 0 0
277 1 1 2.45398e+09 2.45423e+09 2.45525e+09 2.45526e+09 1 1
278 2 0 2.45815e+09 2.45839e+09 2.45941e+09 2.45942e+09 0 1
279 1 0 2.46531e+09 2.46557e+09 2.46659e+09 2.46666e+09 0 0
280 1 1 2.47384e+09 2.47411e+09 2.47513e+09 2.47513e+09 1 1
281 2 0 2.48012e+09 2.48038e+09 2.4814e+09 2.48204e+09 0 1
282 1 1 2.485e+09 2.48525e+09 2.48627e+09 2.48627e+09 0 1
283 2 0 2.49207e+09 2.49231e+09 2.49333e+09 2.49341e+09 0 1
284 1 1 2.50034e+09 2.50059e+09 2.50161e+09 2.50164e+09 0 1
285 1 1 2.5042e+09 2.50445e+09 2.50547e+09 2.50549e+09 0 1
286 2 0 2.51018e+09 2.51044e+09 2.51146e+09 2.51151e+09 0 1
287 2 0 2.51823e+09 2.51848e+09 2.5195e+09 2.51954e+09 0 1
288 1 0 2.52646e+09 2.52673e+09 2.52774e+09 2.52778e+09 0 0
289 1 1 2.53518e+09 2.53543e+09 2.53645e+09 2.53657e+09 1 1
290 1 1 2.54337e+09 2.54362e+09 2.54464e+09 2.54465e+09 0 1
291 2 0 2.54737e+09 2.54762e+09 2.54864e+09 2.54869e+09 0 1
292 1 1 2.55402e+09 2.55427e+09 2.55529e+09 2.55532e+09 0 1
293 1 1 2.55938e+09 2.55963e+09 2.56065e+09 2.56066e+09 0 1
294 2 0 2.56547e+09 2.56572e+09 2.56674e+09 2.56675e+09 0 1
295 2 0 2.57289e+09 2.57314e+09 2.57416e+09 2.57419e+09 0 1
296 2 0 2.57681e+09 2.57707e+09 2.57809e+09 2.5781e+09 0 1
297 1 1 2.58129e+09 2.58154e+09 2.58256e+09 2.58261e+09 0 1
298 1 1 2.58689e+09 2.58714e+09 2.58816e+09 2.58835e+09 0 1
299 2 0 2.59304e+09 2.59329e+09 2.59431e+09 2.59432e+09 0 1
300 1 0 2.59701e+09 2.59726e+09 2.59828e+09 2.59851e+09 0 0
301 1 0 2.60744e+09 2.60769e+09 2.60871e+09 2.60876e+09 1 0
302 1 1 2.61602e+09 2.61628e+09 2.61729e+09 2.61733e+09 1 1
303 1 1 2.61996e+09 2.62022e+09 2.62124e+09 2.62137e+09 0 1
304 2 0 2.62425e+09 2.62452e+09 2.62553e+09 2.62557e+09 0 1
305 2 0 2.63132e+09 2.63158e+09 2.6326e+09 2.63261e+09 0 1
306 2 0 2.63665e+09 2.6369e+09 2.63792e+09 2.63796e+09 0 1
307 1 1 2.64538e+09 2.64563e+09 2.64665e+09 2.64676e+09 0 1
308 2 0 2.65272e+09 2.65298e+09 2.654e+09 2.654e+09 0 1
309 1 1 2.65653e+09 2.65678e+09 2.6578e+09 2.65782e+09 0 1
310 2 0 2.66277e+09 2.66303e+09 2.66405e+09 2.66408e+09 0 1
311 2 0 2.66676e+09 2.667e+09 2.66802e+09 2.66802e+09 0 1
312 1 1 2.67067e+09 2.67092e+09 2.67194e+09 2.67196e+09 0 1
313 1 0 2.67647e+09 2.67673e+09 2.67775e+09 2.6778e+09 0 0
314 1 1 2.68555e+09 2.68581e+09 2.68683e+09 2.68692e+09 1 1
315 2 0 2.69058e+09 2.69083e+09 2.69185e+09 2.69185e+09 0 1
316 2 0 2.69463e+09 2.69489e+09 2.69591e+09 2.69593e+09 0 1
317 2 0 2.70139e+09 2.70164e+09 2.70266e+09 2.70322e+09 0 1
318 2 0 2.70919e+09 2.70944e+09 2.71046e+09 2.71061e+09 0 1
319 1 0 2.71468e+09 2.71493e+09 2.71595e+09 2.71598e+09 0 0
320 1 1 2.72311e+09 2.72338e+09 2.72439e+09 2.72452e+09 1 1
321 1 1 2.72734e+09 2.7276e+09 2.72862e+09 2.73881e+09 0 1
322 1 0 2.74258e+09 2.74284e+09 2.74386e+09 2.7441e+09 0 0
323 1 0 2.75128e+09 2.75154e+09 2.75256e+09 2.75258e+09 1 0
324 1 1 2.76041e+09 2.76066e+09 2.76168e+09 2.76169e+09 1 1
325 1 1 2.76442e+09 2.76467e+09 2.76569e+09 2.76587e+09 0 1
326 1 1 2.76864e+09 2.7689e+09 2.76992e+09 2.77014e+09 0 1
327 1 1 2.77756e+09 2.77782e+09 2.77884e+09 2.77889e+09 0 1
328 2 0 2.78274e+09 2.783e+09 2.78402e+09 2.78403e+09 0 1
329 2 0 2.79028e+09 2.79053e+09 2.79155e+09 2.79167e+09 0 1
330 1 0 2.79428e+09 2.79454e+09 2.79556e+09 2.79562e+09 0 0
331 1 0 2.80584e+09 2.80608e+09 2.8071e+09 2.80719e+09 1 0
332 1 1 2.81939e+09 2.81965e+09 2.82067e+09 2.82068e+09 1 1
333 2 0 2.82722e+09 2.82748e+09 2.8285e+09 2.82852e+09 0 1
334 2 0 2.83599e+09 2.83624e+09 2.83726e+09 2.83764e+09 0 1
335 1 0 2.84173e+09 2.84198e+09 2.843e+09 2.84302e+09 0 0
336 1 1 2.85559e+09 2.85585e+09 2.85687e+09 2.85698e+09 1 1
337 2 0 2.85979e+09 2.86005e+09 2.86107e+09 2.86136e+09 0 1
338 2 0 2.86434e+09 2.8646e+09 2.86562e+09 2.86568e+09 0 1
339 2 0 2.8731e+09 2.87336e+09 2.87438e+09 2.87443e+09 0 1
340 2 0 2.8774e+09 2.87765e+09 2.87867e+09 2.87877e+09 0 1
341 2 0 2.88355e+09 2.8838e+09 2.88482e+09 2.88485e+09 0 1
342 1 1 2.88822e+09 2.88848e+09 2.8895e+09 2.8895e+09 0 1
343 1 1 2.89248e+09 2.89272e+09 2.89374e+09 2.89565e+09 0 1
344 2 0 2.89932e+09 2.89958e+09 2.9006e+09 2.9006e+09 0 1
345 1 0 2.9046e+09 2.90485e+09 2.90587e+09 2.90604e+09 0 0
346 1 1 2.91331e+09 2.91356e+09 2.91458e+09 2.91459e+09 1 1
347 2 0 2.91711e+09 2.91736e+09 2.91838e+09 2.9184e+09 0 1
348 1 1 2.92278e+09 2.92304e+09 2.92406e+09 2.92408e+09 0 1
349 1 1 2.92927e+09 2.92953e+09 2.93055e+09 2.93056e+09 0 1
350 1 0 2.93496e+09 2.93521e+09 2.93623e+09 2.93627e+09 0 0
351 1 0 2.9434e+09 2.94366e+09 2.94468e+09 2.94488e+09 1 0
352 1 0 2.95203e+09 2.95228e+09 2.9533e+09 2.95336e+09 1 0
353 1 1 2.96047e+09 2.96073e+09 2.96175e+09 2.96176e+09 1 1
354 1 1 2.96477e+09 2.96505e+09 2.96607e+09 2.96608e+09 0 1
355 2 0 2.9748e+09 2.97505e+09 2.97607e+09 2.97613e+09 0 1
356 1 1 2.98289e+09 2.98314e+09 2.98416e+09 2.98429e+09 0 1
357 2 0 2.98716e+09 2.98741e+09 2.98843e+09 2.98844e+09 0 1
358 1 0 2.99106e+09 2.99131e+09 2.99233e+09 2.99234e+09 0 0
359 1 1 2.99961e+09 2.99986e+09 3.00088e+09 3.00093e+09 1 1
360 2 0 3.00348e+09 3.00374e+09 3.00476e+09 3.00484e+09 0 1
361 2 0 3.00843e+09 3.00868e+09 3.0097e+09 3.00972e+09 0 1
362 2 0 3.01236e+09 3.01261e+09 3.01363e+09 3.01369e+09 0 1
363 2 0 3.0194e+09 3.01966e+09 3.02068e+09 3.02069e+09 0 1
364 1 1 3.0258e+09 3.02606e+09 3.02708e+09 3.02711e+09 0 1
365 1 0 3.03007e+09 3.03033e+09 3.03135e+09 3.03143e+09 0 0
366 1 0 3.04042e+09 3.04068e+09 3.0417e+09 3.04172e+09 1 0
367 1 1 3.04899e+09 3.04924e+09 3.05026e+09 3.05028e+09 1 1
368 2 0 3.05308e+09 3.05333e+09 3.05435e+09 3.05436e+09 0 1
369 1 0 3.05729e+09 3.05754e+09 3.05856e+09 3.05857e+09 0 0
370 1 1 3.06591e+09 3.06616e+09 3.06718e+09 3.0672e+09 1 1
371 2 0 3.0702e+09 3.07047e+09 3.07149e+09 3.07149e+09 0 1
372 1 0 3.07515e+09 3.0754e+09 3.07642e+09 3.07648e+09 0 0
373 1 1 3.08494e+09 3.08521e+09 3.08623e+09 3.08644e+09 1 1
374 1 1 3.09146e+09 3.09172e+09 3.09274e+09 3.09275e+09 0 1
375 1 1 3.0966e+09 3.09685e+09 3.09787e+09 3.09788e+09 0 1
376 2 0 3.10258e+09 3.10285e+09 3.10386e+09 3.10387e+09 0 1
377 2 0 3.1068e+09 3.10706e+09 3.10808e+09 3.10812e+09 0 1
378 1 1 3.11106e+09 3.11131e+09 3.11233e+09 3.11246e+09 0 1
379 1 1 3.11531e+09 3.11557e+09 3.11659e+09 3.11659e+09 0 1
380 2 0 3.11961e+09 3.11988e+09 3.1209e+09 3.12091e+09 0 1
381 2 0 3.12741e+09 3.12767e+09 3.12869e+09 3.1287e+09 0 1
382 1 0 3.13136e+09 3.13162e+09 3.13264e+09 3.1327e+09 0 0
383 1 0 3.14012e+09 3.14038e+09 3.1414e+09 3.14142e+09 1 0
384 1 1 3.14887e+09 3.14912e+09 3.15014e+09 3.15025e+09 1 1
385 1 1 3.154e+09 3.15425e+09 3.15527e+09 3.15577e+09 0 1
386 2 0 3.15885e+09 3.1591e+09 3.16012e+09 3.16012e+09 0 1
387 2 0 3.16348e+09 3.16373e+09 3.16475e+09 3.16476e+09 0 1
388 2 0 3.16765e+09 3.1679e+09 3.16892e+09 3.16894e+09 0 1
389 1 1 3.17188e+09 3.17214e+09 3.17316e+09 3.17323e+09 0 1
390 1 0 3.17579e+09 3.17605e+09 3.17707e+09 3.17708e+09 0 0
391 1 1 3.18414e+09 3.1844e+09 3.18542e+09 3.18543e+09 1 1
392 1 1 3.18985e+09 3.19011e+09 3.19113e+09 3.19114e+09 0 1
393 1 1 3.19386e+09 3.19412e+09 3.19514e+09 3.19533e+09 0 1
394 2 0 3.19967e+09 3.19993e+09 3.20094e+09 3.20121e+09 0 1
395 2 0 3.20418e+09 3.20445e+09 3.20547e+09 3.20547e+09 0 1
396 2 0 3.20844e+09 3.20869e+09 3.20971e+09 3.20973e+09 0 1
397 1 1 3.21254e+09 3.21279e+09 3.21381e+09 3.21382e+09 0 1
398 1 0 3.21673e+09 3.21698e+09 3.218e+09 3.21801e+09 0 0
399 1 1 3.22653e+09 3.2268e+09 3.22782e+09 3.22782e+09 1 1
400 1 1 3.23042e+09 3.23068e+09 3.2317e+09 3.23171e+09 0 1
401 1 0 3.23445e+09 3.23469e+09 3.23571e+09 3.23594e+09 0 0
402 1 0 3.24628e+09 3.24653e+09 3.24755e+09 3.24764e+09 1 0
403 1 1 3.25493e+09 3.25518e+09 3.2562e+09 3.25625e+09 1 1
404 1 1 3.26116e+09 3.26141e+09 3.26243e+09 3.26243e+09 0 1
405 1 1 3.26845e+09 3.2687e+09 3.26972e+09 3.26979e+09 0 1
406 2 0 3.27551e+09 3.27575e+09 3.27677e+09 3.27683e+09 0 1
407 2 0 3.28234e+09 3.2826e+09 3.28362e+09 3.28363e+09 0 1
408 2 0 3.29161e+09 3.29187e+09 3.29289e+09 3.2929e+09 0 1
409 2 0 3.29546e+09 3.29571e+09 3.29673e+09 3.29675e+09 0 1
410 2 0 3.29949e+09 3.29975e+09 3.30077e+09 3.30088e+09 0 1
411 1 1 3.30358e+09 3.30383e+09 3.30485e+09 3.30492e+09 0 1
412 2 0 3.31184e+09 3.31209e+09 3.31311e+09 3.31313e+09 0 1
413 2 0 3.31603e+09 3.31628e+09 3.3173e+09 3.31731e+09 0 1
414 1 1 3.32016e+09 3.32041e+09 3.32143e+09 3.32151e+09 0 1
415 2 0 3.32432e+09 3.32458e+09 3.3256e+09 3.32561e+09 0 1
416 1 0 3.33068e+09 3.33093e+09 3.33195e+09 3.33199e+09 0 0
417 1 1 3.34257e+09 3.34282e+09 3.34384e+09 3.34385e+09 1 1
418 2 0 3.34722e+09 3.34747e+09 3.34849e+09 3.3485e+09 0 1
419 2 0 3.3513e+09 3.35155e+09 3.35257e+09 3.35259e+09 0 1
420 1 0 3.35644e+09 3.35669e+09 3.35771e+09 3.35786e+09 0 0
421 1 0 3.36654e+09 3.36679e+09 3.36781e+09 3.36794e+09 1 0
422 1 1 3.38224e+09 3.3825e+09 3.38352e+09 3.38467e+09 1 1
423 2 0 3.38739e+09 3.38765e+09 3.38866e+09 3.38881e+09 0 1
424 2 0 3.39277e+09 3.39303e+09 3.39405e+09 3.39406e+09 0 1
425 2 0 3.40026e+09 3.40052e+09 3.40154e+09 3.40154e+09 0 1
426 2 0 3.40413e+09 3.40439e+09 3.40541e+09 3.40542e+09 0 1
427 2 0 3.40829e+09 3.40854e+09 3.40956e+09 3.40957e+09 0 1
428 1 0 3.41383e+09 3.41408e+09 3.4151e+09 3.41512e+09 0 0
429 1 1 3.42259e+09 3.42284e+09 3.42386e+09 3.42395e+09 1 1
430 1 1 3.42854e+09 3.42878e+09 3.4298e+09 3.42986e+09 0 1
431 1 1 3.43529e+09 3.43555e+09 3.43657e+09 3.43667e+09 0 1
432 1 0 3.44109e+09 3.44135e+09 3.44237e+09 3.4424e+09 0 0
433 1 1 3.44964e+09 3.44988e+09 3.4509e+09 3.45096e+09 1 1
434 1 1 3.45376e+09 3.45402e+09 3.45504e+09 3.45513e+09 0 1
435 1 1 3.46128e+09 3.46154e+09 3.46256e+09 3.46264e+09 0 1
436 2 0 3.46592e+09 3.46617e+09 3.46719e+09 3.46719e+09 0 1
437 1 1 3.47112e+09 3.47137e+09 3.47239e+09 3.47241e+09 0 1
438 2 0 3.47625e+09 3.4765e+09 3.47752e+09 3.47752e+09 0 1
439 2 0 3.48037e+09 3.48062e+09 3.48164e+09 3.48166e+09 0 1
440 2 0 3.48422e+09 3.48446e+09 3.48548e+09 3.48549e+09 0 1
441 1 0 3.48804e+09 3.48829e+09 3.4893e+09 3.4894e+09 0 0
442 1 1 3.49672e+09 3.49698e+09 3.498e+09 3.49802e+09 1 1
443 1 1 3.50462e+09 3.50488e+09 3.5059e+09 3.50605e+09 0 1
444 2 0 3.5087e+09 3.50894e+09 3.50996e+09 3.50998e+09 0 1
445 2 0 3.51423e+09 3.51449e+09 3.51551e+09 3.51552e+09 0 1
446 2 0 3.52141e+09 3.52166e+09 3.52268e+09 3.52279e+09 0 1
447 1 0 3.52969e+09 3.52994e+09 3.53096e+09 3.53764e+09 0 0
448 1 1 3.54717e+09 3.54743e+09 3.54845e+09 3.54916e+09 1 1
449 1 1 3.55523e+09 3.55548e+09 3.5565e+09 3.55681e+09 0 1
450 1 1 3.55957e+09 3.55982e+09 3.56084e+09 3.56092e+09 0 1
451 2 0 3.56611e+09 3.56637e+09 3.56739e+09 3.56741e+09 0 1
452 1 0 3.57013e+09 3.57037e+09 3.57139e+09 3.57149e+09 0 0
453 1 1 3.57892e+09 3.57917e+09 3.58019e+09 3.58045e+09 1 1
454 1 0 3.58309e+09 3.58335e+09 3.58436e+09 3.58455e+09 0 0
455 1 1 3.59217e+09 3.59244e+09 3.59346e+09 3.59349e+09 1 1
456 2 0 3.59608e+09 3.59633e+09 3.59735e+09 3.59736e+09 0 1
457 2 0 3.60179e+09 3.60204e+09 3.60306e+09 3.60307e+09 0 1
458 2 0 3.60586e+09 3.60612e+09 3.60714e+09 3.60714e+09 0 1
459 1 1 3.61008e+09 3.61033e+09 3.61135e+09 3.61144e+09 0 1
460 1 1 3.61437e+09 3.61462e+09 3.61564e+09 3.61566e+09 0 1
461 1 1 3.62138e+09 3.62164e+09 3.62265e+09 3.62267e+09 0 1
462 2 0 3.62641e+09 3.62666e+09 3.62768e+09 3.62769e+09 0 1
463 2 0 3.63065e+09 3.63091e+09 3.63193e+09 3.63197e+09 0 1
464 1 1 3.63665e+09 3.6369e+09 3.63791e+09 3.63792e+09 0 1
465 1 1 3.64469e+09 3.64496e+09 3.64597e+09 3.64606e+09 0 1
466 1 0 3.64871e+09 3.64898e+09 3.65e+09 3.65006e+09 0 0
467 1 0 3.6586e+09 3.65885e+09 3.65987e+09 3.65989e+09 1 0
468 1 1 3.66807e+09 3.66833e+09 3.66935e+09 3.66938e+09 1 1
469 2 0 3.67314e+09 3.67339e+09 3.67441e+09 3.67442e+09 0 1
470 1 0 3.67708e+09 3.67734e+09 3.67836e+09 3.6784e+09 0 0
471 1 1 3.68603e+09 3.68628e+09 3.6873e+09 3.68732e+09 1 1
472 1 1 3.68988e+09 3.69014e+09 3.69116e+09 3.70146e+09 0 1
473 1 0 3.7044e+09 3.70466e+09 3.70568e+09 3.70586e+09 0 0
474 1 1 3.71754e+09 3.7178e+09 3.71882e+09 3.71893e+09 1 1
475 1 1 3.72178e+09 3.72203e+09 3.72305e+09 3.72306e+09 0 1
476 2 1 3.73258e+09 3.73284e+09 3.73386e+09 3.73387e+09 0 0
477 2 1 3.74329e+09 3.74354e+09 3.74456e+09 3.74457e+09 1 0
478 2 1 3.75198e+09 3.75225e+09 3.75327e+09 3.75329e+09 1 0
479 2 0 3.76406e+09 3.76431e+09 3.76533e+09 3.76562e+09 1 1
480 1 0 3.76949e+09 3.76975e+09 3.77077e+09 3.7712e+09 0 0
481 1 1 3.77847e+09 3.77873e+09 3.77975e+09 3.77977e+09 1 1
482 1 1 3.78236e+09 3.78261e+09 3.78363e+09 3.78372e+09 0 1
483 1 1 3.7866e+09 3.78686e+09 3.78788e+09 3.78985e+09 0 1
484 2 0 3.79315e+09 3.79342e+09 3.79444e+09 3.79444e+09 0 1
485 2 0 3.79801e+09 3.79827e+09 3.79929e+09 3.79931e+09 0 1
486 2 0 3.80205e+09 3.8023e+09 3.80332e+09 3.80333e+09 0 1
487 2 0 3.80704e+09 3.80731e+09 3.80832e+09 3.80834e+09 0 1
488 2 0 3.81126e+09 3.81151e+09 3.81253e+09 3.81274e+09 0 1
489 1 1 3.81558e+09 3.81584e+09 3.81686e+09 3.81691e+09 0 1
490 2 0 3.82046e+09 3.82073e+09 3.82175e+09 3.82175e+09 0 1
491 1 1 3.82724e+09 3.82748e+09 3.8285e+09 3.82851e+09 0 1
492 2 0 3.83114e+09 3.83138e+09 3.8324e+09 3.83241e+09 0 1
493 1 1 3.83517e+09 3.83543e+09 3.83645e+09 3.83655e+09 0 1
494 2 0 3.84054e+09 3.84079e+09 3.84181e+09 3.84187e+09 0 1
495 2 0 3.84492e+09 3.84518e+09 3.8462e+09 3.84626e+09 0 1
496 1 1 3.84989e+09 3.85014e+09 3.85116e+09 3.85117e+09 0 1
497 2 0 3.85408e+09 3.85433e+09 3.85535e+09 3.85535e+09 0 1
498 1 1 3.85834e+09 3.8586e+09 3.85961e+09 3.85964e+09 0 1
499 2 0 3.86465e+09 3.86491e+09 3.86593e+09 3.86603e+09 0 1
500 1 1 3.86984e+09 3.87009e+09 3.87111e+09 3.87116e+09 0 1
501 2 0 3.87533e+09 3.87561e+09 3.87662e+09 3.87665e+09 0 1
502 1 1 3.88165e+09 3.8819e+09 3.88292e+09 3.88297e+09 0 1
503 2 0 3.88594e+09 3.8862e+09 3.88722e+09 3.88725e+09 0 1
504 2 1 3.89088e+09 3.89113e+09 3.89215e+09 3.89222e+09 0 0
505 2 1 3.9009e+09 3.90114e+09 3.90216e+09 3.90218e+09 1 0
506 2 1 3.90938e+09 3.90964e+09 3.91066e+09 3.91067e+09 1 0
507 2 0 3.91787e+09 3.91811e+09 3.91913e+09 3.9236e+09 1 1
508 2 1 3.9262e+09 3.92646e+09 3.92748e+09 3.92812e+09 0 0
509 2 0 3.93527e+09 3.93552e+09 3.93654e+09 3.94261e+09 1 1
510 1 1 3.94609e+09 3.94635e+09 3.94737e+09 3.94746e+09 0 1
511 2 0 3.95028e+09 3.95055e+09 3.95157e+09 3.9516e+09 0 1
512 2 0 3.95459e+09 3.95484e+09 3.95586e+09 3.95589e+09 0 1
513 1 0 3.95857e+09 3.95884e+09 3.95985e+09 4.01207e+09 0 0
514 1 0 4.01946e+09 4.0197e+09 4.02072e+09 4.055e+09 1 0
