trial trialType response stillTime stimOnset stimOffset respTime correctionTrial correct
001 2 1 8.00667e+06 8.30966e+06 9.32881e+06 1.46558e+07 0 0
002 2 1 2.19474e+07 2.2225e+07 2.32441e+07 2.42345e+07 1 0
003 2 1 3.136e+07 3.16435e+07 3.26627e+07 3.27486e+07 1 0
004 2 1 3.99452e+07 4.01974e+07 4.12166e+07 4.12413e+07 1 0
005 1 0 6.1995e+07 6.22487e+07 6.32679e+07 6.37581e+07 0 0
006 1 0 7.45472e+07 7.48123e+07 7.58315e+07 7.67662e+07 0 0
007 1 0 8.39066e+07 8.41619e+07 8.51811e+07 8.60775e+07 0 0
008 1 1 9.56181e+07 9.58714e+07 9.68905e+07 9.93489e+07 0 1
009 2 0 1.12306e+08 1.12558e+08 1.13577e+08 1.14479e+08 0 1
010 2 1 1.25306e+08 1.25556e+08 1.26575e+08 1.26657e+08 0 0
011 2 0 1.38147e+08 1.38413e+08 1.39432e+08 1.40652e+08 1 1
012 1 1 1.43441e+08 1.43694e+08 1.44713e+08 1.4517e+08 0 1
013 1 0 1.48219e+08 1.48477e+08 1.49496e+08 1.49518e+08 0 0
014 1 1 1.62521e+08 1.62767e+08 1.63786e+08 1.63816e+08 1 1
015 2 1 1.6685e+08 1.67101e+08 1.6812e+08 1.70047e+08 0 0
016 2 1 1.7958e+08 1.79841e+08 1.8086e+08 1.82507e+08 1 0
017 2 1 2.10757e+08 2.11009e+08 2.12028e+08 2.12672e+08 1 0
018 2 1 2.23056e+08 2.23309e+08 2.24328e+08 2.25189e+08 1 0
019 1 1 2.40372e+08 2.40631e+08 2.41651e+08 2.43001e+08 0 1
020 2 1 2.64224e+08 2.64482e+08 2.65501e+08 2.6552e+08 0 0
021 2 1 2.75575e+08 2.75829e+08 2.76848e+08 2.78542e+08 1 0
022 2 0 2.86816e+08 2.87071e+08 2.8809e+08 2.89228e+08 1 1
023 2 0 2.91979e+08 2.92233e+08 2.93252e+08 2.93759e+08 0 1
024 1 1 2.96462e+08 2.96723e+08 2.97742e+08 2.97834e+08 0 1
025 2 0 3.07433e+08 3.07692e+08 3.08711e+08 3.08873e+08 0 1
026 1 1 3.26375e+08 3.26624e+08 3.27643e+08 3.2774e+08 0 1
027 2 0 3.30375e+08 3.30626e+08 3.31645e+08 3.3366e+08 0 1
028 1 1 3.36692e+08 3.36945e+08 3.37964e+08 3.38602e+08 0 1
029 1 0 3.77562e+08 3.77813e+08 3.78832e+08 3.79589e+08 0 0
030 1 0 3.99933e+08 4.00196e+08 4.01215e+08 4.03426e+08 1 0
031 1 0 4.11396e+08 4.11644e+08 4.12663e+08 4.13372e+08 1 0
032 1 1 4.24625e+08 4.24888e+08 4.25908e+08 4.25958e+08 1 1
033 2 1 4.28691e+08 4.28953e+08 4.29972e+08 4.30293e+08 0 0
034 2 1 4.44414e+08 4.44664e+08 4.45683e+08 4.45717e+08 1 0
035 2 0 4.54312e+08 4.54569e+08 4.55588e+08 4.55608e+08 1 1
036 2 0 4.67488e+08 4.67744e+08 4.68763e+08 4.69174e+08 0 1
037 2 1 4.84362e+08 4.84613e+08 4.85632e+08 4.87278e+08 0 0
038 2 0 4.94819e+08 4.95067e+08 4.96086e+08 4.96158e+08 1 1
039 2 0 4.98697e+08 4.98943e+08 4.99962e+08 5.0225e+08 0 1
040 2 1 5.05157e+08 5.05413e+08 5.06432e+08 5.07721e+08 0 0
041 2 1 5.21545e+08 5.21797e+08 5.22816e+08 5.23011e+08 1 0
042 2 1 5.33883e+08 5.34136e+08 5.35155e+08 5.36393e+08 1 0
043 2 1 5.45191e+08 5.45441e+08 5.4646e+08 5.46656e+08 1 0
044 2 1 5.56548e+08 5.56798e+08 5.57818e+08 5.57853e+08 0 0
045 2 0 5.74901e+08 5.75147e+08 5.76166e+08 5.77575e+08 0 1
046 2 0 5.9203e+08 5.92287e+08 5.93306e+08 5.94342e+08 0 1
047 1 1 6.02591e+08 6.02839e+08 6.03858e+08 6.04155e+08 0 1
048 1 1 6.10317e+08 6.10577e+08 6.11596e+08 6.11938e+08 0 1
049 2 1 6.21654e+08 6.21916e+08 6.22935e+08 6.23461e+08 0 0
050 2 1 6.39132e+08 6.39387e+08 6.40406e+08 6.40813e+08 1 0
051 2 1 6.52475e+08 6.52728e+08 6.53747e+08 6.54438e+08 1 0
052 2 0 6.62792e+08 6.63049e+08 6.64069e+08 6.65777e+08 1 1
053 1 1 6.68568e+08 6.68812e+08 6.69831e+08 6.69908e+08 0 1
054 2 1 6.7284e+08 6.73099e+08 6.74119e+08 6.74652e+08 0 0
055 2 1 6.91697e+08 6.91949e+08 6.92968e+08 6.9309e+08 1 0
056 2 1 7.03238e+08 7.03502e+08 7.04521e+08 7.06021e+08 1 0
057 2 0 7.13196e+08 7.13446e+08 7.14465e+08 7.16377e+08 1 1
058 2 1 7.25706e+08 7.25951e+08 7.2697e+08 7.27912e+08 0 0
059 2 1 7.38535e+08 7.38798e+08 7.39817e+08 7.39837e+08 1 0
060 2 0 7.52982e+08 7.53234e+08 7.54253e+08 7.55788e+08 1 1
061 2 0 7.64814e+08 7.65079e+08 7.66098e+08 7.67312e+08 0 1
062 2 1 7.74445e+08 7.74702e+08 7.75721e+08 7.76762e+08 0 0
063 2 1 7.86152e+08 7.86413e+08 7.87432e+08 7.8745e+08 1 0
064 2 1 7.97445e+08 7.97697e+08 7.98716e+08 7.99867e+08 1 0
065 2 1 8.0778e+08 8.0804e+08 8.09059e+08 8.09614e+08 1 0
066 2 1 8.18479e+08 8.18729e+08 8.19748e+08 8.21338e+08 0 0
067 1 1 8.39667e+08 8.39912e+08 8.40931e+08 8.41144e+08 0 1
068 1 1 8.51846e+08 8.52093e+08 8.53112e+08 8.53123e+08 0 1
069 1 1 8.55831e+08 8.56088e+08 8.57107e+08 8.58165e+08 0 1
070 1 1 8.61183e+08 8.61443e+08 8.62462e+08 8.62561e+08 0 1
071 1 1 8.77239e+08 8.77501e+08 8.7852e+08 8.80146e+08 0 1
072 2 1 9.0384e+08 9.04087e+08 9.05106e+08 9.05691e+08 0 0
073 2 1 9.14749e+08 9.15e+08 9.16019e+08 9.16955e+08 1 0
074 2 0 9.24288e+08 9.2454e+08 9.25559e+08 9.26698e+08 1 1
075 2 1 9.29858e+08 9.30117e+08 9.31136e+08 9.31456e+08 0 0
076 2 1 9.46141e+08 9.46405e+08 9.47425e+08 9.49106e+08 1 0
077 2 1 9.56201e+08 9.56447e+08 9.57466e+08 9.59511e+08 1 0
078 2 1 9.69397e+08 9.69654e+08 9.70674e+08 9.71389e+08 1 0
079 1 1 9.84783e+08 9.85037e+08 9.86056e+08 9.87082e+08 0 1
080 1 1 1.00437e+09 1.00463e+09 1.00565e+09 1.00574e+09 0 1
081 2 1 1.00885e+09 1.00911e+09 1.01013e+09 1.01133e+09 0 0
082 2 0 1.0199e+09 1.02016e+09 1.02118e+09 1.02144e+09 1 1
083 2 1 1.02405e+09 1.0243e+09 1.02532e+09 1.02575e+09 0 0
084 2 0 1.03404e+09 1.0343e+09 1.03532e+09 1.03642e+09 1 1
085 2 1 1.03893e+09 1.03918e+09 1.0402e+09 1.04075e+09 0 0
086 2 1 1.04971e+09 1.04997e+09 1.05099e+09 1.05104e+09 1 0
087 2 1 1.05818e+09 1.05843e+09 1.05945e+09 1.06012e+09 1 0
088 2 1 1.06912e+09 1.06938e+09 1.0704e+09 1.07073e+09 1 0
089 1 1 1.08102e+09 1.08128e+09 1.0823e+09 1.08335e+09 0 1
090 2 1 1.09897e+09 1.09923e+09 1.10025e+09 1.10043e+09 0 0
091 2 1 1.11014e+09 1.1104e+09 1.11142e+09 1.11253e+09 1 0
092 2 0 1.12419e+09 1.12444e+09 1.12546e+09 1.12645e+09 1 1
093 2 1 1.12913e+09 1.12939e+09 1.13041e+09 1.13087e+09 0 0
094 2 1 1.1603e+09 1.16056e+09 1.16158e+09 1.16161e+09 1 0
095 2 1 1.1743e+09 1.17457e+09 1.17559e+09 1.17641e+09 1 0
096 2 0 1.19311e+09 1.19338e+09 1.19439e+09 1.1963e+09 1 1
097 2 1 1.20455e+09 1.2048e+09 1.20582e+09 1.20624e+09 0 0
098 2 0 1.2137e+09 1.21395e+09 1.21497e+09 1.21499e+09 1 1
099 2 0 1.22912e+09 1.22938e+09 1.2304e+09 1.23065e+09 0 1
100 2 1 1.23656e+09 1.23681e+09 1.23783e+09 1.23811e+09 0 0
101 2 0 1.24708e+09 1.24734e+09 1.24836e+09 1.24839e+09 1 1
102 2 1 1.25171e+09 1.25196e+09 1.25297e+09 1.25344e+09 0 0
103 2 1 1.26366e+09 1.26392e+09 1.26494e+09 1.26508e+09 1 0
104 2 1 1.2744e+09 1.27466e+09 1.27568e+09 1.27582e+09 1 0
105 2 0 1.2832e+09 1.28346e+09 1.28448e+09 1.28458e+09 1 1
106 2 1 1.30128e+09 1.30153e+09 1.30254e+09 1.30282e+09 0 0
107 2 1 1.31092e+09 1.31117e+09 1.31219e+09 1.3132e+09 1 0
108 2 0 1.33145e+09 1.33171e+09 1.33273e+09 1.33453e+09 1 1
109 1 1 1.35169e+09 1.35195e+09 1.35297e+09 1.35298e+09 0 1
110 1 1 1.35791e+09 1.35816e+09 1.35918e+09 1.35956e+09 0 1
111 2 1 1.37436e+09 1.37461e+09 1.37563e+09 1.37577e+09 0 0
112 2 1 1.38607e+09 1.38633e+09 1.38734e+09 1.38737e+09 1 0
113 2 1 1.39465e+09 1.3949e+09 1.39592e+09 1.39709e+09 1 0
114 2 1 1.41131e+09 1.41157e+09 1.41259e+09 1.41285e+09 1 0
115 1 1 1.42074e+09 1.42099e+09 1.42201e+09 1.42217e+09 0 1
116 1 1 1.42496e+09 1.42521e+09 1.42623e+09 1.42704e+09 0 1
117 1 1 1.42967e+09 1.42993e+09 1.43095e+09 1.43133e+09 0 1
118 2 1 1.44648e+09 1.44673e+09 1.44775e+09 1.44786e+09 0 0
119 2 1 1.45728e+09 1.45754e+09 1.45856e+09 1.46193e+09 1 0
120 2 1 1.47025e+09 1.47051e+09 1.47153e+09 1.47232e+09 1 0
121 2 1 1.48031e+09 1.48057e+09 1.48159e+09 1.48172e+09 1 0
122 1 1 1.49082e+09 1.49108e+09 1.4921e+09 1.49215e+09 0 1
123 2 1 1.49754e+09 1.49779e+09 1.49881e+09 1.49969e+09 0 0
124 2 1 1.5077e+09 1.50796e+09 1.50897e+09 1.50904e+09 1 0
125 2 0 1.51924e+09 1.51949e+09 1.52051e+09 1.5206e+09 1 1
126 1 1 1.52354e+09 1.52381e+09 1.52483e+09 1.52696e+09 0 1
127 1 1 1.53937e+09 1.53962e+09 1.54064e+09 1.54067e+09 0 1
128 1 1 1.54966e+09 1.54993e+09 1.55095e+09 1.55132e+09 0 1
129 2 1 1.56731e+09 1.56757e+09 1.56859e+09 1.56885e+09 0 0
130 2 1 1.57904e+09 1.5793e+09 1.58032e+09 1.58049e+09 1 0
131 2 1 1.59416e+09 1.59442e+09 1.59544e+09 1.59671e+09 1 0
132 2 1 1.60716e+09 1.60741e+09 1.60843e+09 1.60854e+09 1 0
133 2 1 1.61919e+09 1.61945e+09 1.62047e+09 1.62142e+09 0 0
134 1 1 1.63235e+09 1.63261e+09 1.63363e+09 1.63387e+09 0 1
135 2 1 1.64233e+09 1.64258e+09 1.6436e+09 1.64362e+09 0 0
136 2 0 1.65335e+09 1.6536e+09 1.65462e+09 1.65466e+09 1 1
137 1 1 1.65954e+09 1.65979e+09 1.66081e+09 1.66084e+09 0 1
138 1 1 1.67081e+09 1.67107e+09 1.67209e+09 1.67249e+09 0 1
139 2 0 1.69589e+09 1.69615e+09 1.69717e+09 1.69833e+09 0 1
140 1 1 1.70588e+09 1.70614e+09 1.70716e+09 1.70728e+09 0 1
141 1 0 1.72105e+09 1.72132e+09 1.72234e+09 1.72672e+09 0 0
142 1 1 1.7368e+09 1.73705e+09 1.73807e+09 1.73905e+09 1 1
143 1 1 1.74966e+09 1.74991e+09 1.75093e+09 1.75114e+09 0 1
144 2 1 1.76028e+09 1.76054e+09 1.76156e+09 1.76166e+09 0 0
145 2 1 1.77138e+09 1.77165e+09 1.77267e+09 1.7732e+09 1 0
146 2 1 1.79052e+09 1.79076e+09 1.79178e+09 1.79208e+09 1 0
147 2 1 1.79979e+09 1.80004e+09 1.80106e+09 1.8018e+09 1 0
148 1 1 1.81556e+09 1.81581e+09 1.81683e+09 1.81762e+09 0 1
149 1 0 1.85201e+09 1.85227e+09 1.85329e+09 1.85359e+09 0 0
150 1 0 1.86357e+09 1.86381e+09 1.86483e+09 1.86665e+09 1 0
151 1 1 1.87447e+09 1.87472e+09 1.87574e+09 1.87758e+09 1 1
152 2 1 1.88733e+09 1.88759e+09 1.88861e+09 1.88893e+09 0 0
153 2 0 1.90629e+09 1.90655e+09 1.90757e+09 1.90781e+09 1 1
154 2 1 1.91062e+09 1.91088e+09 1.9119e+09 1.91203e+09 0 0
155 2 1 1.92425e+09 1.92451e+09 1.92553e+09 1.92611e+09 1 0
156 2 1 1.93444e+09 1.9347e+09 1.93572e+09 1.93738e+09 1 0
157 2 1 1.94542e+09 1.94567e+09 1.94669e+09 1.94893e+09 1 0
158 1 1 1.95671e+09 1.95696e+09 1.95798e+09 1.95799e+09 0 1
159 2 1 1.9786e+09 1.97887e+09 1.97989e+09 1.98137e+09 0 0
160 2 1 1.98886e+09 1.98912e+09 1.99014e+09 1.99275e+09 1 0
161 2 1 2.00003e+09 2.00029e+09 2.00131e+09 2.00191e+09 1 0
162 2 1 2.00894e+09 2.00919e+09 2.01021e+09 2.01098e+09 1 0
163 1 0 2.0184e+09 2.01865e+09 2.01967e+09 2.01974e+09 0 0
164 1 1 2.02761e+09 2.02786e+09 2.02888e+09 2.02994e+09 0 1
165 1 1 2.03341e+09 2.03367e+09 2.03469e+09 2.03574e+09 0 1
166 2 1 2.03897e+09 2.03922e+09 2.04024e+09 2.04046e+09 0 0
167 2 1 2.04939e+09 2.04966e+09 2.05068e+09 2.05114e+09 1 0
168 2 0 2.06472e+09 2.06497e+09 2.06599e+09 2.0667e+09 1 1
169 2 1 2.0788e+09 2.07905e+09 2.08007e+09 2.08027e+09 0 0
170 2 1 2.08733e+09 2.08759e+09 2.0886e+09 2.09507e+09 1 0
171 2 1 2.10468e+09 2.10494e+09 2.10596e+09 2.10745e+09 1 0
172 2 1 2.11983e+09 2.12009e+09 2.12111e+09 2.12174e+09 1 0
173 1 1 2.12988e+09 2.13014e+09 2.13116e+09 2.13154e+09 0 1
174 2 0 2.14142e+09 2.14168e+09 2.1427e+09 2.14399e+09 0 1
175 1 1 2.16494e+09 2.1652e+09 2.16622e+09 2.16623e+09 0 1
176 1 1 2.16881e+09 2.16907e+09 2.17008e+09 2.17228e+09 0 1
177 1 1 2.1755e+09 2.17575e+09 2.17677e+09 2.17694e+09 0 1
178 2 1 2.18901e+09 2.18928e+09 2.19029e+09 2.19048e+09 0 0
179 2 0 2.20118e+09 2.20143e+09 2.20245e+09 2.20258e+09 1 1
180 1 1 2.21624e+09 2.2165e+09 2.21752e+09 2.21995e+09 0 1
181 2 1 2.23079e+09 2.23104e+09 2.23206e+09 2.23208e+09 0 0
182 2 0 2.24546e+09 2.24571e+09 2.24673e+09 2.24691e+09 1 1
183 1 1 2.26175e+09 2.26201e+09 2.26303e+09 2.26404e+09 0 1
184 1 1 2.26667e+09 2.26693e+09 2.26794e+09 2.26954e+09 0 1
185 2 1 2.27298e+09 2.27324e+09 2.27426e+09 2.27633e+09 0 0
186 2 1 2.28474e+09 2.285e+09 2.28602e+09 2.28708e+09 1 0
187 2 1 2.29878e+09 2.29904e+09 2.30005e+09 2.30022e+09 1 0
188 2 1 2.30765e+09 2.3079e+09 2.30892e+09 2.30909e+09 1 0
189 1 0 2.32359e+09 2.32385e+09 2.32487e+09 2.32518e+09 0 0
190 2 1 2.33511e+09 2.33537e+09 2.33639e+09 2.33886e+09 0 0
191 1 1 2.3509e+09 2.35115e+09 2.35217e+09 2.3551e+09 0 1
192 2 0 2.38312e+09 2.38338e+09 2.3844e+09 2.38449e+09 0 1
193 1 1 2.40676e+09 2.40702e+09 2.40804e+09 2.40809e+09 0 1
194 2 1 2.42542e+09 2.42568e+09 2.4267e+09 2.43086e+09 0 0
195 2 1 2.43933e+09 2.43959e+09 2.44061e+09 2.44399e+09 1 0
196 2 1 2.45214e+09 2.4524e+09 2.45342e+09 2.45398e+09 1 0
197 2 0 2.46142e+09 2.46166e+09 2.46268e+09 2.4638e+09 1 1
198 2 1 2.47192e+09 2.47217e+09 2.47319e+09 2.47358e+09 0 0
199 2 0 2.48288e+09 2.48313e+09 2.48415e+09 2.48605e+09 1 1
200 2 0 2.49765e+09 2.49791e+09 2.49893e+09 2.50045e+09 0 1
201 1 1 2.50318e+09 2.50343e+09 2.50445e+09 2.50521e+09 0 1
202 2 1 2.51091e+09 2.51117e+09 2.51219e+09 2.51302e+09 0 0
203 2 1 2.52126e+09 2.52152e+09 2.52254e+09 2.52269e+09 1 0
204 2 1 2.53486e+09 2.53512e+09 2.53614e+09 2.53636e+09 1 0
205 2 0 2.54359e+09 2.54385e+09 2.54487e+09 2.54639e+09 1 1
206 2 1 2.55371e+09 2.55396e+09 2.55498e+09 2.55546e+09 0 0
207 2 1 2.56721e+09 2.56747e+09 2.56849e+09 2.56878e+09 1 0
208 2 0 2.57843e+09 2.57868e+09 2.5797e+09 2.57975e+09 1 1
209 2 1 2.58288e+09 2.58313e+09 2.58415e+09 2.58576e+09 0 0
210 2 1 2.59439e+09 2.59465e+09 2.59567e+09 2.5958e+09 1 0
211 2 1 2.60682e+09 2.60707e+09 2.60809e+09 2.60996e+09 1 0
212 2 0 2.62221e+09 2.62246e+09 2.62348e+09 2.62632e+09 1 1
213 2 1 2.63599e+09 2.63625e+09 2.63727e+09 2.63797e+09 0 0
214 2 0 2.64697e+09 2.64722e+09 2.64824e+09 2.64963e+09 1 1
215 2 1 2.65451e+09 2.65476e+09 2.65578e+09 2.65587e+09 0 0
216 2 0 2.66679e+09 2.66705e+09 2.66807e+09 2.66876e+09 1 1
217 1 1 2.67182e+09 2.67209e+09 2.67311e+09 2.67772e+09 0 1
218 1 0 2.69468e+09 2.69494e+09 2.69596e+09 2.69988e+09 0 0
219 1 1 2.70718e+09 2.70743e+09 2.70845e+09 2.70891e+09 1 1
220 1 0 2.72181e+09 2.72207e+09 2.72309e+09 2.72311e+09 0 0
221 1 1 2.7318e+09 2.73205e+09 2.73307e+09 2.73484e+09 1 1
222 1 1 2.73771e+09 2.73796e+09 2.73898e+09 2.73924e+09 0 1
223 2 1 2.74223e+09 2.74248e+09 2.74349e+09 2.74466e+09 0 0
224 2 1 2.75326e+09 2.75351e+09 2.75453e+09 2.75673e+09 1 0
225 2 0 2.76614e+09 2.7664e+09 2.76742e+09 2.7677e+09 1 1
226 1 1 2.79066e+09 2.79092e+09 2.79193e+09 2.79225e+09 0 1
227 2 0 2.80136e+09 2.80161e+09 2.80263e+09 2.80271e+09 0 1
228 2 0 2.81295e+09 2.8132e+09 2.81422e+09 2.81424e+09 0 1
229 1 1 2.81951e+09 2.81976e+09 2.82078e+09 2.82368e+09 0 1
230 1 1 2.82778e+09 2.82804e+09 2.82906e+09 2.82998e+09 0 1
231 2 0 2.83284e+09 2.83311e+09 2.83413e+09 2.83517e+09 0 1
232 1 1 2.84566e+09 2.84591e+09 2.84693e+09 2.84888e+09 0 1
233 2 1 2.86312e+09 2.86337e+09 2.86439e+09 2.86792e+09 0 0
234 2 1 2.87709e+09 2.87734e+09 2.87836e+09 2.88056e+09 1 0
235 2 1 2.88826e+09 2.88852e+09 2.88954e+09 2.8903e+09 1 0
236 2 1 2.90399e+09 2.90425e+09 2.90527e+09 2.90565e+09 1 0
237 1 0 2.91315e+09 2.91341e+09 2.91443e+09 2.91457e+09 0 0
238 1 1 2.92291e+09 2.92317e+09 2.92419e+09 2.92427e+09 0 1
239 1 0 2.93708e+09 2.93733e+09 2.93835e+09 2.93881e+09 0 0
240 1 1 2.94667e+09 2.94693e+09 2.94795e+09 2.95233e+09 1 1
241 2 1 2.96299e+09 2.96324e+09 2.96426e+09 2.96448e+09 0 0
242 2 1 2.97983e+09 2.98009e+09 2.98111e+09 2.98151e+09 1 0
243 2 1 2.99004e+09 2.9903e+09 2.99132e+09 2.99133e+09 1 0
244 2 1 2.99837e+09 2.99862e+09 2.99964e+09 3.00119e+09 1 0
245 1 0 3.00899e+09 3.00924e+09 3.01026e+09 3.01123e+09 0 0
246 2 0 3.02221e+09 3.02246e+09 3.02348e+09 3.02359e+09 0 1
247 1 1 3.03468e+09 3.03494e+09 3.03596e+09 3.03608e+09 0 1
248 1 1 3.04337e+09 3.04363e+09 3.04465e+09 3.04503e+09 0 1
249 2 1 3.04839e+09 3.04865e+09 3.04967e+09 3.05231e+09 0 0
250 2 1 3.06624e+09 3.06649e+09 3.06751e+09 3.06752e+09 1 0
251 2 0 3.0833e+09 3.08356e+09 3.08458e+09 3.08633e+09 1 1
252 1 0 3.09053e+09 3.09079e+09 3.09181e+09 3.09187e+09 0 0
253 1 1 3.09921e+09 3.09947e+09 3.10049e+09 3.10382e+09 1 1
254 1 0 3.12062e+09 3.12088e+09 3.1219e+09 3.12196e+09 0 0
255 1 1 3.13539e+09 3.13564e+09 3.13666e+09 3.13678e+09 1 1
256 2 1 3.13962e+09 3.13988e+09 3.1409e+09 3.14263e+09 0 0
257 2 0 3.16156e+09 3.1618e+09 3.16282e+09 3.16516e+09 1 1
258 2 1 3.17537e+09 3.17562e+09 3.17664e+09 3.17666e+09 0 0
259 2 0 3.18372e+09 3.18398e+09 3.185e+09 3.18534e+09 1 1
260 2 1 3.18786e+09 3.18811e+09 3.18913e+09 3.19186e+09 0 0
261 2 0 3.20143e+09 3.20168e+09 3.2027e+09 3.20621e+09 1 1
262 2 0 3.21451e+09 3.21475e+09 3.21577e+09 3.21596e+09 0 1
263 1 1 3.22416e+09 3.22441e+09 3.22543e+09 3.22811e+09 0 1
264 1 0 3.246e+09 3.24626e+09 3.24728e+09 3.24773e+09 0 0
265 1 1 3.25553e+09 3.25578e+09 3.2568e+09 3.25919e+09 1 1
266 1 1 3.26192e+09 3.26217e+09 3.26319e+09 3.26349e+09 0 1
267 2 0 3.26604e+09 3.26631e+09 3.26733e+09 3.26781e+09 0 1
268 2 1 3.28009e+09 3.28035e+09 3.28136e+09 3.28474e+09 0 0
269 2 0 3.29202e+09 3.29227e+09 3.29329e+09 3.29369e+09 1 1
270 1 1 3.30094e+09 3.30119e+09 3.30221e+09 3.30223e+09 0 1
271 1 1 3.30543e+09 3.30569e+09 3.30671e+09 3.30708e+09 0 1
272 2 1 3.32026e+09 3.32051e+09 3.32153e+09 3.32208e+09 0 0
273 2 0 3.33404e+09 3.33429e+09 3.33531e+09 3.33545e+09 1 1
274 2 0 3.34148e+09 3.34173e+09 3.34275e+09 3.34531e+09 0 1
275 1 1 3.35209e+09 3.35234e+09 3.35336e+09 3.35349e+09 0 1
276 2 1 3.35608e+09 3.35633e+09 3.35735e+09 3.35924e+09 0 0
277 2 1 3.36987e+09 3.37013e+09 3.37115e+09 3.37176e+09 1 0
278 2 1 3.38216e+09 3.38241e+09 3.38343e+09 3.38602e+09 1 0
279 2 1 3.39386e+09 3.39412e+09 3.39514e+09 3.39523e+09 1 0
280 2 1 3.4049e+09 3.40514e+09 3.40616e+09 3.40703e+09 0 0
281 2 0 3.41957e+09 3.41982e+09 3.42084e+09 3.42209e+09 0 1
282 1 0 3.43138e+09 3.43164e+09 3.43266e+09 3.44163e+09 0 0
283 1 0 3.4508e+09 3.45105e+09 3.45207e+09 3.45504e+09 1 0
284 1 1 3.46417e+09 3.46443e+09 3.46545e+09 3.46764e+09 1 1
285 2 1 3.48227e+09 3.48252e+09 3.48354e+09 3.48398e+09 0 0
286 2 1 3.49247e+09 3.49271e+09 3.49373e+09 3.49411e+09 1 0
287 2 1 3.50484e+09 3.5051e+09 3.50612e+09 3.5093e+09 1 0
288 2 1 3.5164e+09 3.51664e+09 3.51766e+09 3.51823e+09 1 0
289 2 1 3.52569e+09 3.52595e+09 3.52697e+09 3.5331e+09 0 0
290 2 1 3.5404e+09 3.54064e+09 3.54166e+09 3.54473e+09 0 0
291 2 0 3.55515e+09 3.55541e+09 3.55643e+09 3.55849e+09 0 1
292 2 1 3.56114e+09 3.56139e+09 3.56241e+09 3.56254e+09 0 0
293 2 0 3.5709e+09 3.57115e+09 3.57217e+09 3.57253e+09 1 1
294 1 1 3.59328e+09 3.59353e+09 3.59455e+09 3.59457e+09 0 1
295 2 1 3.60739e+09 3.60763e+09 3.60865e+09 3.60943e+09 0 0
296 2 0 3.61991e+09 3.62015e+09 3.62117e+09 3.62321e+09 1 1
297 1 1 3.62949e+09 3.62975e+09 3.63077e+09 3.63102e+09 0 1
298 2 1 3.64077e+09 3.64102e+09 3.64204e+09 3.6422e+09 0 0
299 2 1 3.6506e+09 3.65085e+09 3.65187e+09 3.65205e+09 1 0
300 2 1 3.66896e+09 3.66922e+09 3.67024e+09 3.67225e+09 1 0
301 2 1 3.68305e+09 3.68329e+09 3.68431e+09 3.68443e+09 1 0
302 1 0 3.69426e+09 3.69452e+09 3.69554e+09 3.69603e+09 0 0
303 1 1 3.70324e+09 3.70349e+09 3.70451e+09 3.70457e+09 0 1
304 1 0 3.71004e+09 3.7103e+09 3.71132e+09 3.71309e+09 0 0
305 1 0 3.72075e+09 3.721e+09 3.72202e+09 3.72237e+09 1 0
306 1 1 3.72984e+09 3.73009e+09 3.73111e+09 3.73115e+09 1 1
307 2 1 3.73967e+09 3.73991e+09 3.74093e+09 3.74097e+09 0 0
308 2 1 3.75031e+09 3.75055e+09 3.75157e+09 3.75322e+09 1 0
309 2 1 3.76026e+09 3.76052e+09 3.76154e+09 3.766e+09 1 0
310 2 0 3.77343e+09 3.77368e+09 3.7747e+09 3.77481e+09 1 1
311 1 1 3.77819e+09 3.77843e+09 3.77945e+09 3.78494e+09 0 1
312 1 1 3.78758e+09 3.78784e+09 3.78886e+09 3.78913e+09 0 1
313 2 0 3.79805e+09 3.79831e+09 3.79933e+09 3.79958e+09 0 1
314 1 1 3.80216e+09 3.80241e+09 3.80343e+09 3.80563e+09 0 1
315 1 1 3.80831e+09 3.80857e+09 3.80959e+09 3.80985e+09 0 1
316 2 1 3.81262e+09 3.81286e+09 3.81388e+09 3.81488e+09 0 0
317 2 1 3.8231e+09 3.82335e+09 3.82437e+09 3.82777e+09 1 0
318 2 1 3.83632e+09 3.83657e+09 3.83759e+09 3.83857e+09 1 0
319 2 1 3.84598e+09 3.84623e+09 3.84725e+09 3.84796e+09 1 0
320 2 1 3.85619e+09 3.85643e+09 3.85745e+09 3.85841e+09 0 0
321 1 1 3.86636e+09 3.86661e+09 3.86763e+09 3.8701e+09 0 1
322 1 1 3.87469e+09 3.87494e+09 3.87596e+09 3.87643e+09 0 1
323 1 1 3.87908e+09 3.87933e+09 3.88035e+09 3.88119e+09 0 1
324 1 1 3.88937e+09 3.88962e+09 3.89064e+09 3.89138e+09 0 1
325 1 1 3.89412e+09 3.89436e+09 3.89538e+09 3.89584e+09 0 1
326 2 1 3.90278e+09 3.90303e+09 3.90405e+09 3.90413e+09 0 0
327 2 1 3.9113e+09 3.91155e+09 3.91257e+09 3.91358e+09 1 0
328 2 0 3.92193e+09 3.92218e+09 3.9232e+09 3.92658e+09 1 1
329 1 1 3.92947e+09 3.92973e+09 3.93075e+09 3.93077e+09 0 1
330 2 1 3.93337e+09 3.93363e+09 3.93465e+09 3.93544e+09 0 0
331 2 1 3.94346e+09 3.94371e+09 3.94473e+09 3.94815e+09 1 0
332 2 1 3.95847e+09 3.95872e+09 3.95974e+09 3.96098e+09 1 0
333 2 1 3.9684e+09 3.96866e+09 3.96968e+09 3.97482e+09 1 0
334 2 0 3.98336e+09 3.98361e+09 3.98463e+09 3.98706e+09 0 1
335 1 1 3.99227e+09 3.99251e+09 3.99353e+09 3.99748e+09 0 1
336 1 1 4.00373e+09 4.00398e+09 4.005e+09 4.0052e+09 0 1
337 1 1 4.01125e+09 4.01151e+09 4.01253e+09 4.0146e+09 0 1
338 2 1 4.01961e+09 4.01987e+09 4.02089e+09 4.02152e+09 0 0
339 2 1 4.03077e+09 4.03102e+09 4.03204e+09 4.03286e+09 1 0
340 2 1 4.0421e+09 4.04236e+09 4.04338e+09 4.04404e+09 1 0
341 2 1 4.05376e+09 4.05402e+09 4.05504e+09 4.05526e+09 1 0
342 2 0 4.06372e+09 4.06396e+09 4.06498e+09 4.06516e+09 0 1
343 2 1 4.06813e+09 4.06839e+09 4.06941e+09 4.06956e+09 0 0
344 2 0 4.0782e+09 4.07846e+09 4.07948e+09 4.08083e+09 1 1
345 1 1 4.08347e+09 4.08372e+09 4.08474e+09 4.08575e+09 0 1
346 1 1 4.08851e+09 4.08877e+09 4.08978e+09 4.09009e+09 0 1
347 2 1 4.09633e+09 4.09657e+09 4.09759e+09 4.09809e+09 0 0
348 2 1 4.1083e+09 4.10855e+09 4.10956e+09 4.10997e+09 1 0
349 2 0 4.12553e+09 4.12577e+09 4.12679e+09 4.14737e+09 1 1
350 2 1 4.15025e+09 4.15049e+09 4.15151e+09 4.15204e+09 0 0
351 2 1 4.15919e+09 4.15945e+09 4.16047e+09 4.17044e+09 1 0
352 2 0 4.17759e+09 4.17784e+09 4.17886e+09 4.1808e+09 1 1
353 1 1 4.18904e+09 4.1893e+09 4.19032e+09 4.19282e+09 0 1
354 1 1 4.19961e+09 4.19986e+09 4.20088e+09 4.20195e+09 0 1
355 1 1 4.20481e+09 4.20507e+09 4.20608e+09 4.20643e+09 0 1
356 2 1 4.20935e+09 4.20959e+09 4.21061e+09 4.21161e+09 0 0
357 2 0 4.22104e+09 4.22129e+09 4.22231e+09 4.22561e+09 1 1
358 1 1 4.22854e+09 4.22879e+09 4.2298e+09 4.23462e+09 0 1
359 2 1 4.24206e+09 4.24231e+09 4.24332e+09 4.24566e+09 0 0
360 2 1 4.25271e+09 4.25295e+09 4.25397e+09 4.25502e+09 1 0
361 2 1 4.26259e+09 4.26284e+09 4.26386e+09 4.26712e+09 1 0
362 2 1 4.27424e+09 4.2745e+09 4.27552e+09 4.27588e+09 1 0
363 1 1 4.28338e+09 4.28363e+09 4.28464e+09 4.28611e+09 0 1
364 1 1 4.28876e+09 4.28901e+09 4.29003e+09 4.29113e+09 0 1
365 2 1 5.11387e+06 5.37182e+06 6.39098e+06 6.43791e+06 0 0
366 2 1 1.69349e+07 1.71847e+07 1.82039e+07 1.92925e+07 1 0
367 2 1 2.65656e+07 2.68245e+07 2.78437e+07 3.13615e+07 1 0
368 2 1 3.8655e+07 3.89028e+07 3.9922e+07 4.30084e+07 1 0
369 2 1 5.04945e+07 5.07411e+07 5.17602e+07 5.17736e+07 0 0
370 1 1 6.05553e+07 6.08131e+07 6.18323e+07 6.18606e+07 0 1
371 2 1 6.4852e+07 6.50963e+07 6.61154e+07 6.61474e+07 0 0
372 2 0 7.46588e+07 7.49108e+07 7.59299e+07 7.99127e+07 1 1
373 2 1 8.79012e+07 8.81518e+07 8.9171e+07 9.20682e+07 0 0
374 2 0 1.0028e+08 1.00527e+08 1.01547e+08 1.02365e+08 1 1
375 2 1 1.10346e+08 1.10589e+08 1.11609e+08 1.11881e+08 0 0
376 2 1 1.19382e+08 1.19629e+08 1.20648e+08 1.20731e+08 1 0
377 2 1 1.29357e+08 1.29612e+08 1.30631e+08 1.30647e+08 1 0
378 2 0 1.38115e+08 1.3837e+08 1.39389e+08 1.41883e+08 1 1
379 2 1 1.48385e+08 1.48637e+08 1.49656e+08 1.49911e+08 0 0
380 2 0 1.573e+08 1.57544e+08 1.58564e+08 1.60126e+08 1 1
381 1 1 1.70784e+08 1.71035e+08 1.72054e+08 1.72565e+08 0 1
382 2 1 1.76881e+08 1.7713e+08 1.78149e+08 1.80573e+08 0 0
383 2 1 1.90251e+08 1.90507e+08 1.91526e+08 1.92765e+08 1 0
384 2 1 2.00219e+08 2.00476e+08 2.01495e+08 2.04202e+08 1 0
385 2 0 2.11697e+08 2.11942e+08 2.12961e+08 2.19807e+08 1 1
386 1 1 2.22562e+08 2.22808e+08 2.23827e+08 2.24285e+08 0 1
387 1 1 2.317e+08 2.31945e+08 2.32965e+08 2.33004e+08 0 1
388 1 1 2.35757e+08 2.36e+08 2.3702e+08 2.39203e+08 0 1
389 2 1 2.44971e+08 2.45229e+08 2.46248e+08 2.46521e+08 0 0
390 2 1 2.53569e+08 2.53826e+08 2.54845e+08 2.55806e+08 1 0
391 2 1 2.62869e+08 2.63124e+08 2.64143e+08 2.69407e+08 1 0
392 2 1 2.77592e+08 2.77852e+08 2.78871e+08 2.8177e+08 1 0
393 2 1 2.88864e+08 2.89121e+08 2.9014e+08 2.92809e+08 0 0
394 1 1 3.01194e+08 3.01448e+08 3.02467e+08 3.03558e+08 0 1
395 1 1 3.08413e+08 3.08674e+08 3.09693e+08 3.09788e+08 0 1
396 1 1 3.16643e+08 3.16889e+08 3.17908e+08 3.1795e+08 0 1
397 2 1 3.23442e+08 3.23685e+08 3.24704e+08 3.25119e+08 0 0
398 2 1 3.32528e+08 3.32777e+08 3.33796e+08 3.34352e+08 1 0
399 2 0 3.45797e+08 3.46047e+08 3.47066e+08 3.51548e+08 1 1
400 2 0 3.56366e+08 3.5661e+08 3.5763e+08 3.59968e+08 0 1
401 1 0 3.62529e+08 3.6278e+08 3.63799e+08 3.63873e+08 0 0
402 1 0 3.71076e+08 3.71331e+08 3.7235e+08 3.72612e+08 1 0
403 1 1 3.80759e+08 3.81024e+08 3.82044e+08 3.82226e+08 1 1
404 2 1 3.85027e+08 3.85273e+08 3.86292e+08 3.86885e+08 0 0
405 2 0 3.95823e+08 3.96072e+08 3.97091e+08 4.00874e+08 1 1
406 1 1 4.03948e+08 4.04202e+08 4.05221e+08 4.06841e+08 0 1
407 2 1 4.09859e+08 4.10107e+08 4.11126e+08 4.11208e+08 0 0
408 2 0 4.18713e+08 4.18972e+08 4.19991e+08 4.20079e+08 1 1
409 1 1 4.22633e+08 4.22879e+08 4.23898e+08 4.24472e+08 0 1
410 2 1 4.27215e+08 4.27462e+08 4.28481e+08 4.2914e+08 0 0
411 2 0 4.36322e+08 4.36566e+08 4.37585e+08 4.38033e+08 1 1
412 1 1 4.41036e+08 4.41291e+08 4.4231e+08 4.4264e+08 0 1
413 1 1 4.45385e+08 4.45637e+08 4.46656e+08 4.47599e+08 0 1
414 2 1 4.53037e+08 4.53285e+08 4.54304e+08 4.54456e+08 0 0
415 2 0 4.62393e+08 4.6264e+08 4.63659e+08 4.64256e+08 1 1
416 1 1 4.67559e+08 4.67817e+08 4.68837e+08 4.69402e+08 0 1
417 2 1 4.76201e+08 4.76461e+08 4.7748e+08 4.77997e+08 0 0
418 2 1 4.85151e+08 4.85403e+08 4.86423e+08 4.91061e+08 1 0
419 2 1 5.00674e+08 5.00926e+08 5.01945e+08 5.03017e+08 1 0
420 2 0 5.10178e+08 5.10429e+08 5.11448e+08 5.11858e+08 1 1
421 1 1 5.16224e+08 5.16472e+08 5.17491e+08 5.17613e+08 0 1
422 1 1 5.20608e+08 5.20855e+08 5.21874e+08 5.22337e+08 0 1
423 2 1 5.25424e+08 5.25673e+08 5.26693e+08 5.268e+08 0 0
424 2 0 5.34095e+08 5.34339e+08 5.35359e+08 5.36316e+08 1 1
425 2 1 5.38893e+08 5.39148e+08 5.40167e+08 5.40715e+08 0 0
426 2 0 5.4781e+08 5.48059e+08 5.49078e+08 5.49911e+08 1 1
427 2 1 5.52532e+08 5.52793e+08 5.53812e+08 5.53945e+08 0 0
428 2 0 5.63241e+08 5.63492e+08 5.64511e+08 5.64617e+08 1 1
429 1 1 5.69765e+08 5.70016e+08 5.71035e+08 5.73117e+08 0 1
430 2 0 5.76766e+08 5.77021e+08 5.7804e+08 5.81067e+08 0 1
431 2 0 5.83653e+08 5.8391e+08 5.84929e+08 5.90885e+08 0 1
432 1 0 5.95034e+08 5.95283e+08 5.96303e+08 5.96781e+08 0 0
433 1 0 6.05353e+08 6.05605e+08 6.06625e+08 6.15368e+08 1 0
434 1 0 6.22484e+08 6.22735e+08 6.23754e+08 6.44151e+08 1 0
435 1 0 6.51592e+08 6.51846e+08 6.52865e+08 6.54867e+08 1 0
436 1 0 6.62224e+08 6.62476e+08 6.63495e+08 6.64827e+08 0 0
437 1 0 6.72072e+08 6.72325e+08 6.73344e+08 6.75757e+08 0 0
438 1 1 6.83259e+08 6.83509e+08 6.84529e+08 6.90096e+08 0 1
439 1 0 6.95981e+08 6.96228e+08 6.97247e+08 7.02406e+08 0 0
440 1 0 7.09463e+08 7.09709e+08 7.10728e+08 7.11313e+08 1 0
441 1 1 7.20608e+08 7.20858e+08 7.21878e+08 7.32393e+08 1 1
442 2 0 7.35794e+08 7.36057e+08 7.37076e+08 7.50625e+08 0 1
443 2 0 7.53439e+08 7.53691e+08 7.5471e+08 7.62472e+08 0 1
444 1 0 7.65118e+08 7.65371e+08 7.6639e+08 7.67723e+08 0 0
445 1 1 7.74761e+08 7.75019e+08 7.76038e+08 7.8406e+08 1 1
446 2 1 7.86655e+08 7.86901e+08 7.8792e+08 7.89067e+08 0 0
447 2 0 7.96426e+08 7.9667e+08 7.97689e+08 8.05338e+08 1 1
448 1 1 8.08074e+08 8.08331e+08 8.0935e+08 8.18148e+08 0 1
449 2 0 8.21572e+08 8.21817e+08 8.22836e+08 8.28627e+08 0 1
450 1 0 8.31928e+08 8.32181e+08 8.33201e+08 8.37107e+08 0 0
451 1 1 8.46688e+08 8.46935e+08 8.47954e+08 8.51047e+08 1 1
452 2 0 8.53739e+08 8.53982e+08 8.55001e+08 8.56356e+08 0 1
453 1 1 8.59966e+08 8.6021e+08 8.61229e+08 8.65973e+08 0 1
454 2 1 8.68595e+08 8.68844e+08 8.69863e+08 8.72903e+08 0 0
455 2 0 8.79984e+08 8.80243e+08 8.81262e+08 8.86906e+08 1 1
456 2 1 8.89507e+08 8.89752e+08 8.90772e+08 8.93855e+08 0 0
457 2 1 9.01338e+08 9.01589e+08 9.02608e+08 9.05805e+08 1 0
458 2 1 9.13076e+08 9.13326e+08 9.14345e+08 9.42151e+08 1 0
459 2 0 9.49586e+08 9.49838e+08 9.50857e+08 9.62106e+08 1 1
460 1 1 9.66782e+08 9.67034e+08 9.68053e+08 9.73295e+08 0 1
461 2 1 9.76429e+08 9.76676e+08 9.77696e+08 9.80342e+08 0 0
462 2 1 9.87516e+08 9.87764e+08 9.88783e+08 9.90062e+08 1 0
463 2 1 9.97494e+08 9.97737e+08 9.98757e+08 1.00452e+09 1 0
464 2 1 1.01175e+09 1.01199e+09 1.01301e+09 1.01524e+09 1 0
465 1 1 1.02268e+09 1.02293e+09 1.02395e+09 1.02484e+09 0 1
466 1 0 1.02749e+09 1.02775e+09 1.02876e+09 1.03617e+09 0 0
467 1 1 1.04338e+09 1.04363e+09 1.04465e+09 1.05249e+09 1 1
468 2 0 1.0553e+09 1.05555e+09 1.05656e+09 1.05678e+09 0 1
469 2 1 1.06017e+09 1.06043e+09 1.06145e+09 1.06854e+09 0 0
470 2 1 1.07571e+09 1.07596e+09 1.07698e+09 1.08089e+09 1 0
471 2 0 1.08807e+09 1.08831e+09 1.08933e+09 1.09783e+09 1 1
472 1 0 1.10039e+09 1.10065e+09 1.10167e+09 1.11635e+09 0 0
473 1 0 1.12411e+09 1.12437e+09 1.12539e+09 1.12611e+09 1 0
474 1 1 1.1335e+09 1.13374e+09 1.13476e+09 1.1348e+09 1 1
475 1 0 1.13765e+09 1.1379e+09 1.13892e+09 1.14441e+09 0 0
476 1 0 1.15192e+09 1.15217e+09 1.15319e+09 1.15522e+09 1 0
477 1 0 1.1627e+09 1.16296e+09 1.16398e+09 1.16738e+09 1 0
478 1 0 1.17479e+09 1.17504e+09 1.17606e+09 1.1824e+09 1 0
479 1 0 1.18971e+09 1.18996e+09 1.19098e+09 1.19833e+09 0 0
480 1 0 1.20584e+09 1.20608e+09 1.2071e+09 1.22227e+09 0 0
481 1 0 1.2296e+09 1.22985e+09 1.23087e+09 1.23355e+09 0 0
482 2 0 1.2407e+09 1.24095e+09 1.24197e+09 1.24568e+09 0 1
483 2 0 1.24853e+09 1.24879e+09 1.2498e+09 1.2544e+09 0 1
484 2 0 1.25737e+09 1.25762e+09 1.25864e+09 1.25943e+09 0 1
485 1 0 1.26221e+09 1.26246e+09 1.26348e+09 1.26713e+09 0 0
486 1 0 1.27544e+09 1.27569e+09 1.27671e+09 1.27683e+09 1 0
487 1 0 1.28402e+09 1.28426e+09 1.28528e+09 1.28995e+09 1 0
488 1 0 1.29734e+09 1.2976e+09 1.29862e+09 1.29951e+09 1 0
489 1 0 1.30691e+09 1.30717e+09 1.30819e+09 1.31091e+09 0 0
490 2 0 1.31837e+09 1.31862e+09 1.31963e+09 1.32628e+09 0 1
491 2 1 1.32921e+09 1.32946e+09 1.33048e+09 1.33541e+09 0 0
492 2 0 1.34255e+09 1.3428e+09 1.34382e+09 1.3442e+09 1 1
493 1 1 1.34694e+09 1.34718e+09 1.3482e+09 1.34918e+09 0 1
494 2 0 1.35184e+09 1.35209e+09 1.35311e+09 1.35608e+09 0 1
495 1 0 1.36088e+09 1.36113e+09 1.36215e+09 1.3637e+09 0 0
496 1 0 1.37134e+09 1.37159e+09 1.37261e+09 1.37627e+09 1 0
497 1 0 1.38594e+09 1.38618e+09 1.3872e+09 1.39335e+09 1 0
498 1 1 1.40082e+09 1.40107e+09 1.40209e+09 1.40241e+09 1 1
499 2 0 1.40681e+09 1.40707e+09 1.40809e+09 1.41409e+09 0 1
500 1 1 1.41733e+09 1.41758e+09 1.4186e+09 1.41867e+09 0 1
501 1 1 1.42154e+09 1.42179e+09 1.42281e+09 1.43397e+09 0 1
502 2 1 1.43664e+09 1.43691e+09 1.43792e+09 1.44479e+09 0 0
503 2 0 1.4522e+09 1.45246e+09 1.45348e+09 1.4727e+09 1 1
504 1 0 1.47561e+09 1.47587e+09 1.47689e+09 1.48554e+09 0 0
505 1 1 1.49313e+09 1.49338e+09 1.4944e+09 1.53206e+09 1 1
506 2 0 1.53477e+09 1.53501e+09 1.53603e+09 1.53638e+09 0 1
507 2 1 1.53953e+09 1.53978e+09 1.5408e+09 1.5412e+09 0 0
508 2 0 1.54986e+09 1.55011e+09 1.55113e+09 1.56171e+09 1 1
509 2 0 1.56548e+09 1.56573e+09 1.56675e+09 1.56834e+09 0 1
510 2 0 1.57295e+09 1.57321e+09 1.57423e+09 1.5807e+09 0 1
511 2 0 1.58384e+09 1.5841e+09 1.58512e+09 1.59132e+09 0 1
512 1 0 1.59453e+09 1.59479e+09 1.59581e+09 1.60599e+09 0 0
513 1 0 1.61315e+09 1.6134e+09 1.61442e+09 1.62296e+09 1 0
514 1 0 1.63035e+09 1.63059e+09 1.63161e+09 1.63396e+09 1 0
515 1 1 1.6412e+09 1.64145e+09 1.64247e+09 1.64518e+09 1 1
516 2 0 1.6478e+09 1.64804e+09 1.64906e+09 1.66202e+09 0 1
517 1 0 1.66465e+09 1.6649e+09 1.66592e+09 1.66659e+09 0 0
518 1 0 1.67367e+09 1.67391e+09 1.67493e+09 1.68115e+09 1 0
519 1 1 1.69202e+09 1.69227e+09 1.69329e+09 1.72807e+09 1 1
520 1 0 1.73108e+09 1.73134e+09 1.73236e+09 1.73293e+09 0 0
521 1 0 1.74027e+09 1.74052e+09 1.74154e+09 1.89131e+09 1 0
