trial trialType response stillTime stimOnset stimOffset respTime correctionTrial correct
001 2 0 1.4764e+07 1.50681e+07 1.60873e+07 1.67153e+07 0 1
002 2 0 1.97755e+07 2.00505e+07 2.10697e+07 2.98423e+07 0 1
003 2 1 3.2554e+07 3.28283e+07 3.38474e+07 4.15796e+07 0 0
004 2 1 5.21093e+07 5.23676e+07 5.33868e+07 5.36967e+07 1 0
005 2 0 6.43431e+07 6.45959e+07 6.56151e+07 6.64303e+07 1 1
006 1 0 7.68174e+07 7.70718e+07 7.8091e+07 8.03682e+07 0 0
007 1 0 8.90757e+07 8.93316e+07 9.03507e+07 9.17663e+07 1 0
008 1 0 1.00552e+08 1.00812e+08 1.01831e+08 1.01882e+08 1 0
009 1 1 1.09339e+08 1.09592e+08 1.10612e+08 1.11437e+08 1 1
010 1 0 1.1487e+08 1.15122e+08 1.16142e+08 1.17262e+08 0 0
011 1 0 1.38217e+08 1.38479e+08 1.39498e+08 1.39552e+08 1 0
012 1 0 1.46753e+08 1.47003e+08 1.48023e+08 1.49703e+08 1 0
013 1 0 1.66332e+08 1.66592e+08 1.67611e+08 1.68667e+08 1 0
014 1 1 1.76836e+08 1.77093e+08 1.78112e+08 1.78207e+08 0 1
015 2 1 1.81223e+08 1.81474e+08 1.82494e+08 1.82846e+08 0 0
016 2 1 1.91926e+08 1.92169e+08 1.93188e+08 1.93219e+08 1 0
017 2 0 2.08238e+08 2.08504e+08 2.09524e+08 2.10691e+08 1 1
018 1 1 2.21915e+08 2.22176e+08 2.23195e+08 2.25619e+08 0 1
019 2 0 2.28491e+08 2.28746e+08 2.29765e+08 2.30432e+08 0 1
020 1 1 2.33084e+08 2.33336e+08 2.34355e+08 2.34497e+08 0 1
021 2 1 2.40697e+08 2.40951e+08 2.4197e+08 2.42035e+08 0 0
022 2 0 2.50405e+08 2.50656e+08 2.51675e+08 2.51921e+08 1 1
023 2 1 2.55595e+08 2.55849e+08 2.56868e+08 2.57018e+08 0 0
024 2 0 2.68155e+08 2.6841e+08 2.69429e+08 2.7247e+08 1 1
025 1 1 2.75076e+08 2.75335e+08 2.76354e+08 2.76475e+08 0 1
026 2 0 2.79457e+08 2.79711e+08 2.8073e+08 2.85408e+08 0 1
027 1 0 2.964e+08 2.96657e+08 2.97677e+08 2.97704e+08 0 0
028 1 0 3.19841e+08 3.20104e+08 3.21123e+08 3.21253e+08 1 0
029 1 1 3.32061e+08 3.32327e+08 3.33346e+08 3.33433e+08 1 1
030 1 1 3.45391e+08 3.45646e+08 3.46665e+08 3.46963e+08 0 1
031 1 1 3.49617e+08 3.49878e+08 3.50897e+08 3.5117e+08 0 1
032 1 1 3.54205e+08 3.54448e+08 3.55467e+08 3.55491e+08 0 1
033 1 1 3.58019e+08 3.58277e+08 3.59297e+08 3.60895e+08 0 1
034 1 1 3.63659e+08 3.63921e+08 3.6494e+08 3.64959e+08 0 1
035 2 0 3.86276e+08 3.86534e+08 3.87553e+08 3.89307e+08 0 1
036 2 0 3.95286e+08 3.95535e+08 3.96554e+08 3.96763e+08 0 1
037 2 0 4.16687e+08 4.16934e+08 4.17953e+08 4.19505e+08 0 1
038 2 1 4.28015e+08 4.28266e+08 4.29285e+08 4.29537e+08 0 0
039 2 1 4.36795e+08 4.37046e+08 4.38065e+08 4.38312e+08 1 0
040 2 1 4.48085e+08 4.48341e+08 4.49361e+08 4.49606e+08 1 0
041 2 0 4.76105e+08 4.76366e+08 4.77385e+08 4.77902e+08 1 1
042 1 1 4.87911e+08 4.88161e+08 4.89181e+08 4.89247e+08 0 1
043 2 0 5.01849e+08 5.02099e+08 5.03118e+08 5.04687e+08 0 1
044 1 1 5.21043e+08 5.21306e+08 5.22325e+08 5.23163e+08 0 1
045 2 1 5.37916e+08 5.38166e+08 5.39186e+08 5.3924e+08 0 0
046 2 0 5.46547e+08 5.46802e+08 5.47821e+08 5.48068e+08 1 1
047 1 1 5.50888e+08 5.51139e+08 5.52158e+08 5.52304e+08 0 1
048 1 1 5.54872e+08 5.5512e+08 5.5614e+08 5.56444e+08 0 1
049 1 0 5.65899e+08 5.66161e+08 5.6718e+08 5.68473e+08 0 0
050 1 0 5.75981e+08 5.76242e+08 5.77261e+08 5.78587e+08 1 0
051 1 0 5.90811e+08 5.91055e+08 5.92074e+08 5.9212e+08 1 0
052 1 1 5.99306e+08 5.99572e+08 6.00592e+08 6.00714e+08 1 1
053 2 1 6.07146e+08 6.07413e+08 6.08433e+08 6.08438e+08 0 0
054 2 0 6.16893e+08 6.17148e+08 6.18167e+08 6.19855e+08 1 1
055 1 1 6.23663e+08 6.2392e+08 6.24939e+08 6.2496e+08 0 1
056 2 0 6.32773e+08 6.33038e+08 6.34057e+08 6.34148e+08 0 1
057 2 1 6.36747e+08 6.37012e+08 6.38031e+08 6.39008e+08 0 0
058 2 1 6.47664e+08 6.47915e+08 6.48934e+08 6.48952e+08 1 0
059 2 0 6.57771e+08 6.58025e+08 6.59044e+08 6.60623e+08 1 1
060 2 1 6.74319e+08 6.74564e+08 6.75584e+08 6.7574e+08 0 0
061 2 0 6.9081e+08 6.91064e+08 6.92083e+08 6.93605e+08 1 1
062 1 1 6.9626e+08 6.96505e+08 6.97524e+08 6.97691e+08 0 1
063 1 1 7.00588e+08 7.00844e+08 7.01863e+08 7.02218e+08 0 1
064 1 1 7.20964e+08 7.21209e+08 7.22229e+08 7.22296e+08 0 1
065 2 1 7.44831e+08 7.45087e+08 7.46106e+08 7.46555e+08 0 0
066 2 1 7.70561e+08 7.70819e+08 7.71838e+08 7.71871e+08 1 0
067 2 1 7.86165e+08 7.86413e+08 7.87432e+08 7.88632e+08 1 0
068 2 1 8.05277e+08 8.05544e+08 8.06563e+08 8.18862e+08 1 0
069 2 0 8.28715e+08 8.2897e+08 8.29989e+08 8.301e+08 0 1
070 1 1 8.33021e+08 8.33284e+08 8.34303e+08 8.34614e+08 0 1
071 1 1 8.43093e+08 8.43349e+08 8.44368e+08 8.4439e+08 0 1
072 1 1 8.68656e+08 8.68912e+08 8.69931e+08 8.6998e+08 0 1
073 2 1 8.76301e+08 8.76545e+08 8.77564e+08 8.77893e+08 0 0
074 2 1 8.87707e+08 8.87968e+08 8.88988e+08 8.89776e+08 1 0
075 2 0 9.02399e+08 9.02649e+08 9.03668e+08 9.04423e+08 1 1
076 2 0 9.07215e+08 9.07467e+08 9.08486e+08 9.08751e+08 0 1
077 1 0 9.11382e+08 9.1164e+08 9.12659e+08 9.12745e+08 0 0
078 1 1 9.19813e+08 9.20072e+08 9.21091e+08 9.27059e+08 1 1
079 1 1 9.34778e+08 9.35035e+08 9.36054e+08 9.36458e+08 0 1
080 1 1 9.4032e+08 9.40576e+08 9.41595e+08 9.41607e+08 0 1
081 2 0 9.44199e+08 9.44451e+08 9.4547e+08 9.46122e+08 0 1
082 2 1 9.53696e+08 9.5395e+08 9.54969e+08 9.55076e+08 0 0
083 2 1 9.6225e+08 9.62509e+08 9.63528e+08 9.63687e+08 1 0
084 2 0 9.74756e+08 9.75018e+08 9.76037e+08 9.76126e+08 1 1
085 1 1 9.83381e+08 9.83636e+08 9.84655e+08 9.84662e+08 0 1
086 1 1 9.95959e+08 9.96215e+08 9.97234e+08 9.97272e+08 0 1
087 2 1 1.00261e+09 1.00288e+09 1.00389e+09 1.00391e+09 0 0
088 2 0 1.01385e+09 1.0141e+09 1.01512e+09 1.0155e+09 1 1
089 2 0 1.04377e+09 1.04403e+09 1.04505e+09 1.04507e+09 0 1
090 1 0 1.0525e+09 1.05276e+09 1.05378e+09 1.0538e+09 0 0
091 1 0 1.06666e+09 1.06692e+09 1.06794e+09 1.07112e+09 1 0
092 1 1 1.07966e+09 1.07991e+09 1.08093e+09 1.08094e+09 1 1
093 1 1 1.08753e+09 1.08779e+09 1.08881e+09 1.08886e+09 0 1
094 2 1 1.0963e+09 1.09656e+09 1.09758e+09 1.09783e+09 0 0
095 2 0 1.10998e+09 1.11024e+09 1.11126e+09 1.11128e+09 1 1
096 2 1 1.11472e+09 1.11497e+09 1.11599e+09 1.11624e+09 0 0
097 2 0 1.12561e+09 1.12587e+09 1.12689e+09 1.12699e+09 1 1
098 2 0 1.12982e+09 1.13007e+09 1.13109e+09 1.13266e+09 0 1
099 2 0 1.15081e+09 1.15107e+09 1.15209e+09 1.15361e+09 0 1
100 1 1 1.16267e+09 1.16293e+09 1.16395e+09 1.16396e+09 0 1
101 1 1 1.16714e+09 1.16741e+09 1.16843e+09 1.16843e+09 0 1
102 2 1 1.17733e+09 1.17759e+09 1.17861e+09 1.17903e+09 0 0
103 2 0 1.19154e+09 1.1918e+09 1.19282e+09 1.1929e+09 1 1
104 2 1 1.1957e+09 1.19596e+09 1.19698e+09 1.19912e+09 0 0
105 2 1 1.20889e+09 1.20914e+09 1.21016e+09 1.21054e+09 1 0
106 2 1 1.22411e+09 1.22437e+09 1.22539e+09 1.22555e+09 1 0
107 2 0 1.24189e+09 1.24213e+09 1.24315e+09 1.24933e+09 1 1
108 2 1 1.26285e+09 1.26311e+09 1.26413e+09 1.2646e+09 0 0
109 2 1 1.27249e+09 1.27274e+09 1.27376e+09 1.27379e+09 1 0
110 2 0 1.28197e+09 1.28223e+09 1.28325e+09 1.28374e+09 1 1
111 2 0 1.29102e+09 1.29127e+09 1.29229e+09 1.29247e+09 0 1
112 2 1 1.29529e+09 1.29555e+09 1.29657e+09 1.29748e+09 0 0
113 2 0 1.30694e+09 1.3072e+09 1.30821e+09 1.30826e+09 1 1
114 2 0 1.31176e+09 1.31202e+09 1.31304e+09 1.31323e+09 0 1
115 1 1 1.31942e+09 1.31968e+09 1.3207e+09 1.3208e+09 0 1
116 1 1 1.32358e+09 1.32384e+09 1.32486e+09 1.32519e+09 0 1
117 2 1 1.32783e+09 1.32809e+09 1.32911e+09 1.32981e+09 0 0
118 2 1 1.34267e+09 1.34292e+09 1.34394e+09 1.34441e+09 1 0
119 2 0 1.3527e+09 1.35296e+09 1.35398e+09 1.35586e+09 1 1
120 1 1 1.36359e+09 1.36385e+09 1.36487e+09 1.36512e+09 0 1
121 1 1 1.37023e+09 1.37048e+09 1.3715e+09 1.37151e+09 0 1
122 1 1 1.37405e+09 1.37431e+09 1.37533e+09 1.37535e+09 0 1
123 1 1 1.38092e+09 1.38117e+09 1.38219e+09 1.38219e+09 0 1
124 2 0 1.38868e+09 1.38892e+09 1.38994e+09 1.39104e+09 0 1
125 1 1 1.3988e+09 1.39906e+09 1.40008e+09 1.40011e+09 0 1
126 2 0 1.40878e+09 1.40903e+09 1.41004e+09 1.41115e+09 0 1
127 1 1 1.41854e+09 1.41878e+09 1.4198e+09 1.41981e+09 0 1
128 2 1 1.4232e+09 1.42345e+09 1.42447e+09 1.4247e+09 0 0
129 2 1 1.43355e+09 1.43381e+09 1.43483e+09 1.43499e+09 1 0
130 2 0 1.44863e+09 1.44889e+09 1.44991e+09 1.44994e+09 1 1
131 1 1 1.4662e+09 1.46645e+09 1.46747e+09 1.46748e+09 0 1
132 1 0 1.47728e+09 1.47753e+09 1.47855e+09 1.47864e+09 0 0
133 1 1 1.48691e+09 1.48716e+09 1.48818e+09 1.48923e+09 1 1
134 1 0 1.49454e+09 1.4948e+09 1.49582e+09 1.50126e+09 0 0
135 1 1 1.51783e+09 1.51809e+09 1.51911e+09 1.51912e+09 1 1
136 2 1 1.52906e+09 1.52931e+09 1.53033e+09 1.5305e+09 0 0
137 2 0 1.54026e+09 1.54052e+09 1.54154e+09 1.54158e+09 1 1
138 2 0 1.5443e+09 1.54455e+09 1.54557e+09 1.54779e+09 0 1
139 2 1 1.55045e+09 1.5507e+09 1.55172e+09 1.55428e+09 0 0
140 2 1 1.57628e+09 1.57654e+09 1.57756e+09 1.57757e+09 1 0
141 2 1 1.58617e+09 1.58644e+09 1.58746e+09 1.5875e+09 1 0
142 2 0 1.60145e+09 1.60172e+09 1.60273e+09 1.60304e+09 1 1
143 2 1 1.60576e+09 1.60601e+09 1.60703e+09 1.60863e+09 0 0
144 2 0 1.61602e+09 1.61628e+09 1.6173e+09 1.61732e+09 1 1
145 1 1 1.61992e+09 1.62017e+09 1.62119e+09 1.62126e+09 0 1
146 2 1 1.62407e+09 1.62433e+09 1.62535e+09 1.62538e+09 0 0
147 2 0 1.64024e+09 1.64049e+09 1.64151e+09 1.64152e+09 1 1
148 1 1 1.64418e+09 1.64444e+09 1.64546e+09 1.64548e+09 0 1
149 2 0 1.64832e+09 1.64857e+09 1.64959e+09 1.65022e+09 0 1
150 2 1 1.65326e+09 1.65351e+09 1.65452e+09 1.65454e+09 0 0
151 2 0 1.6705e+09 1.67075e+09 1.67177e+09 1.67187e+09 1 1
152 1 0 1.67824e+09 1.67849e+09 1.67951e+09 1.6797e+09 0 0
153 1 1 1.68809e+09 1.68834e+09 1.68936e+09 1.68948e+09 1 1
154 2 1 1.69227e+09 1.69254e+09 1.69356e+09 1.69462e+09 0 0
155 2 0 1.70385e+09 1.70411e+09 1.70513e+09 1.70521e+09 1 1
156 1 0 1.71376e+09 1.71401e+09 1.71503e+09 1.71508e+09 0 0
157 1 1 1.72909e+09 1.72934e+09 1.73036e+09 1.73042e+09 1 1
158 2 0 1.74032e+09 1.74059e+09 1.7416e+09 1.7497e+09 0 1
159 1 1 1.75349e+09 1.75375e+09 1.75477e+09 1.75481e+09 0 1
160 2 1 1.76081e+09 1.76106e+09 1.76208e+09 1.76209e+09 0 0
161 2 0 1.77247e+09 1.77273e+09 1.77375e+09 1.77465e+09 1 1
162 1 1 1.77922e+09 1.77948e+09 1.7805e+09 1.78051e+09 0 1
163 1 1 1.78332e+09 1.78358e+09 1.7846e+09 1.78477e+09 0 1
164 2 1 1.79283e+09 1.79309e+09 1.79411e+09 1.79432e+09 0 0
165 2 1 1.80474e+09 1.80499e+09 1.80601e+09 1.80612e+09 1 0
166 2 1 1.81371e+09 1.81396e+09 1.81498e+09 1.81503e+09 1 0
167 2 0 1.82228e+09 1.82254e+09 1.82356e+09 1.82501e+09 1 1
168 1 1 1.83733e+09 1.83759e+09 1.83861e+09 1.83867e+09 0 1
169 1 0 1.84436e+09 1.84463e+09 1.84565e+09 1.84573e+09 0 0
170 1 1 1.85613e+09 1.85638e+09 1.8574e+09 1.8615e+09 1 1
171 1 1 1.86422e+09 1.86448e+09 1.8655e+09 1.86551e+09 0 1
172 1 1 1.86842e+09 1.86867e+09 1.86969e+09 1.86997e+09 0 1
173 2 1 1.87282e+09 1.87307e+09 1.87409e+09 1.8741e+09 0 0
174 2 1 1.88138e+09 1.88163e+09 1.88265e+09 1.88296e+09 1 0
175 2 0 1.89785e+09 1.89811e+09 1.89913e+09 1.89915e+09 1 1
176 2 0 1.90888e+09 1.90913e+09 1.91015e+09 1.91024e+09 0 1
177 1 1 1.91278e+09 1.91304e+09 1.91406e+09 1.91884e+09 0 1
178 1 1 1.92149e+09 1.92174e+09 1.92276e+09 1.92858e+09 0 1
179 2 1 1.93201e+09 1.93226e+09 1.93328e+09 1.93739e+09 0 0
180 2 1 1.94487e+09 1.94512e+09 1.94614e+09 1.94634e+09 1 0
181 2 1 1.9609e+09 1.96116e+09 1.96218e+09 1.96251e+09 1 0
182 2 1 1.97042e+09 1.97068e+09 1.9717e+09 1.9746e+09 1 0
183 1 1 1.98283e+09 1.98308e+09 1.98409e+09 1.98414e+09 0 1
184 1 1 1.9868e+09 1.98706e+09 1.98808e+09 1.98818e+09 0 1
185 1 1 1.99128e+09 1.99154e+09 1.99256e+09 1.99257e+09 0 1
186 1 1 1.99544e+09 1.99569e+09 1.99671e+09 1.99673e+09 0 1
187 1 1 2.00326e+09 2.00352e+09 2.00454e+09 2.00466e+09 0 1
188 2 1 2.01657e+09 2.01682e+09 2.01784e+09 2.01786e+09 0 0
189 2 0 2.02501e+09 2.02526e+09 2.02628e+09 2.0284e+09 1 1
190 2 0 2.03902e+09 2.03928e+09 2.0403e+09 2.04059e+09 0 1
191 1 1 2.04369e+09 2.04395e+09 2.04497e+09 2.04497e+09 0 1
192 1 1 2.05187e+09 2.05212e+09 2.05314e+09 2.0532e+09 0 1
193 2 1 2.05593e+09 2.05618e+09 2.0572e+09 2.05748e+09 0 0
194 2 1 2.06735e+09 2.0676e+09 2.06862e+09 2.06872e+09 1 0
195 2 0 2.07734e+09 2.07758e+09 2.0786e+09 2.07865e+09 1 1
196 1 1 2.08269e+09 2.08294e+09 2.08396e+09 2.08399e+09 0 1
197 2 1 2.08702e+09 2.08728e+09 2.0883e+09 2.09024e+09 0 0
198 2 1 2.09949e+09 2.09975e+09 2.10077e+09 2.10077e+09 1 0
199 2 1 2.11109e+09 2.11135e+09 2.11237e+09 2.11445e+09 1 0
200 2 1 2.13099e+09 2.13125e+09 2.13227e+09 2.13543e+09 1 0
201 2 1 2.14304e+09 2.1433e+09 2.14432e+09 2.14433e+09 0 0
202 2 0 2.15368e+09 2.15394e+09 2.15496e+09 2.15498e+09 0 1
203 1 1 2.1578e+09 2.15806e+09 2.15908e+09 2.15925e+09 0 1
204 1 1 2.16214e+09 2.16239e+09 2.16341e+09 2.16342e+09 0 1
205 2 1 2.16855e+09 2.16881e+09 2.16983e+09 2.16992e+09 0 0
206 2 1 2.18646e+09 2.18671e+09 2.18773e+09 2.18891e+09 1 0
207 2 0 2.20376e+09 2.204e+09 2.20502e+09 2.20505e+09 1 1
208 1 1 2.20759e+09 2.20785e+09 2.20887e+09 2.20895e+09 0 1
209 1 1 2.21709e+09 2.21736e+09 2.21838e+09 2.21839e+09 0 1
210 1 1 2.23399e+09 2.23425e+09 2.23526e+09 2.23557e+09 0 1
211 2 1 2.23893e+09 2.2392e+09 2.24022e+09 2.24048e+09 0 0
212 2 0 2.24757e+09 2.24783e+09 2.24885e+09 2.24888e+09 1 1
213 1 1 2.2533e+09 2.25355e+09 2.25457e+09 2.25458e+09 0 1
214 2 0 2.2645e+09 2.26474e+09 2.26576e+09 2.26578e+09 0 1
215 2 0 2.26862e+09 2.26888e+09 2.26989e+09 2.26997e+09 0 1
216 2 1 2.27608e+09 2.27633e+09 2.27735e+09 2.27735e+09 0 0
217 2 1 2.28664e+09 2.28689e+09 2.28791e+09 2.28887e+09 1 0
218 2 0 2.29627e+09 2.29653e+09 2.29755e+09 2.29758e+09 1 1
219 1 1 2.30036e+09 2.30062e+09 2.30164e+09 2.30169e+09 0 1
220 1 1 2.30432e+09 2.30457e+09 2.30559e+09 2.30561e+09 0 1
221 1 1 2.31442e+09 2.31468e+09 2.3157e+09 2.31585e+09 0 1
222 1 1 2.31973e+09 2.31999e+09 2.32101e+09 2.32122e+09 0 1
223 2 1 2.32485e+09 2.32511e+09 2.32612e+09 2.32903e+09 0 0
224 2 0 2.33801e+09 2.33826e+09 2.33927e+09 2.33953e+09 1 1
225 2 1 2.34508e+09 2.34533e+09 2.34635e+09 2.34731e+09 0 0
226 2 1 2.36644e+09 2.36669e+09 2.36771e+09 2.36773e+09 1 0
227 2 0 2.38359e+09 2.38385e+09 2.38487e+09 2.38724e+09 1 1
228 2 0 2.39426e+09 2.39451e+09 2.39553e+09 2.39606e+09 0 1
229 1 1 2.40066e+09 2.40092e+09 2.40194e+09 2.40195e+09 0 1
230 2 1 2.41203e+09 2.41229e+09 2.41331e+09 2.41332e+09 0 0
231 2 0 2.42151e+09 2.42176e+09 2.42278e+09 2.42479e+09 1 1
232 2 1 2.42735e+09 2.4276e+09 2.42862e+09 2.43166e+09 0 0
233 2 0 2.43879e+09 2.43904e+09 2.44006e+09 2.44152e+09 1 1
234 2 1 2.44609e+09 2.44635e+09 2.44737e+09 2.44745e+09 0 0
235 2 0 2.46202e+09 2.46228e+09 2.4633e+09 2.46413e+09 1 1
236 2 0 2.46874e+09 2.469e+09 2.47002e+09 2.47012e+09 0 1
237 2 1 2.47303e+09 2.47329e+09 2.47431e+09 2.47438e+09 0 0
238 2 0 2.4818e+09 2.48206e+09 2.48308e+09 2.4857e+09 1 1
239 2 1 2.48841e+09 2.48866e+09 2.48968e+09 2.49103e+09 0 0
240 2 0 2.50306e+09 2.50332e+09 2.50434e+09 2.50813e+09 1 1
241 1 1 2.51163e+09 2.51189e+09 2.5129e+09 2.51294e+09 0 1
242 1 1 2.51593e+09 2.51618e+09 2.5172e+09 2.51721e+09 0 1
243 1 1 2.52042e+09 2.52068e+09 2.5217e+09 2.52171e+09 0 1
244 1 1 2.52672e+09 2.52697e+09 2.52799e+09 2.52805e+09 0 1
245 2 1 2.53119e+09 2.53143e+09 2.53245e+09 2.53288e+09 0 0
246 2 1 2.53992e+09 2.54017e+09 2.54119e+09 2.5412e+09 1 0
247 2 1 2.55095e+09 2.5512e+09 2.55222e+09 2.55237e+09 1 0
248 2 1 2.56029e+09 2.56055e+09 2.56157e+09 2.56158e+09 1 0
249 1 1 2.57573e+09 2.57597e+09 2.57699e+09 2.57704e+09 0 1
250 1 1 2.57988e+09 2.58014e+09 2.58116e+09 2.58128e+09 0 1
251 1 1 2.58455e+09 2.58481e+09 2.58583e+09 2.58585e+09 0 1
252 2 0 2.58852e+09 2.58877e+09 2.58979e+09 2.59156e+09 0 1
253 1 1 2.59438e+09 2.59462e+09 2.59564e+09 2.59573e+09 0 1
254 1 1 2.59974e+09 2.59999e+09 2.60101e+09 2.60102e+09 0 1
255 2 1 2.61123e+09 2.61148e+09 2.6125e+09 2.61447e+09 0 0
256 2 0 2.62186e+09 2.62211e+09 2.62313e+09 2.62343e+09 1 1
257 2 1 2.63095e+09 2.63121e+09 2.63223e+09 2.63227e+09 0 0
258 2 1 2.64066e+09 2.64092e+09 2.64194e+09 2.64257e+09 1 0
259 2 1 2.65178e+09 2.65203e+09 2.65304e+09 2.65341e+09 1 0
260 2 0 2.66171e+09 2.66195e+09 2.66297e+09 2.66344e+09 1 1
261 1 1 2.67043e+09 2.67069e+09 2.67171e+09 2.67174e+09 0 1
262 2 1 2.67718e+09 2.67743e+09 2.67845e+09 2.67847e+09 0 0
263 2 0 2.68551e+09 2.68577e+09 2.68679e+09 2.68825e+09 1 1
264 2 0 2.69092e+09 2.69117e+09 2.69219e+09 2.69713e+09 0 1
265 1 1 2.70084e+09 2.70109e+09 2.70211e+09 2.70212e+09 0 1
266 2 0 2.71408e+09 2.71434e+09 2.71536e+09 2.71555e+09 0 1
267 2 0 2.71818e+09 2.71843e+09 2.71945e+09 2.71972e+09 0 1
268 2 0 2.72249e+09 2.72274e+09 2.72376e+09 2.72541e+09 0 1
269 2 1 2.73163e+09 2.73189e+09 2.7329e+09 2.73528e+09 0 0
270 2 1 2.74273e+09 2.74298e+09 2.744e+09 2.74401e+09 1 0
271 2 0 2.75137e+09 2.75162e+09 2.75264e+09 2.75295e+09 1 1
272 2 1 2.7555e+09 2.75575e+09 2.75677e+09 2.75749e+09 0 0
273 2 0 2.76873e+09 2.76898e+09 2.77e+09 2.77194e+09 1 1
274 2 1 2.77607e+09 2.77633e+09 2.77734e+09 2.77743e+09 0 0
275 2 1 2.78557e+09 2.78583e+09 2.78685e+09 2.78686e+09 1 0
276 2 1 2.79417e+09 2.79443e+09 2.79545e+09 2.80363e+09 1 0
277 2 1 2.81081e+09 2.81108e+09 2.8121e+09 2.81534e+09 1 0
278 2 0 2.82264e+09 2.8229e+09 2.82392e+09 2.82528e+09 0 1
279 1 1 2.82785e+09 2.8281e+09 2.82912e+09 2.82918e+09 0 1
280 2 1 2.83367e+09 2.83393e+09 2.83495e+09 2.83499e+09 0 0
281 2 0 2.84272e+09 2.84297e+09 2.84399e+09 2.84539e+09 1 1
282 2 1 2.84998e+09 2.85024e+09 2.85126e+09 2.85491e+09 0 0
283 2 0 2.86288e+09 2.86315e+09 2.86417e+09 2.86424e+09 1 1
284 1 1 2.86706e+09 2.86731e+09 2.86833e+09 2.86848e+09 0 1
285 2 1 2.871e+09 2.87126e+09 2.87228e+09 2.87346e+09 0 0
286 2 0 2.88358e+09 2.88383e+09 2.88485e+09 2.88518e+09 1 1
287 2 0 2.88793e+09 2.88819e+09 2.88921e+09 2.89127e+09 0 1
288 1 1 2.89385e+09 2.8941e+09 2.89512e+09 2.89517e+09 0 1
289 1 1 2.8995e+09 2.89975e+09 2.90077e+09 2.90084e+09 0 1
290 2 1 2.90479e+09 2.90504e+09 2.90606e+09 2.90629e+09 0 0
291 2 0 2.91353e+09 2.91379e+09 2.91481e+09 2.91532e+09 1 1
292 1 1 2.91796e+09 2.91823e+09 2.91925e+09 2.91929e+09 0 1
293 2 1 2.92367e+09 2.92392e+09 2.92494e+09 2.92514e+09 0 0
294 2 0 2.93311e+09 2.93337e+09 2.93439e+09 2.93501e+09 1 1
295 2 1 2.93919e+09 2.93944e+09 2.94046e+09 2.94424e+09 0 0
296 2 1 2.9518e+09 2.95205e+09 2.95307e+09 2.95308e+09 1 0
297 2 0 2.96091e+09 2.96116e+09 2.96218e+09 2.96315e+09 1 1
298 2 0 2.9701e+09 2.97035e+09 2.97137e+09 2.97327e+09 0 1
299 1 1 2.97609e+09 2.97633e+09 2.97735e+09 2.97751e+09 0 1
300 2 1 2.98451e+09 2.98476e+09 2.98578e+09 2.98643e+09 0 0
301 2 0 2.99505e+09 2.99531e+09 2.99633e+09 2.99757e+09 1 1
302 1 1 3.00042e+09 3.00069e+09 3.00171e+09 3.0018e+09 0 1
303 1 1 3.00443e+09 3.00469e+09 3.00571e+09 3.00595e+09 0 1
304 2 1 3.00883e+09 3.00909e+09 3.01011e+09 3.0115e+09 0 0
305 2 0 3.02265e+09 3.0229e+09 3.02392e+09 3.02461e+09 1 1
306 1 1 3.03387e+09 3.03412e+09 3.03514e+09 3.03545e+09 0 1
307 2 1 3.03834e+09 3.03859e+09 3.03961e+09 3.03972e+09 0 0
308 2 0 3.04862e+09 3.04886e+09 3.04988e+09 3.05084e+09 1 1
309 1 0 3.05596e+09 3.05621e+09 3.05723e+09 3.05984e+09 0 0
310 1 1 3.06747e+09 3.06772e+09 3.06874e+09 3.07171e+09 1 1
311 1 1 3.07438e+09 3.07465e+09 3.07567e+09 3.07574e+09 0 1
312 1 1 3.07841e+09 3.07866e+09 3.07968e+09 3.07972e+09 0 1
313 2 1 3.0823e+09 3.08255e+09 3.08357e+09 3.08586e+09 0 0
314 2 0 3.09484e+09 3.09511e+09 3.09612e+09 3.09991e+09 1 1
315 1 1 3.10263e+09 3.1029e+09 3.10392e+09 3.10395e+09 0 1
316 2 0 3.10675e+09 3.107e+09 3.10802e+09 3.1081e+09 0 1
317 2 0 3.11098e+09 3.11124e+09 3.11226e+09 3.11509e+09 0 1
318 1 1 3.11924e+09 3.11949e+09 3.12051e+09 3.12052e+09 0 1
319 1 0 3.12536e+09 3.12563e+09 3.12665e+09 3.13488e+09 0 0
320 1 1 3.14203e+09 3.14228e+09 3.1433e+09 3.14356e+09 1 1
321 1 1 3.14639e+09 3.14664e+09 3.14766e+09 3.14766e+09 0 1
322 2 1 3.15042e+09 3.15068e+09 3.1517e+09 3.15171e+09 0 0
323 2 0 3.15888e+09 3.15913e+09 3.16015e+09 3.16066e+09 1 1
324 1 1 3.16327e+09 3.16351e+09 3.16453e+09 3.1646e+09 0 1
325 1 1 3.16734e+09 3.1676e+09 3.16862e+09 3.16863e+09 0 1
326 1 1 3.17139e+09 3.17164e+09 3.17266e+09 3.17276e+09 0 1
327 1 1 3.17575e+09 3.17602e+09 3.17703e+09 3.17711e+09 0 1
328 1 1 3.17982e+09 3.18008e+09 3.1811e+09 3.18111e+09 0 1
329 1 1 3.18365e+09 3.18391e+09 3.18493e+09 3.18494e+09 0 1
330 2 1 3.19119e+09 3.19144e+09 3.19246e+09 3.20035e+09 0 0
331 2 1 3.20748e+09 3.20773e+09 3.20875e+09 3.20882e+09 1 0
332 2 0 3.21623e+09 3.21649e+09 3.21751e+09 3.21776e+09 1 1
333 2 1 3.22178e+09 3.22204e+09 3.22306e+09 3.23451e+09 0 0
334 2 0 3.24186e+09 3.24212e+09 3.24313e+09 3.24826e+09 1 1
335 2 1 3.25116e+09 3.25142e+09 3.25244e+09 3.25246e+09 0 0
336 2 0 3.26292e+09 3.26316e+09 3.26418e+09 3.27703e+09 1 1
337 1 0 3.27982e+09 3.28007e+09 3.28109e+09 3.28985e+09 0 0
338 1 1 3.29734e+09 3.2976e+09 3.29862e+09 3.29986e+09 1 1
339 2 0 3.3028e+09 3.30305e+09 3.30407e+09 3.30898e+09 0 1
340 2 0 3.31237e+09 3.31263e+09 3.31365e+09 3.32244e+09 0 1
341 1 1 3.32545e+09 3.3257e+09 3.32672e+09 3.32706e+09 0 1
342 1 1 3.32982e+09 3.33006e+09 3.33108e+09 3.33129e+09 0 1
343 1 1 3.33691e+09 3.33718e+09 3.33819e+09 3.33823e+09 0 1
344 2 1 3.3408e+09 3.34105e+09 3.34207e+09 3.34214e+09 0 0
345 2 0 3.34929e+09 3.34955e+09 3.35057e+09 3.3521e+09 1 1
346 1 1 3.35485e+09 3.3551e+09 3.35612e+09 3.35662e+09 0 1
347 2 1 3.35913e+09 3.35939e+09 3.36041e+09 3.36136e+09 0 0
348 2 0 3.36982e+09 3.37007e+09 3.37109e+09 3.41883e+09 1 1
349 1 0 3.4214e+09 3.42165e+09 3.42267e+09 3.44113e+09 0 0
350 1 0 3.44853e+09 3.44878e+09 3.4498e+09 3.54775e+09 1 0
351 1 0 3.55644e+09 3.55669e+09 3.55771e+09 3.56413e+09 1 0
352 1 0 3.57129e+09 3.57153e+09 3.57255e+09 3.66377e+09 1 0
353 1 0 3.67096e+09 3.67122e+09 3.67224e+09 3.67737e+09 0 0
354 1 0 3.68482e+09 3.68507e+09 3.68609e+09 3.69675e+09 0 0
355 1 1 3.7042e+09 3.70445e+09 3.70547e+09 3.71043e+09 0 1
356 2 1 3.71445e+09 3.7147e+09 3.71572e+09 3.71678e+09 0 0
357 2 1 3.72965e+09 3.72991e+09 3.73093e+09 3.74124e+09 1 0
358 2 1 3.74891e+09 3.74915e+09 3.75017e+09 3.76263e+09 1 0
359 2 1 3.76989e+09 3.77014e+09 3.77116e+09 3.77576e+09 1 0
360 2 0 3.78287e+09 3.78313e+09 3.78415e+09 3.81771e+09 0 1
361 1 0 3.82028e+09 3.82052e+09 3.82154e+09 3.82496e+09 0 0
362 1 0 3.8321e+09 3.83235e+09 3.83337e+09 3.86183e+09 1 0
363 1 0 3.87263e+09 3.87288e+09 3.8739e+09 3.90783e+09 1 0
364 1 1 3.91501e+09 3.91527e+09 3.91629e+09 3.97303e+09 1 1
365 2 1 3.97778e+09 3.97803e+09 3.97905e+09 3.99236e+09 0 0
366 2 1 3.99986e+09 4.0001e+09 4.00112e+09 4.05188e+09 1 0
367 2 1 4.05915e+09 4.0594e+09 4.06042e+09 4.15291e+09 1 0
