trial trialType response stillTime stimOnset stimOffset respTime correctionTrial correct
001 1 1 7.07176e+06 7.37687e+06 8.396e+06 9.69718e+06 0 1
002 2 0 1.4251e+07 1.45111e+07 1.55303e+07 1.58278e+07 0 1
003 1 0 2.18194e+07 2.20996e+07 2.31188e+07 2.49155e+07 0 0
004 1 0 3.21034e+07 3.23615e+07 3.33806e+07 3.47173e+07 1 0
005 1 0 4.21827e+07 4.2446e+07 4.34651e+07 4.5541e+07 1 0
006 1 0 5.49816e+07 5.52386e+07 5.62577e+07 5.72608e+07 1 0
007 1 0 6.44127e+07 6.46589e+07 6.5678e+07 6.88443e+07 0 0
008 2 0 7.63136e+07 7.6578e+07 7.75971e+07 7.93832e+07 0 1
009 1 1 8.3072e+07 8.33249e+07 8.4344e+07 8.44593e+07 0 1
010 1 1 9.15968e+07 9.18499e+07 9.2869e+07 9.30699e+07 0 1
011 1 1 9.86747e+07 9.89384e+07 9.99576e+07 1.0243e+08 0 1
012 1 0 1.09104e+08 1.09359e+08 1.10378e+08 1.11999e+08 0 0
013 1 1 1.20696e+08 1.20942e+08 1.21961e+08 1.22093e+08 1 1
014 2 0 1.24679e+08 1.24936e+08 1.25955e+08 1.26153e+08 0 1
015 1 1 1.38811e+08 1.39075e+08 1.40094e+08 1.40158e+08 0 1
016 1 0 1.47498e+08 1.4775e+08 1.48769e+08 1.51312e+08 0 0
017 1 1 1.63056e+08 1.63305e+08 1.64324e+08 1.64336e+08 1 1
018 2 1 1.67396e+08 1.67644e+08 1.68663e+08 1.68736e+08 0 0
019 2 0 1.79276e+08 1.79533e+08 1.80552e+08 1.82747e+08 1 1
020 1 0 1.90244e+08 1.90499e+08 1.91518e+08 1.91606e+08 0 0
021 1 1 2.00376e+08 2.0063e+08 2.01649e+08 2.03432e+08 1 1
022 1 0 2.09888e+08 2.10144e+08 2.11163e+08 2.11187e+08 0 0
023 1 1 2.1842e+08 2.18685e+08 2.19704e+08 2.20781e+08 1 1
024 2 1 2.23497e+08 2.23765e+08 2.24784e+08 2.25078e+08 0 0
025 2 0 2.33243e+08 2.33497e+08 2.34516e+08 2.36105e+08 1 1
026 2 1 2.39085e+08 2.39339e+08 2.40359e+08 2.44482e+08 0 0
027 2 1 2.52654e+08 2.52914e+08 2.53933e+08 2.54329e+08 1 0
028 2 0 2.63087e+08 2.63337e+08 2.64356e+08 2.65927e+08 1 1
029 2 1 2.68795e+08 2.69052e+08 2.70071e+08 2.70484e+08 0 0
030 2 1 2.82283e+08 2.82543e+08 2.83562e+08 2.85089e+08 1 0
031 2 0 2.95652e+08 2.95911e+08 2.96931e+08 2.97028e+08 1 1
032 2 0 3.0041e+08 3.00672e+08 3.01692e+08 3.02105e+08 0 1
033 2 0 3.04635e+08 3.04889e+08 3.05909e+08 3.06068e+08 0 1
034 1 1 3.15936e+08 3.16185e+08 3.17204e+08 3.1724e+08 0 1
035 1 1 3.22859e+08 3.2311e+08 3.24129e+08 3.2424e+08 0 1
036 1 1 3.29376e+08 3.29624e+08 3.30644e+08 3.30652e+08 0 1
037 2 1 3.39299e+08 3.39544e+08 3.40563e+08 3.40687e+08 0 0
038 2 0 3.5047e+08 3.50723e+08 3.51742e+08 3.53573e+08 1 1
039 1 0 3.56237e+08 3.56501e+08 3.5752e+08 3.57729e+08 0 0
040 1 1 3.67015e+08 3.67279e+08 3.68298e+08 3.68396e+08 1 1
041 1 1 3.76712e+08 3.7697e+08 3.77989e+08 3.79562e+08 0 1
042 2 0 3.84376e+08 3.84626e+08 3.85645e+08 3.86739e+08 0 1
043 2 1 3.93807e+08 3.94071e+08 3.9509e+08 3.95278e+08 0 0
044 2 0 4.05154e+08 4.05409e+08 4.06428e+08 4.08109e+08 1 1
045 2 0 4.11179e+08 4.11434e+08 4.12453e+08 4.12541e+08 0 1
046 2 1 4.20819e+08 4.2107e+08 4.22089e+08 4.22183e+08 0 0
047 2 0 4.37611e+08 4.37868e+08 4.38887e+08 4.41068e+08 1 1
048 1 0 4.48192e+08 4.48437e+08 4.49456e+08 4.49497e+08 0 0
049 1 1 4.58739e+08 4.58992e+08 4.60012e+08 4.60038e+08 1 1
050 2 0 4.62971e+08 4.63224e+08 4.64243e+08 4.64444e+08 0 1
051 2 0 4.67476e+08 4.6773e+08 4.68749e+08 4.6882e+08 0 1
052 1 0 4.71537e+08 4.71798e+08 4.72817e+08 4.76751e+08 0 0
053 1 0 4.84435e+08 4.84699e+08 4.85718e+08 4.87998e+08 1 0
054 1 1 4.98349e+08 4.98605e+08 4.99624e+08 4.99664e+08 1 1
055 2 1 5.0691e+08 5.07184e+08 5.08203e+08 5.0822e+08 0 0
056 2 0 5.18488e+08 5.18752e+08 5.19771e+08 5.20885e+08 1 1
057 2 1 5.3098e+08 5.31236e+08 5.32255e+08 5.33152e+08 0 0
058 2 0 5.40378e+08 5.40634e+08 5.41653e+08 5.41859e+08 1 1
059 1 1 5.44589e+08 5.44843e+08 5.45863e+08 5.45873e+08 0 1
060 1 1 5.58428e+08 5.58682e+08 5.59701e+08 5.60611e+08 0 1
061 1 0 5.63399e+08 5.63646e+08 5.64666e+08 5.649e+08 0 0
062 1 1 5.72102e+08 5.72355e+08 5.73374e+08 5.73514e+08 1 1
063 2 1 5.76135e+08 5.76389e+08 5.77408e+08 5.77429e+08 0 0
064 2 0 5.85758e+08 5.86014e+08 5.87033e+08 5.89466e+08 1 1
065 2 1 5.94924e+08 5.95173e+08 5.96192e+08 5.96924e+08 0 0
066 2 0 6.06147e+08 6.06398e+08 6.07417e+08 6.08102e+08 1 1
067 2 0 6.20615e+08 6.20866e+08 6.21885e+08 6.24742e+08 0 1
068 1 1 6.27742e+08 6.27993e+08 6.29012e+08 6.29158e+08 0 1
069 2 0 6.31865e+08 6.32116e+08 6.33135e+08 6.33139e+08 0 1
070 1 1 6.3606e+08 6.36314e+08 6.37333e+08 6.38166e+08 0 1
071 2 0 6.41035e+08 6.4129e+08 6.4231e+08 6.42591e+08 0 1
072 1 0 6.47713e+08 6.4796e+08 6.48979e+08 6.51247e+08 0 0
073 1 1 6.60486e+08 6.60728e+08 6.61747e+08 6.61827e+08 1 1
074 1 1 6.64399e+08 6.64655e+08 6.65674e+08 6.6603e+08 0 1
075 1 1 6.6898e+08 6.69239e+08 6.70258e+08 6.71742e+08 0 1
076 1 1 6.74647e+08 6.74915e+08 6.75934e+08 6.78789e+08 0 1
077 2 1 6.81332e+08 6.81591e+08 6.8261e+08 6.89498e+08 0 0
078 2 0 6.97574e+08 6.97837e+08 6.98856e+08 6.99263e+08 1 1
079 1 0 7.02247e+08 7.02507e+08 7.03526e+08 7.07301e+08 0 0
080 1 1 7.14498e+08 7.14763e+08 7.15782e+08 7.15931e+08 1 1
081 2 0 7.18622e+08 7.18868e+08 7.19887e+08 7.22729e+08 0 1
082 2 0 7.25323e+08 7.25579e+08 7.26598e+08 7.29286e+08 0 1
083 1 1 7.33634e+08 7.33895e+08 7.34914e+08 7.37385e+08 0 1
084 2 0 7.3987e+08 7.40124e+08 7.41143e+08 7.45447e+08 0 1
085 1 0 7.48022e+08 7.48283e+08 7.49302e+08 7.49317e+08 0 0
086 1 0 7.56546e+08 7.56795e+08 7.57814e+08 7.60509e+08 1 0
087 1 1 7.69748e+08 7.69995e+08 7.71014e+08 7.71683e+08 1 1
088 2 0 7.74568e+08 7.74823e+08 7.75843e+08 7.78804e+08 0 1
089 2 0 7.88696e+08 7.88943e+08 7.89962e+08 7.90592e+08 0 1
090 2 0 7.94854e+08 7.95118e+08 7.96137e+08 7.96508e+08 0 1
091 1 1 8.02537e+08 8.02798e+08 8.03817e+08 8.07479e+08 0 1
092 2 0 8.10086e+08 8.10341e+08 8.1136e+08 8.11438e+08 0 1
093 1 1 8.13925e+08 8.14178e+08 8.15197e+08 8.15325e+08 0 1
094 1 1 8.20082e+08 8.20332e+08 8.21351e+08 8.24322e+08 0 1
095 1 1 8.27063e+08 8.27325e+08 8.28344e+08 8.3025e+08 0 1
096 2 0 8.32801e+08 8.33056e+08 8.34075e+08 8.35339e+08 0 1
097 2 0 8.38047e+08 8.38305e+08 8.39324e+08 8.40138e+08 0 1
098 1 0 8.48868e+08 8.49134e+08 8.50154e+08 8.53601e+08 0 0
099 1 0 8.6337e+08 8.63629e+08 8.64649e+08 8.67603e+08 1 0
100 1 1 8.76001e+08 8.76259e+08 8.77278e+08 8.78358e+08 1 1
101 2 0 8.82417e+08 8.82661e+08 8.8368e+08 8.8388e+08 0 1
102 1 0 8.93041e+08 8.93288e+08 8.94307e+08 8.94592e+08 0 0
103 1 1 9.03399e+08 9.03663e+08 9.04682e+08 9.05672e+08 1 1
104 2 0 9.13024e+08 9.13285e+08 9.14304e+08 9.14772e+08 0 1
105 1 0 9.17511e+08 9.17763e+08 9.18783e+08 9.18927e+08 0 0
106 1 1 9.32404e+08 9.32663e+08 9.33682e+08 9.34666e+08 1 1
107 2 0 9.37345e+08 9.37609e+08 9.38628e+08 9.40291e+08 0 1
108 1 0 9.4318e+08 9.43435e+08 9.44454e+08 9.45318e+08 0 0
109 1 0 9.54561e+08 9.54819e+08 9.55838e+08 9.61196e+08 1 0
110 1 1 9.68668e+08 9.68921e+08 9.6994e+08 9.74037e+08 1 1
111 1 0 9.80198e+08 9.80445e+08 9.81464e+08 9.82424e+08 0 0
112 1 0 9.91147e+08 9.91399e+08 9.92418e+08 9.9246e+08 1 0
113 1 0 1.00088e+09 1.00113e+09 1.00215e+09 1.00312e+09 1 0
114 1 1 1.0114e+09 1.01166e+09 1.01268e+09 1.01319e+09 1 1
115 1 0 1.02033e+09 1.02058e+09 1.0216e+09 1.02508e+09 0 0
116 1 1 1.03242e+09 1.03267e+09 1.03369e+09 1.03557e+09 1 1
117 1 1 1.03941e+09 1.03965e+09 1.04067e+09 1.04078e+09 0 1
118 1 0 1.04367e+09 1.04392e+09 1.04494e+09 1.04751e+09 0 0
119 1 1 1.06027e+09 1.06052e+09 1.06154e+09 1.06495e+09 1 1
120 2 0 1.06789e+09 1.06814e+09 1.06916e+09 1.06946e+09 0 1
121 1 1 1.07342e+09 1.07366e+09 1.07468e+09 1.07523e+09 0 1
122 2 0 1.07787e+09 1.07813e+09 1.07915e+09 1.07938e+09 0 1
123 2 0 1.08197e+09 1.08223e+09 1.08325e+09 1.08564e+09 0 1
124 2 0 1.08816e+09 1.08841e+09 1.08943e+09 1.09173e+09 0 1
125 2 1 1.09461e+09 1.09487e+09 1.09589e+09 1.09617e+09 0 0
126 2 0 1.10368e+09 1.10393e+09 1.10495e+09 1.10515e+09 1 1
127 2 0 1.10775e+09 1.10801e+09 1.10903e+09 1.10991e+09 0 1
128 1 1 1.11243e+09 1.1127e+09 1.11372e+09 1.11742e+09 0 1
129 1 1 1.11992e+09 1.12017e+09 1.12119e+09 1.12351e+09 0 1
130 2 0 1.12964e+09 1.1299e+09 1.13092e+09 1.13128e+09 0 1
131 2 1 1.13924e+09 1.13951e+09 1.14053e+09 1.14093e+09 0 0
132 2 1 1.15029e+09 1.15054e+09 1.15156e+09 1.15158e+09 1 0
133 2 1 1.15887e+09 1.15913e+09 1.16015e+09 1.16116e+09 1 0
134 2 1 1.16853e+09 1.16879e+09 1.16981e+09 1.17073e+09 1 0
135 2 1 1.1781e+09 1.17835e+09 1.17937e+09 1.1798e+09 0 0
136 1 1 1.18895e+09 1.1892e+09 1.19022e+09 1.1921e+09 0 1
137 2 1 1.19479e+09 1.19504e+09 1.19606e+09 1.19908e+09 0 0
138 2 1 1.20854e+09 1.2088e+09 1.20982e+09 1.21365e+09 1 0
139 2 0 1.22104e+09 1.22129e+09 1.22231e+09 1.22284e+09 1 1
140 1 0 1.22572e+09 1.22598e+09 1.227e+09 1.2303e+09 0 0
141 1 1 1.23742e+09 1.23768e+09 1.2387e+09 1.24278e+09 1 1
142 1 0 1.24559e+09 1.24584e+09 1.24686e+09 1.24805e+09 0 0
143 1 1 1.25532e+09 1.25558e+09 1.2566e+09 1.2595e+09 1 1
144 2 0 1.26713e+09 1.2674e+09 1.26842e+09 1.27003e+09 0 1
145 2 0 1.27591e+09 1.27617e+09 1.27719e+09 1.27772e+09 0 1
146 1 0 1.28482e+09 1.28508e+09 1.2861e+09 1.28682e+09 0 0
147 1 0 1.29399e+09 1.29425e+09 1.29526e+09 1.29538e+09 1 0
148 1 1 1.3026e+09 1.30286e+09 1.30388e+09 1.30389e+09 1 1
149 1 1 1.30672e+09 1.30697e+09 1.30799e+09 1.31284e+09 0 1
150 2 0 1.31534e+09 1.31559e+09 1.31661e+09 1.31682e+09 0 1
151 2 1 1.32361e+09 1.32386e+09 1.32488e+09 1.32489e+09 0 0
152 2 0 1.33203e+09 1.33229e+09 1.33331e+09 1.33361e+09 1 1
153 1 1 1.3362e+09 1.33645e+09 1.33747e+09 1.34047e+09 0 1
154 2 1 1.34524e+09 1.34549e+09 1.34651e+09 1.35065e+09 0 0
155 2 1 1.36153e+09 1.36179e+09 1.36281e+09 1.36333e+09 1 0
156 2 0 1.37118e+09 1.37143e+09 1.37245e+09 1.37434e+09 1 1
157 1 1 1.38101e+09 1.38127e+09 1.38228e+09 1.38243e+09 0 1
158 1 1 1.38517e+09 1.38542e+09 1.38644e+09 1.39079e+09 0 1
159 1 1 1.39368e+09 1.39395e+09 1.39497e+09 1.3983e+09 0 1
160 2 0 1.40165e+09 1.4019e+09 1.40292e+09 1.40292e+09 0 1
161 1 1 1.40554e+09 1.40578e+09 1.4068e+09 1.40918e+09 0 1
162 2 0 1.41167e+09 1.41194e+09 1.41296e+09 1.41297e+09 0 1
163 2 1 1.41577e+09 1.41602e+09 1.41704e+09 1.41961e+09 0 0
164 2 0 1.43018e+09 1.43044e+09 1.43146e+09 1.43183e+09 1 1
165 1 0 1.43724e+09 1.4375e+09 1.43851e+09 1.44257e+09 0 0
166 1 1 1.4509e+09 1.45116e+09 1.45218e+09 1.45241e+09 1 1
167 2 1 1.45887e+09 1.45913e+09 1.46015e+09 1.46049e+09 0 0
168 2 0 1.46787e+09 1.46812e+09 1.46914e+09 1.47049e+09 1 1
169 2 0 1.47336e+09 1.47361e+09 1.47463e+09 1.47571e+09 0 1
170 1 1 1.47854e+09 1.4788e+09 1.47982e+09 1.47983e+09 0 1
171 1 1 1.48374e+09 1.484e+09 1.48502e+09 1.48816e+09 0 1
172 2 1 1.49546e+09 1.49572e+09 1.49674e+09 1.49804e+09 0 0
173 2 0 1.50598e+09 1.50625e+09 1.50727e+09 1.50895e+09 1 1
174 1 1 1.51177e+09 1.51201e+09 1.51303e+09 1.51321e+09 0 1
175 2 0 1.51632e+09 1.51658e+09 1.5176e+09 1.51927e+09 0 1
176 1 1 1.52184e+09 1.52211e+09 1.52312e+09 1.52389e+09 0 1
177 1 1 1.52643e+09 1.52669e+09 1.5277e+09 1.52783e+09 0 1
178 2 1 1.53049e+09 1.53074e+09 1.53176e+09 1.53205e+09 0 0
179 2 1 1.53921e+09 1.53947e+09 1.54048e+09 1.54049e+09 1 0
180 2 1 1.55053e+09 1.55079e+09 1.55181e+09 1.55221e+09 1 0
181 2 0 1.56255e+09 1.56281e+09 1.56383e+09 1.56599e+09 1 1
182 2 0 1.57098e+09 1.57123e+09 1.57225e+09 1.57525e+09 0 1
183 1 1 1.58774e+09 1.58801e+09 1.58902e+09 1.58913e+09 0 1
184 1 0 1.59166e+09 1.59193e+09 1.59295e+09 1.5977e+09 0 0
185 1 0 1.60498e+09 1.60523e+09 1.60625e+09 1.60785e+09 1 0
186 1 0 1.61756e+09 1.61783e+09 1.61885e+09 1.6189e+09 1 0
187 1 0 1.62693e+09 1.62717e+09 1.62819e+09 1.63208e+09 1 0
188 1 1 1.64414e+09 1.64439e+09 1.64541e+09 1.6455e+09 0 1
189 2 1 1.65298e+09 1.65323e+09 1.65425e+09 1.65432e+09 0 0
190 2 0 1.66309e+09 1.66334e+09 1.66436e+09 1.6654e+09 1 1
191 2 0 1.67299e+09 1.67325e+09 1.67427e+09 1.67527e+09 0 1
192 1 1 1.68067e+09 1.68093e+09 1.68195e+09 1.68195e+09 0 1
193 1 0 1.68469e+09 1.68494e+09 1.68596e+09 1.69106e+09 0 0
194 1 1 1.69995e+09 1.70021e+09 1.70123e+09 1.70388e+09 1 1
195 2 0 1.70651e+09 1.70675e+09 1.70777e+09 1.70954e+09 0 1
196 1 1 1.71395e+09 1.7142e+09 1.71522e+09 1.7153e+09 0 1
197 1 1 1.71785e+09 1.7181e+09 1.71912e+09 1.72089e+09 0 1
198 2 1 1.7234e+09 1.72365e+09 1.72467e+09 1.73198e+09 0 0
199 2 0 1.73919e+09 1.73945e+09 1.74047e+09 1.74194e+09 1 1
200 2 0 1.7446e+09 1.74486e+09 1.74588e+09 1.74903e+09 0 1
201 2 1 1.76668e+09 1.76693e+09 1.76795e+09 1.76947e+09 0 0
202 2 1 1.78049e+09 1.78075e+09 1.78177e+09 1.7818e+09 1 0
203 2 0 1.79009e+09 1.79034e+09 1.79136e+09 1.79816e+09 1 1
204 1 1 1.80422e+09 1.80448e+09 1.8055e+09 1.80552e+09 0 1
205 2 0 1.80901e+09 1.80926e+09 1.81028e+09 1.81189e+09 0 1
206 1 1 1.81471e+09 1.81497e+09 1.81599e+09 1.81922e+09 0 1
207 2 0 1.82223e+09 1.82247e+09 1.82349e+09 1.82728e+09 0 1
208 2 0 1.82981e+09 1.83007e+09 1.83109e+09 1.8311e+09 0 1
209 2 1 1.83736e+09 1.83761e+09 1.83863e+09 1.8387e+09 0 0
210 2 1 1.85025e+09 1.85049e+09 1.85151e+09 1.8516e+09 1 0
211 2 0 1.86018e+09 1.86042e+09 1.86144e+09 1.86294e+09 1 1
212 2 1 1.86547e+09 1.86573e+09 1.86675e+09 1.87053e+09 0 0
213 2 1 1.87865e+09 1.87891e+09 1.87993e+09 1.88239e+09 1 0
214 2 1 1.88963e+09 1.88989e+09 1.89091e+09 1.89252e+09 1 0
215 2 0 1.89972e+09 1.89998e+09 1.901e+09 1.90241e+09 1 1
216 1 0 1.90885e+09 1.9091e+09 1.91012e+09 1.91026e+09 0 0
217 1 1 1.9183e+09 1.91856e+09 1.91958e+09 1.91982e+09 1 1
218 2 1 1.92272e+09 1.92297e+09 1.92399e+09 1.92724e+09 0 0
219 2 1 1.93498e+09 1.93524e+09 1.93626e+09 1.93647e+09 1 0
220 2 0 1.94557e+09 1.94583e+09 1.94685e+09 1.94708e+09 1 1
221 2 1 1.95319e+09 1.95345e+09 1.95447e+09 1.95602e+09 0 0
222 2 0 1.96512e+09 1.96538e+09 1.96639e+09 1.96833e+09 1 1
223 1 1 1.97132e+09 1.97158e+09 1.9726e+09 1.97318e+09 0 1
224 1 1 1.97594e+09 1.97621e+09 1.97723e+09 1.97742e+09 0 1
225 2 1 1.98019e+09 1.98044e+09 1.98146e+09 1.98562e+09 0 0
226 2 0 1.99412e+09 1.99438e+09 1.9954e+09 1.99544e+09 1 1
227 2 0 1.99832e+09 1.99858e+09 1.9996e+09 1.99991e+09 0 1
228 2 0 2.00275e+09 2.003e+09 2.00402e+09 2.00452e+09 0 1
229 2 1 2.01098e+09 2.01123e+09 2.01225e+09 2.01293e+09 0 0
230 2 1 2.02266e+09 2.02292e+09 2.02394e+09 2.02727e+09 1 0
231 2 0 2.03467e+09 2.03493e+09 2.03595e+09 2.03848e+09 1 1
232 1 1 2.04105e+09 2.0413e+09 2.04232e+09 2.04247e+09 0 1
233 2 1 2.04508e+09 2.04534e+09 2.04636e+09 2.04651e+09 0 0
234 2 0 2.0556e+09 2.05585e+09 2.05687e+09 2.05868e+09 1 1
235 2 1 2.06518e+09 2.06544e+09 2.06646e+09 2.06693e+09 0 0
236 2 1 2.07457e+09 2.07481e+09 2.07583e+09 2.07604e+09 1 0
237 2 0 2.08731e+09 2.08756e+09 2.08858e+09 2.09112e+09 1 1
238 1 0 2.09769e+09 2.09795e+09 2.09897e+09 2.09897e+09 0 0
239 1 1 2.10751e+09 2.10776e+09 2.10878e+09 2.10906e+09 1 1
240 1 0 2.11183e+09 2.11208e+09 2.1131e+09 2.11311e+09 0 0
241 1 1 2.1224e+09 2.12265e+09 2.12367e+09 2.12612e+09 1 1
242 2 0 2.13496e+09 2.13521e+09 2.13623e+09 2.1364e+09 0 1
243 2 1 2.14225e+09 2.1425e+09 2.14352e+09 2.14407e+09 0 0
244 2 0 2.15112e+09 2.15138e+09 2.1524e+09 2.15885e+09 1 1
245 1 0 2.16459e+09 2.16483e+09 2.16585e+09 2.17177e+09 0 0
246 1 1 2.17879e+09 2.17904e+09 2.18006e+09 2.1803e+09 1 1
247 1 1 2.18299e+09 2.18324e+09 2.18426e+09 2.18434e+09 0 1
248 2 1 2.1899e+09 2.19015e+09 2.19117e+09 2.19117e+09 0 0
249 2 0 2.20491e+09 2.20517e+09 2.20619e+09 2.20622e+09 1 1
250 1 1 2.21095e+09 2.2112e+09 2.21222e+09 2.21426e+09 0 1
251 1 1 2.22689e+09 2.22714e+09 2.22816e+09 2.22822e+09 0 1
252 2 0 2.23435e+09 2.23461e+09 2.23563e+09 2.23575e+09 0 1
253 1 1 2.24123e+09 2.24149e+09 2.24251e+09 2.24253e+09 0 1
254 1 1 2.24556e+09 2.24582e+09 2.24683e+09 2.24927e+09 0 1
255 2 1 2.25278e+09 2.25304e+09 2.25406e+09 2.25441e+09 0 0
256 2 1 2.2624e+09 2.26267e+09 2.26369e+09 2.26607e+09 1 0
257 2 0 2.2733e+09 2.27355e+09 2.27456e+09 2.27458e+09 1 1
258 2 0 2.27777e+09 2.27803e+09 2.27904e+09 2.28057e+09 0 1
259 1 0 2.28311e+09 2.28337e+09 2.28439e+09 2.28447e+09 0 0
260 1 1 2.29262e+09 2.29287e+09 2.29389e+09 2.29391e+09 1 1
261 1 1 2.29683e+09 2.29708e+09 2.2981e+09 2.305e+09 0 1
262 1 1 2.30952e+09 2.30978e+09 2.3108e+09 2.31087e+09 0 1
263 2 0 2.31338e+09 2.31363e+09 2.31465e+09 2.3147e+09 0 1
264 1 0 2.31978e+09 2.32003e+09 2.32105e+09 2.32299e+09 0 0
265 1 0 2.33137e+09 2.33162e+09 2.33264e+09 2.33479e+09 1 0
266 1 1 2.34246e+09 2.3427e+09 2.34372e+09 2.34378e+09 1 1
267 2 1 2.34634e+09 2.34658e+09 2.3476e+09 2.35006e+09 0 0
268 2 0 2.35812e+09 2.35837e+09 2.35939e+09 2.35945e+09 1 1
269 2 1 2.36221e+09 2.36245e+09 2.36347e+09 2.36366e+09 0 0
270 2 0 2.37221e+09 2.37246e+09 2.37348e+09 2.37453e+09 1 1
271 2 0 2.38837e+09 2.38862e+09 2.38964e+09 2.39137e+09 0 1
272 2 0 2.3939e+09 2.39414e+09 2.39516e+09 2.39526e+09 0 1
273 1 0 2.40516e+09 2.40542e+09 2.40644e+09 2.4075e+09 0 0
274 1 0 2.41626e+09 2.41652e+09 2.41754e+09 2.41758e+09 1 0
275 1 0 2.42541e+09 2.42566e+09 2.42668e+09 2.43069e+09 1 0
276 1 1 2.43801e+09 2.43827e+09 2.43928e+09 2.43949e+09 1 1
277 1 0 2.44215e+09 2.44241e+09 2.44342e+09 2.44403e+09 0 0
278 1 1 2.45444e+09 2.4547e+09 2.45572e+09 2.45575e+09 1 1
279 2 0 2.46205e+09 2.46229e+09 2.46331e+09 2.46365e+09 0 1
280 1 1 2.47008e+09 2.47034e+09 2.47136e+09 2.47159e+09 0 1
281 2 0 2.47918e+09 2.47942e+09 2.48044e+09 2.48064e+09 0 1
282 1 0 2.48481e+09 2.48506e+09 2.48608e+09 2.48609e+09 0 0
283 1 1 2.49633e+09 2.49659e+09 2.49761e+09 2.49782e+09 1 1
284 2 1 2.50072e+09 2.50097e+09 2.50199e+09 2.50446e+09 0 0
285 2 0 2.51493e+09 2.51517e+09 2.51619e+09 2.51932e+09 1 1
286 1 0 2.5222e+09 2.52246e+09 2.52348e+09 2.5236e+09 0 0
287 1 1 2.53202e+09 2.53226e+09 2.53328e+09 2.53334e+09 1 1
288 2 0 2.5359e+09 2.53614e+09 2.53716e+09 2.53899e+09 0 1
289 1 1 2.54188e+09 2.54213e+09 2.54315e+09 2.54324e+09 0 1
290 1 1 2.54595e+09 2.5462e+09 2.54722e+09 2.55127e+09 0 1
291 1 1 2.55398e+09 2.55423e+09 2.55525e+09 2.55527e+09 0 1
292 1 1 2.55792e+09 2.55818e+09 2.5592e+09 2.55934e+09 0 1
293 2 1 2.56263e+09 2.56288e+09 2.5639e+09 2.56423e+09 0 0
294 2 0 2.57175e+09 2.57201e+09 2.57303e+09 2.5731e+09 1 1
295 1 1 2.58467e+09 2.58492e+09 2.58594e+09 2.59015e+09 0 1
296 1 1 2.59497e+09 2.59522e+09 2.59624e+09 2.59662e+09 0 1
297 2 1 2.601e+09 2.60126e+09 2.60228e+09 2.60255e+09 0 0
298 2 1 2.61278e+09 2.61304e+09 2.61406e+09 2.61409e+09 1 0
299 2 0 2.62224e+09 2.62249e+09 2.62351e+09 2.62368e+09 1 1
300 1 1 2.62636e+09 2.62662e+09 2.62764e+09 2.62767e+09 0 1
301 1 0 2.63024e+09 2.63049e+09 2.63151e+09 2.63405e+09 0 0
302 1 1 2.6413e+09 2.64155e+09 2.64257e+09 2.64267e+09 1 1
303 1 1 2.6453e+09 2.64556e+09 2.64658e+09 2.64659e+09 0 1
304 2 0 2.6517e+09 2.65195e+09 2.65297e+09 2.65328e+09 0 1
305 2 0 2.67772e+09 2.67797e+09 2.67898e+09 2.679e+09 0 1
306 2 0 2.68989e+09 2.69015e+09 2.69117e+09 2.69286e+09 0 1
307 2 0 2.70615e+09 2.70639e+09 2.70741e+09 2.70859e+09 0 1
308 1 1 2.7176e+09 2.71786e+09 2.71888e+09 2.71895e+09 0 1
309 2 0 2.72149e+09 2.72174e+09 2.72276e+09 2.72716e+09 0 1
310 1 1 2.73007e+09 2.73033e+09 2.73135e+09 2.73165e+09 0 1
311 1 1 2.73897e+09 2.73922e+09 2.74024e+09 2.74033e+09 0 1
312 1 0 2.74568e+09 2.74592e+09 2.74694e+09 2.74915e+09 0 0
313 1 1 2.75624e+09 2.75649e+09 2.75751e+09 2.75753e+09 1 1
314 2 0 2.76014e+09 2.7604e+09 2.76142e+09 2.76168e+09 0 1
315 2 0 2.76439e+09 2.76465e+09 2.76566e+09 2.77011e+09 0 1
316 1 0 2.77936e+09 2.7796e+09 2.78062e+09 2.7822e+09 0 0
317 1 1 2.79004e+09 2.79028e+09 2.7913e+09 2.79572e+09 1 1
318 1 0 2.80078e+09 2.80103e+09 2.80205e+09 2.80396e+09 0 0
319 1 1 2.81138e+09 2.81162e+09 2.81264e+09 2.81331e+09 1 1
320 2 0 2.81593e+09 2.81618e+09 2.8172e+09 2.81729e+09 0 1
321 2 0 2.82214e+09 2.82239e+09 2.82341e+09 2.82342e+09 0 1
322 1 1 2.82746e+09 2.82772e+09 2.82874e+09 2.8288e+09 0 1
323 2 1 2.83853e+09 2.83878e+09 2.8398e+09 2.84025e+09 0 0
324 2 0 2.84759e+09 2.84784e+09 2.84886e+09 2.84904e+09 1 1
325 1 1 2.85178e+09 2.85202e+09 2.85304e+09 2.85308e+09 0 1
326 1 0 2.8608e+09 2.86104e+09 2.86206e+09 2.86438e+09 0 0
327 1 1 2.87424e+09 2.8745e+09 2.87552e+09 2.87588e+09 1 1
328 2 1 2.88314e+09 2.88339e+09 2.88441e+09 2.8863e+09 0 0
329 2 0 2.89769e+09 2.89794e+09 2.89896e+09 2.89917e+09 1 1
330 2 1 2.90179e+09 2.90204e+09 2.90306e+09 2.90339e+09 0 0
331 2 1 2.91122e+09 2.91147e+09 2.91249e+09 2.91379e+09 1 0
332 2 1 2.9212e+09 2.92145e+09 2.92247e+09 2.92455e+09 1 0
333 2 0 2.93221e+09 2.93245e+09 2.93347e+09 2.93667e+09 1 1
334 1 0 2.9395e+09 2.93975e+09 2.94076e+09 2.94288e+09 0 0
335 1 1 2.95162e+09 2.95186e+09 2.95288e+09 2.95291e+09 1 1
336 2 1 2.96529e+09 2.96555e+09 2.96657e+09 2.96657e+09 0 0
337 2 0 2.97599e+09 2.97625e+09 2.97726e+09 2.97735e+09 1 1
338 1 1 2.98032e+09 2.98057e+09 2.98159e+09 2.98165e+09 0 1
339 1 1 2.9897e+09 2.98995e+09 2.99097e+09 2.99114e+09 0 1
340 1 1 2.99411e+09 2.99436e+09 2.99538e+09 2.99544e+09 0 1
341 1 1 3.00355e+09 3.00382e+09 3.00483e+09 3.00487e+09 0 1
342 1 1 3.01795e+09 3.0182e+09 3.01922e+09 3.01927e+09 0 1
343 1 1 3.03694e+09 3.03719e+09 3.03821e+09 3.03824e+09 0 1
344 1 1 3.04714e+09 3.04738e+09 3.0484e+09 3.04843e+09 0 1
345 2 0 3.05119e+09 3.05144e+09 3.05246e+09 3.05285e+09 0 1
346 2 0 3.06313e+09 3.06338e+09 3.06439e+09 3.06732e+09 0 1
347 2 1 3.08205e+09 3.0823e+09 3.08332e+09 3.08564e+09 0 0
348 2 0 3.09692e+09 3.09717e+09 3.09819e+09 3.10034e+09 1 1
349 1 1 3.10626e+09 3.10651e+09 3.10753e+09 3.10755e+09 0 1
350 2 1 3.11442e+09 3.11467e+09 3.11569e+09 3.11615e+09 0 0
351 2 1 3.13043e+09 3.13068e+09 3.1317e+09 3.13178e+09 1 0
352 2 0 3.14429e+09 3.14453e+09 3.14555e+09 3.14809e+09 1 1
353 2 0 3.15118e+09 3.15143e+09 3.15245e+09 3.15301e+09 0 1
354 2 1 3.16058e+09 3.16083e+09 3.16185e+09 3.16278e+09 0 0
355 2 1 3.17345e+09 3.17369e+09 3.17471e+09 3.17472e+09 1 0
356 2 1 3.18372e+09 3.18399e+09 3.18501e+09 3.18663e+09 1 0
357 2 1 3.19403e+09 3.19428e+09 3.1953e+09 3.19532e+09 1 0
358 1 1 3.20379e+09 3.20405e+09 3.20507e+09 3.20561e+09 0 1
359 2 0 3.20836e+09 3.20861e+09 3.20963e+09 3.21034e+09 0 1
360 2 1 3.21761e+09 3.21787e+09 3.21889e+09 3.21912e+09 0 0
361 2 0 3.22923e+09 3.22948e+09 3.2305e+09 3.23257e+09 1 1
362 1 1 3.23888e+09 3.23913e+09 3.24015e+09 3.24017e+09 0 1
363 2 1 3.25011e+09 3.25036e+09 3.25138e+09 3.25326e+09 0 0
364 2 1 3.26153e+09 3.26179e+09 3.2628e+09 3.26291e+09 1 0
365 2 1 3.27129e+09 3.27153e+09 3.27255e+09 3.27258e+09 1 0
366 2 0 3.28007e+09 3.28033e+09 3.28135e+09 3.28148e+09 1 1
367 2 1 3.28426e+09 3.28451e+09 3.28553e+09 3.28577e+09 0 0
368 2 0 3.29383e+09 3.29409e+09 3.29511e+09 3.29527e+09 1 1
369 1 1 3.2982e+09 3.29846e+09 3.29948e+09 3.2995e+09 0 1
370 1 1 3.30583e+09 3.30609e+09 3.30711e+09 3.30715e+09 0 1
371 1 0 3.31014e+09 3.3104e+09 3.31142e+09 3.31144e+09 0 0
372 1 0 3.31857e+09 3.31882e+09 3.31984e+09 3.32225e+09 1 0
373 1 1 3.32953e+09 3.3298e+09 3.33082e+09 3.33121e+09 1 1
374 2 0 3.34193e+09 3.34219e+09 3.34321e+09 3.34596e+09 0 1
375 1 0 3.34864e+09 3.34888e+09 3.3499e+09 3.35004e+09 0 0
376 1 1 3.35942e+09 3.35968e+09 3.3607e+09 3.36139e+09 1 1
377 1 1 3.36724e+09 3.36749e+09 3.36851e+09 3.36855e+09 0 1
378 1 1 3.37418e+09 3.37444e+09 3.37546e+09 3.37568e+09 0 1
379 1 1 3.37959e+09 3.37984e+09 3.38086e+09 3.38087e+09 0 1
380 1 0 3.38352e+09 3.38377e+09 3.38479e+09 3.38666e+09 0 0
381 1 1 3.39592e+09 3.39617e+09 3.39719e+09 3.39722e+09 1 1
382 1 1 3.3999e+09 3.40015e+09 3.40117e+09 3.40119e+09 0 1
383 2 0 3.40478e+09 3.40504e+09 3.40606e+09 3.40608e+09 0 1
384 2 1 3.41313e+09 3.41339e+09 3.4144e+09 3.41446e+09 0 0
385 2 1 3.42209e+09 3.42234e+09 3.42336e+09 3.4235e+09 1 0
386 2 0 3.43543e+09 3.43568e+09 3.4367e+09 3.43942e+09 1 1
387 1 1 3.44243e+09 3.44268e+09 3.4437e+09 3.44371e+09 0 1
388 2 0 3.45322e+09 3.45347e+09 3.45449e+09 3.46511e+09 0 1
389 2 0 3.47285e+09 3.4731e+09 3.47412e+09 3.47578e+09 0 1
390 1 1 3.47835e+09 3.47861e+09 3.47963e+09 3.47966e+09 0 1
391 1 1 3.48524e+09 3.48549e+09 3.48651e+09 3.48653e+09 0 1
392 1 1 3.48932e+09 3.48958e+09 3.4906e+09 3.49068e+09 0 1
393 1 1 3.4932e+09 3.49346e+09 3.49448e+09 3.49458e+09 0 1
394 2 1 3.50125e+09 3.50151e+09 3.50253e+09 3.50307e+09 0 0
395 2 1 3.5169e+09 3.51716e+09 3.51818e+09 3.51885e+09 1 0
396 2 0 3.52747e+09 3.52773e+09 3.52875e+09 3.52994e+09 1 1
397 1 0 3.53276e+09 3.53302e+09 3.53404e+09 3.53632e+09 0 0
398 1 1 3.54885e+09 3.54911e+09 3.55013e+09 3.55387e+09 1 1
399 2 0 3.55672e+09 3.55698e+09 3.558e+09 3.55802e+09 0 1
400 2 0 3.56062e+09 3.56087e+09 3.56189e+09 3.56339e+09 0 1
401 2 1 3.56843e+09 3.5687e+09 3.56972e+09 3.5698e+09 0 0
402 2 0 3.58191e+09 3.58215e+09 3.58317e+09 3.58426e+09 1 1
403 1 1 3.58935e+09 3.58961e+09 3.59062e+09 3.59063e+09 0 1
404 2 0 3.59948e+09 3.59974e+09 3.60076e+09 3.60079e+09 0 1
405 2 0 3.61372e+09 3.61398e+09 3.615e+09 3.61598e+09 0 1
406 1 0 3.61888e+09 3.61913e+09 3.62015e+09 3.62022e+09 0 0
407 1 0 3.63847e+09 3.63872e+09 3.63974e+09 3.6424e+09 1 0
408 1 0 3.65003e+09 3.65028e+09 3.6513e+09 3.65303e+09 1 0
409 1 1 3.66166e+09 3.66191e+09 3.66293e+09 3.663e+09 1 1
410 2 0 3.66732e+09 3.66758e+09 3.6686e+09 3.67015e+09 0 1
411 2 0 3.67284e+09 3.67309e+09 3.6741e+09 3.67674e+09 0 1
412 2 0 3.68328e+09 3.68353e+09 3.68455e+09 3.68478e+09 0 1
413 2 0 3.68844e+09 3.6887e+09 3.68972e+09 3.69263e+09 0 1
414 2 0 3.69758e+09 3.69783e+09 3.69885e+09 3.70245e+09 0 1
415 2 1 3.71331e+09 3.71356e+09 3.71458e+09 3.71735e+09 0 0
416 2 0 3.72755e+09 3.7278e+09 3.72882e+09 3.73117e+09 1 1
417 2 0 3.73395e+09 3.73421e+09 3.73523e+09 3.73581e+09 0 1
418 1 1 3.74079e+09 3.74104e+09 3.74206e+09 3.7422e+09 0 1
419 2 0 3.74735e+09 3.74761e+09 3.74863e+09 3.75152e+09 0 1
420 1 1 3.75683e+09 3.75707e+09 3.75809e+09 3.75812e+09 0 1
421 2 0 3.76329e+09 3.76354e+09 3.76456e+09 3.76475e+09 0 1
422 1 1 3.77492e+09 3.77517e+09 3.77618e+09 3.7762e+09 0 1
423 1 1 3.78041e+09 3.78066e+09 3.78168e+09 3.7817e+09 0 1
424 2 0 3.79275e+09 3.793e+09 3.79402e+09 3.79703e+09 0 1
425 1 1 3.80374e+09 3.804e+09 3.80502e+09 3.80504e+09 0 1
426 2 0 3.80921e+09 3.80946e+09 3.81048e+09 3.81066e+09 0 1
427 1 1 3.82056e+09 3.82082e+09 3.82183e+09 3.82185e+09 0 1
428 2 1 3.82862e+09 3.82888e+09 3.8299e+09 3.82996e+09 0 0
429 2 1 3.83798e+09 3.83823e+09 3.83924e+09 3.83972e+09 1 0
430 2 0 3.84747e+09 3.84772e+09 3.84874e+09 3.84923e+09 1 1
431 1 1 3.85187e+09 3.85212e+09 3.85313e+09 3.85319e+09 0 1
432 1 1 3.85813e+09 3.85838e+09 3.8594e+09 3.85944e+09 0 1
433 2 1 3.86829e+09 3.86853e+09 3.86955e+09 3.87066e+09 0 0
434 2 1 3.87777e+09 3.87802e+09 3.87904e+09 3.88204e+09 1 0
435 2 0 3.8917e+09 3.89196e+09 3.89298e+09 3.8932e+09 1 1
436 1 1 3.896e+09 3.89625e+09 3.89727e+09 3.89729e+09 0 1
437 2 0 3.90122e+09 3.90148e+09 3.9025e+09 3.90265e+09 0 1
438 1 1 3.91443e+09 3.91467e+09 3.91569e+09 3.91575e+09 0 1
439 2 0 3.91862e+09 3.91888e+09 3.9199e+09 3.92719e+09 0 1
440 1 1 3.92977e+09 3.93002e+09 3.93104e+09 3.93133e+09 0 1
441 1 1 3.93788e+09 3.93812e+09 3.93914e+09 3.93925e+09 0 1
442 2 0 3.94207e+09 3.94233e+09 3.94335e+09 3.94407e+09 0 1
443 2 0 3.96867e+09 3.96893e+09 3.96995e+09 3.97042e+09 0 1
444 2 1 3.97321e+09 3.97346e+09 3.97448e+09 3.97457e+09 0 0
445 2 0 3.98664e+09 3.98689e+09 3.98791e+09 3.99332e+09 1 1
446 2 1 3.99673e+09 3.99698e+09 3.998e+09 3.99812e+09 0 0
447 2 1 4.0106e+09 4.01084e+09 4.01186e+09 4.01906e+09 1 0
448 2 0 4.02628e+09 4.02653e+09 4.02755e+09 4.03292e+09 1 1
449 2 1 4.0357e+09 4.03595e+09 4.03697e+09 4.03732e+09 0 0
450 2 0 4.04475e+09 4.04501e+09 4.04603e+09 4.05024e+09 1 1
451 1 0 4.05777e+09 4.05803e+09 4.05905e+09 4.05912e+09 0 0
452 1 0 4.06632e+09 4.06657e+09 4.06759e+09 4.10177e+09 1 0
453 1 1 4.11351e+09 4.11376e+09 4.11478e+09 4.1148e+09 1 1
454 1 0 4.11744e+09 4.11769e+09 4.11871e+09 4.12212e+09 0 0
455 1 1 4.12922e+09 4.12946e+09 4.13048e+09 4.13054e+09 1 1
456 1 1 4.13317e+09 4.13343e+09 4.13445e+09 4.13459e+09 0 1
457 1 0 4.14236e+09 4.1426e+09 4.14362e+09 4.14367e+09 0 0
458 1 1 4.15138e+09 4.15162e+09 4.15264e+09 4.15268e+09 1 1
459 1 1 4.15564e+09 4.1559e+09 4.15692e+09 4.15694e+09 0 1
460 1 1 4.1638e+09 4.16405e+09 4.16507e+09 4.1651e+09 0 1
461 1 1 4.17255e+09 4.1728e+09 4.17382e+09 4.17383e+09 0 1
462 1 1 4.17889e+09 4.17914e+09 4.18016e+09 4.18018e+09 0 1
463 2 0 4.18433e+09 4.18459e+09 4.1856e+09 4.18816e+09 0 1
464 1 1 4.19145e+09 4.19171e+09 4.19273e+09 4.1929e+09 0 1
465 2 0 4.2017e+09 4.20195e+09 4.20297e+09 4.20298e+09 0 1
466 1 1 4.20641e+09 4.20666e+09 4.20767e+09 4.20774e+09 0 1
467 2 0 4.21044e+09 4.2107e+09 4.21172e+09 4.21328e+09 0 1
468 1 1 4.2175e+09 4.21775e+09 4.21877e+09 4.21878e+09 0 1
469 2 0 4.22912e+09 4.22938e+09 4.2304e+09 4.23252e+09 0 1
470 2 1 4.23552e+09 4.23577e+09 4.23679e+09 4.23709e+09 0 0
471 2 0 4.24706e+09 4.24731e+09 4.24833e+09 4.25287e+09 1 1
472 2 0 4.2557e+09 4.25595e+09 4.25697e+09 4.28307e+09 0 1
473 1 0 4.28823e+09 4.28848e+09 4.2895e+09 2.80969e+07 0 0
474 1 0 3.54724e+07 3.57154e+07 3.67345e+07 4.23308e+07 1 0
475 1 0 4.96794e+07 4.99361e+07 5.09553e+07 5.12169e+07 1 0
476 1 0 6.73024e+07 6.7555e+07 6.85741e+07 1.07835e+08 1 0
477 2 1 1.15369e+08 1.15629e+08 1.16648e+08 1.19978e+08 0 0
478 2 0 1.27442e+08 1.27697e+08 1.28717e+08 1.33198e+08 0 1
479 2 0 1.37514e+08 1.3776e+08 1.38779e+08 1.51234e+08 0 1
480 1 1 1.59476e+08 1.59733e+08 1.60752e+08 1.60802e+08 0 1
481 2 0 1.66138e+08 1.66384e+08 1.67403e+08 1.70361e+08 0 1
482 1 0 1.74391e+08 1.74637e+08 1.75657e+08 2.04929e+08 0 0
483 1 0 2.12266e+08 2.12512e+08 2.13531e+08 2.17703e+08 1 0
484 1 0 2.285e+08 2.28746e+08 2.29765e+08 2.88883e+08 1 0
485 1 0 2.96175e+08 2.96448e+08 2.97468e+08 3.90341e+08 1 0
486 1 0 3.97623e+08 3.9787e+08 3.98889e+08 4.09048e+08 0 0
487 1 0 4.17302e+08 4.17545e+08 4.18565e+08 6.23104e+08 0 0
488 2 0 6.30552e+08 6.30795e+08 6.31814e+08 6.51343e+08 0 1
489 2 1 6.54196e+08 6.54446e+08 6.55465e+08 6.55852e+08 0 0
490 2 0 6.63252e+08 6.63513e+08 6.64532e+08 6.92947e+08 1 1
491 2 0 6.96461e+08 6.96705e+08 6.97724e+08 6.98011e+08 0 1
492 1 1 7.00637e+08 7.00882e+08 7.01901e+08 7.02899e+08 0 1
493 1 0 7.06383e+08 7.06635e+08 7.07654e+08 7.78687e+08 0 0
494 1 0 7.85833e+08 7.86094e+08 7.87113e+08 7.94092e+08 1 0
495 1 0 8.01196e+08 8.01448e+08 8.02467e+08 8.22749e+08 1 0
496 1 0 8.30144e+08 8.30405e+08 8.31424e+08 8.86252e+08 1 0
497 1 1 8.93702e+08 8.9396e+08 8.9498e+08 9.62093e+08 0 1
498 2 0 9.65094e+08 9.65352e+08 9.66372e+08 1.01785e+09 0 1
499 2 1 1.02127e+09 1.02153e+09 1.02255e+09 1.02946e+09 0 0
500 2 1 1.0369e+09 1.03715e+09 1.03817e+09 1.31729e+09 1 0
501 2 1 1.32464e+09 1.32489e+09 1.32591e+09 1.32705e+09 1 0
