trial trialType response stillTime stimOnset stimOffset respTime correctionTrial correct
001 2 1 3.25838e+06 3.53546e+06 4.55461e+06 5.48062e+08 0
000 002 2 1 5.56037e+08 5.56291e+08 5.57311e+08 5.57534e+08 1
000 003 2 1 5.64652e+08 5.64905e+08 5.65924e+08 5.67102e+08 1
000 004 2 0 5.7534e+08 5.75585e+08 5.76605e+08 5.76666e+08 1
001 005 2 1 5.83981e+08 5.84243e+08 5.85262e+08 5.86032e+08 0
000 006 2 1 5.93339e+08 5.93595e+08 5.94614e+08 5.95891e+08 1
000 007 2 1 6.02978e+08 6.03225e+08 6.04244e+08 6.04257e+08 1
000 008 2 1 6.12916e+08 6.13163e+08 6.14182e+08 6.15777e+08 1
000 009 1 0 6.23288e+08 6.23587e+08 6.24606e+08 6.26367e+08 0
000 010 1 0 6.33684e+08 6.33941e+08 6.3496e+08 6.35418e+08 0
000 011 2 0 6.44333e+08 6.44579e+08 6.45598e+08 6.48441e+08 0
001 012 2 0 6.53756e+08 6.54002e+08 6.55021e+08 6.56685e+08 0
001 013 1 0 6.65427e+08 6.65671e+08 6.66691e+08 6.66697e+08 0
000 014 1 1 6.73776e+08 6.74022e+08 6.75042e+08 6.75101e+08 1
001 015 2 1 6.82536e+08 6.82786e+08 6.83806e+08 6.83818e+08 0
000 016 2 0 6.92158e+08 6.92418e+08 6.93438e+08 6.9345e+08 1
001 017 1 0 6.99859e+08 7.00103e+08 7.01122e+08 7.01285e+08 0
000 018 1 1 7.15026e+08 7.15284e+08 7.16303e+08 7.1632e+08 1
001 019 2 0 7.21669e+08 7.21916e+08 7.22935e+08 7.23296e+08 0
001 020 1 1 7.25928e+08 7.26172e+08 7.27191e+08 7.29931e+08 0
001 021 2 0 7.40269e+08 7.40521e+08 7.4154e+08 7.42921e+08 0
001 022 1 1 7.46622e+08 7.46877e+08 7.47897e+08 7.48033e+08 0
001 023 2 0 7.5305e+08 7.5331e+08 7.54329e+08 7.54936e+08 0
001 024 1 1 7.59531e+08 7.59785e+08 7.60804e+08 7.609e+08 0
001 025 1 1 7.66894e+08 7.67139e+08 7.68158e+08 7.68231e+08 0
001 026 1 1 7.77545e+08 7.77788e+08 7.78807e+08 7.78819e+08 0
001 027 2 1 7.84829e+08 7.85073e+08 7.86093e+08 7.86532e+08 0
000 028 2 0 7.96703e+08 7.96956e+08 7.97975e+08 7.99362e+08 1
001 029 1 1 8.02218e+08 8.02469e+08 8.03488e+08 8.03631e+08 0
001 030 2 1 8.06499e+08 8.06749e+08 8.07768e+08 8.09725e+08 0
000 031 2 0 8.18398e+08 8.18649e+08 8.19668e+08 8.20547e+08 1
001 032 1 0 8.26236e+08 8.26481e+08 8.275e+08 8.27742e+08 0
000 033 1 0 8.36249e+08 8.36498e+08 8.37517e+08 8.39102e+08 1
000 034 1 1 8.46659e+08 8.46919e+08 8.47938e+08 8.48516e+08 1
001 035 1 1 8.54756e+08 8.55009e+08 8.56028e+08 8.56067e+08 0
001 036 2 0 8.65046e+08 8.653e+08 8.66319e+08 8.66522e+08 0
001 037 2 0 8.72522e+08 8.72773e+08 8.73792e+08 8.73802e+08 0
001 038 2 1 8.79379e+08 8.79622e+08 8.80641e+08 8.80657e+08 0
000 039 2 0 8.89528e+08 8.89785e+08 8.90804e+08 8.91087e+08 1
001 040 2 0 8.96008e+08 8.96262e+08 8.97281e+08 9.01723e+08 0
001 041 1 0 9.08243e+08 9.08494e+08 9.09513e+08 9.12153e+08 0
000 042 1 1 9.24802e+08 9.25057e+08 9.26076e+08 9.2661e+08 1
001 043 2 0 9.29476e+08 9.29726e+08 9.30745e+08 9.34918e+08 0
001 044 2 1 9.41082e+08 9.41339e+08 9.42358e+08 9.43919e+08 0
000 045 2 0 9.54763e+08 9.55015e+08 9.56034e+08 9.59103e+08 1
001 046 1 0 9.6211e+08 9.62391e+08 9.6341e+08 9.63568e+08 0
000 047 1 0 9.7082e+08 9.71066e+08 9.72085e+08 9.72218e+08 1
000 048 1 0 9.80165e+08 9.80418e+08 9.81437e+08 9.81457e+08 1
000 049 1 1 9.89957e+08 9.90219e+08 9.91239e+08 9.94599e+08 1
001 050 1 1 9.97433e+08 9.977e+08 9.9872e+08 9.99831e+08 0
001 051 1 0 1.00314e+09 1.00341e+09 1.00442e+09 1.00449e+09 0
000 052 1 1 1.01179e+09 1.01205e+09 1.01307e+09 1.01346e+09 1
001 053 1 1 1.01905e+09 1.0193e+09 1.02032e+09 1.02043e+09 0
001 054 1 1 1.02571e+09 1.02597e+09 1.02699e+09 1.02723e+09 0
001 055 1 0 1.02997e+09 1.03022e+09 1.03123e+09 1.03166e+09 0
000 056 1 0 1.04107e+09 1.04132e+09 1.04234e+09 1.04453e+09 1
000 057 1 0 1.05169e+09 1.05195e+09 1.05297e+09 1.05323e+09 1
000 058 1 0 1.06137e+09 1.06163e+09 1.06265e+09 1.0657e+09 1
000 059 2 0 1.07456e+09 1.07481e+09 1.07583e+09 1.07593e+09 0
001 060 2 0 1.08651e+09 1.08676e+09 1.08778e+09 1.08947e+09 0
001 061 1 1 1.09416e+09 1.09441e+09 1.09542e+09 1.09604e+09 0
001 062 1 0 1.10387e+09 1.10412e+09 1.10514e+09 1.10686e+09 0
000 063 1 1 1.11394e+09 1.11421e+09 1.11523e+09 1.11559e+09 1
001 064 1 0 1.11858e+09 1.11883e+09 1.11985e+09 1.12039e+09 0
000 065 1 1 1.12824e+09 1.1285e+09 1.12951e+09 1.12996e+09 1
001 066 2 0 1.1382e+09 1.13844e+09 1.13946e+09 1.13955e+09 0
001 067 2 0 1.14312e+09 1.14337e+09 1.14439e+09 1.14833e+09 0
001 068 1 1 1.15792e+09 1.15818e+09 1.1592e+09 1.15922e+09 0
001 069 1 0 1.16193e+09 1.16219e+09 1.16321e+09 1.16325e+09 0
000 070 1 0 1.17182e+09 1.17207e+09 1.17309e+09 1.17506e+09 1
000 071 1 1 1.18394e+09 1.18419e+09 1.18521e+09 1.1856e+09 1
001 072 2 1 1.19134e+09 1.1916e+09 1.19262e+09 1.1944e+09 0
000 073 2 1 1.20157e+09 1.20183e+09 1.20285e+09 1.20287e+09 1
000 074 2 0 1.21236e+09 1.21261e+09 1.21363e+09 1.21968e+09 1
001 075 2 0 1.22463e+09 1.22488e+09 1.2259e+09 1.22601e+09 0
001 076 2 0 1.22919e+09 1.22944e+09 1.23046e+09 1.23053e+09 0
001 077 2 1 1.23677e+09 1.23702e+09 1.23804e+09 1.2381e+09 0
000 078 2 0 1.24518e+09 1.24544e+09 1.24646e+09 1.24698e+09 1
001 079 1 1 1.25257e+09 1.25284e+09 1.25386e+09 1.2576e+09 0
001 080 1 0 1.26023e+09 1.26049e+09 1.26151e+09 1.26173e+09 0
000 081 1 0 1.26945e+09 1.2697e+09 1.27072e+09 1.27119e+09 1
000 082 1 0 1.28226e+09 1.28253e+09 1.28354e+09 1.28586e+09 1
000 083 1 1 1.29414e+09 1.29439e+09 1.29541e+09 1.29735e+09 1
001 084 1 1 1.29985e+09 1.30011e+09 1.30113e+09 1.30343e+09 0
001 085 2 0 1.30755e+09 1.3078e+09 1.30882e+09 1.3097e+09 0
001 086 1 1 1.31426e+09 1.31452e+09 1.31554e+09 1.31555e+09 0
001 087 2 0 1.31845e+09 1.31871e+09 1.31973e+09 1.32081e+09 0
001 088 2 1 1.33102e+09 1.33129e+09 1.33231e+09 1.33242e+09 0
000 089 2 0 1.33991e+09 1.34017e+09 1.34119e+09 1.34166e+09 1
001 090 1 1 1.34545e+09 1.34571e+09 1.34672e+09 1.34674e+09 0
001 091 1 0 1.3494e+09 1.34965e+09 1.35067e+09 1.35085e+09 0
000 092 1 0 1.36012e+09 1.36037e+09 1.36139e+09 1.36204e+09 1
000 093 1 0 1.36975e+09 1.37001e+09 1.37103e+09 1.37328e+09 1
000 094 1 1 1.38166e+09 1.38191e+09 1.38293e+09 1.38598e+09 1
001 095 2 0 1.39052e+09 1.39079e+09 1.39181e+09 1.39193e+09 0
001 096 2 1 1.39449e+09 1.39475e+09 1.39577e+09 1.39582e+09 0
000 097 2 0 1.40363e+09 1.40388e+09 1.4049e+09 1.40727e+09 1
001 098 1 0 1.41164e+09 1.41189e+09 1.41291e+09 1.4137e+09 0
000 099 1 0 1.42449e+09 1.42474e+09 1.42576e+09 1.42578e+09 1
000 100 1 0 1.43727e+09 1.43752e+09 1.43854e+09 1.43918e+09 1
000 101 1 0 1.44802e+09 1.44827e+09 1.44929e+09 1.45392e+09 1
000 102 2 0 1.46335e+09 1.4636e+09 1.46462e+09 1.46537e+09 0
001 103 1 1 1.47003e+09 1.47028e+09 1.4713e+09 1.47356e+09 0
001 104 2 0 1.4772e+09 1.47745e+09 1.47847e+09 1.47879e+09 0
001 105 1 0 1.4815e+09 1.48176e+09 1.48278e+09 1.48279e+09 0
000 106 1 0 1.49039e+09 1.49064e+09 1.49166e+09 1.49309e+09 1
000 107 1 0 1.50195e+09 1.50221e+09 1.50323e+09 1.50325e+09 1
000 108 1 0 1.51067e+09 1.51093e+09 1.51195e+09 1.51265e+09 1
000 109 1 0 1.52002e+09 1.52029e+09 1.52131e+09 1.52133e+09 0
000 110 2 1 1.52884e+09 1.5291e+09 1.53012e+09 1.53012e+09 0
000 111 2 0 1.53755e+09 1.5378e+09 1.53882e+09 1.53969e+09 0
001 112 1 0 1.54294e+09 1.54319e+09 1.54421e+09 1.54422e+09 0
000 113 1 0 1.5528e+09 1.55306e+09 1.55408e+09 1.55608e+09 1
000 114 1 1 1.56566e+09 1.56592e+09 1.56694e+09 1.56782e+09 1
001 115 2 0 1.57757e+09 1.57781e+09 1.57883e+09 1.5796e+09 0
001 116 1 1 1.58245e+09 1.58271e+09 1.58372e+09 1.58382e+09 0
001 117 1 0 1.58653e+09 1.58679e+09 1.58781e+09 1.58782e+09 0
000 118 1 0 1.59812e+09 1.59837e+09 1.59939e+09 1.60526e+09 1
000 119 1 0 1.61315e+09 1.61341e+09 1.61443e+09 1.61569e+09 1
000 120 1 1 1.62315e+09 1.62339e+09 1.62441e+09 1.62784e+09 1
001 121 1 1 1.63865e+09 1.63889e+09 1.63991e+09 1.63992e+09 0
001 122 1 1 1.64384e+09 1.64409e+09 1.64511e+09 1.64532e+09 0
001 123 1 0 1.64819e+09 1.64843e+09 1.64945e+09 1.65148e+09 0
000 124 1 0 1.65852e+09 1.65877e+09 1.65979e+09 1.66318e+09 1
000 125 1 0 1.67078e+09 1.67105e+09 1.67207e+09 1.6754e+09 1
000 126 1 0 1.68291e+09 1.68317e+09 1.68419e+09 1.6842e+09 1
000 127 2 1 1.69713e+09 1.69738e+09 1.6984e+09 1.70924e+09 0
000 128 2 0 1.71637e+09 1.71663e+09 1.71764e+09 1.71902e+09 0
001 129 1 0 1.72501e+09 1.72526e+09 1.72628e+09 1.73041e+09 0
000 130 1 1 1.73872e+09 1.73897e+09 1.73999e+09 1.74113e+09 1
001 131 1 1 1.74568e+09 1.74593e+09 1.74695e+09 1.74983e+09 0
001 132 2 1 1.75411e+09 1.75437e+09 1.75539e+09 1.75616e+09 0
000 133 2 0 1.76327e+09 1.76353e+09 1.76455e+09 1.77532e+09 1
001 134 2 1 1.77816e+09 1.77841e+09 1.77943e+09 1.78489e+09 0
000 135 2 1 1.79218e+09 1.79243e+09 1.79345e+09 1.79801e+09 1
000 136 2 1 1.80652e+09 1.80678e+09 1.8078e+09 1.81147e+09 1
000 137 2 1 1.82138e+09 1.82162e+09 1.82264e+09 1.82344e+09 1
000 138 1 1 1.83426e+09 1.83453e+09 1.83555e+09 1.83991e+09 0
001 139 2 0 1.84268e+09 1.84294e+09 1.84396e+09 1.84409e+09 0
001 140 2 1 1.84956e+09 1.84981e+09 1.85083e+09 1.85084e+09 0
000 141 2 0 1.85796e+09 1.85822e+09 1.85924e+09 1.86038e+09 1
001 142 1 0 1.86366e+09 1.86391e+09 1.86493e+09 1.86631e+09 0
000 143 1 0 1.87359e+09 1.87383e+09 1.87485e+09 1.87839e+09 1
000 144 1 1 1.88548e+09 1.88574e+09 1.88676e+09 1.88715e+09 1
001 145 2 1 1.88982e+09 1.89008e+09 1.8911e+09 1.89461e+09 0
000 146 2 0 1.90194e+09 1.9022e+09 1.90322e+09 1.91513e+09 1
001 147 1 0 1.91776e+09 1.91802e+09 1.91904e+09 1.98423e+09 0
000 148 1 0 1.99144e+09 1.9917e+09 1.99272e+09 1.99276e+09 1
000 149 1 0 2.00013e+09 2.00039e+09 2.00141e+09 2.03428e+09 1
000 150 1 0 2.04132e+09 2.04157e+09 2.04259e+09 2.04317e+09 1
000 151 2 0 2.05074e+09 2.05099e+09 2.05201e+09 2.05882e+09 0
001 152 1 1 2.06341e+09 2.06367e+09 2.06469e+09 2.07241e+09 0
001 153 2 1 2.07499e+09 2.07525e+09 2.07627e+09 2.07919e+09 0
000 154 2 1 2.08655e+09 2.08679e+09 2.08781e+09 2.08921e+09 1
000 155 2 1 2.09694e+09 2.09718e+09 2.0982e+09 2.10083e+09 1
000 156 2 1 2.10808e+09 2.10833e+09 2.10935e+09 2.11261e+09 1
000 157 1 1 2.12e+09 2.12025e+09 2.12127e+09 2.1219e+09 0
001 158 2 0 2.12668e+09 2.12693e+09 2.12795e+09 2.12837e+09 0
001 159 2 1 2.13583e+09 2.13608e+09 2.1371e+09 2.13998e+09 0
000 160 2 1 2.14714e+09 2.14739e+09 2.14841e+09 2.15518e+09 1
000 161 2 0 2.16233e+09 2.16258e+09 2.1636e+09 2.20116e+09 1
001 162 2 0 2.20503e+09 2.20527e+09 2.20629e+09 2.20641e+09 0
001 163 2 1 2.21179e+09 2.21204e+09 2.21306e+09 2.21311e+09 0
000 164 2 0 2.22568e+09 2.22593e+09 2.22695e+09 2.22714e+09 1
001 165 1 0 2.22986e+09 2.23012e+09 2.23113e+09 2.23829e+09 0
000 166 1 0 2.24542e+09 2.24567e+09 2.24669e+09 2.24984e+09 1
000 167 1 0 2.25709e+09 2.25735e+09 2.25837e+09 2.26267e+09 1
000 168 1 0 2.27005e+09 2.2703e+09 2.27132e+09 2.28511e+09 1
000 169 1 0 2.29257e+09 2.29282e+09 2.29384e+09 2.32554e+09 0
000 170 1 0 2.33459e+09 2.33484e+09 2.33586e+09 2.35541e+09 0
000 171 2 1 2.36271e+09 2.36297e+09 2.36398e+09 2.37226e+09 0
000 172 2 1 2.37975e+09 2.38e+09 2.38102e+09 2.38646e+09 0
000 173 2 1 2.39392e+09 2.39418e+09 2.39519e+09 2.39878e+09 0
000 174 2 1 2.4061e+09 2.40636e+09 2.40738e+09 2.41405e+09 0
000 175 1 1 2.42937e+09 2.42963e+09 2.43065e+09 2.43142e+09 0
001 176 1 0 2.43438e+09 2.43466e+09 2.43568e+09 2.43618e+09 0
000 177 1 0 2.44986e+09 2.45011e+09 2.45113e+09 2.45232e+09 1
000 178 1 1 2.46289e+09 2.46314e+09 2.46416e+09 2.46553e+09 1
001 179 1 1 2.46855e+09 2.46881e+09 2.46982e+09 2.47152e+09 0
001 180 1 1 2.47444e+09 2.47471e+09 2.47573e+09 2.47713e+09 0
001 181 1 0 2.48001e+09 2.48027e+09 2.48129e+09 2.48673e+09 0
000 182 1 1 2.49398e+09 2.49423e+09 2.49525e+09 2.49637e+09 1
001 183 2 1 2.49912e+09 2.49938e+09 2.5004e+09 2.51257e+09 0
000 184 2 1 2.51963e+09 2.51989e+09 2.52091e+09 2.52099e+09 1
000 185 2 0 2.52828e+09 2.52853e+09 2.52955e+09 2.54675e+09 1
001 186 1 0 2.55109e+09 2.55134e+09 2.55236e+09 2.55366e+09 0
000 187 1 0 2.56475e+09 2.56501e+09 2.56603e+09 2.57112e+09 1
000 188 1 0 2.57854e+09 2.57879e+09 2.57981e+09 2.58586e+09 1
000 189 1 1 2.59301e+09 2.59327e+09 2.59429e+09 2.60032e+09 1
001 190 1 0 2.60323e+09 2.60348e+09 2.6045e+09 2.60506e+09 0
000 191 1 0 2.61336e+09 2.61361e+09 2.61463e+09 2.63931e+09 1
000 192 1 0 2.64862e+09 2.64888e+09 2.6499e+09 2.65047e+09 1
000 193 1 0 2.66222e+09 2.66247e+09 2.66349e+09 2.6843e+09 1
000 194 2 1 2.69181e+09 2.69207e+09 2.69309e+09 2.71054e+09 0
000 195 2 1 2.71776e+09 2.71802e+09 2.71904e+09 2.77303e+09 0
000 196 1 1 2.78641e+09 2.78667e+09 2.78769e+09 2.82808e+09 0
001 197 1 1 2.83534e+09 2.83559e+09 2.83661e+09 2.84361e+09 0
001 198 2 0 2.84914e+09 2.84939e+09 2.85041e+09 2.85095e+09 0
001 199 2 0 2.85707e+09 2.85732e+09 2.85834e+09 2.85979e+09 0
001 200 1 0 2.86351e+09 2.86376e+09 2.86477e+09 2.86846e+09 0
000 201 1 0 2.87575e+09 2.87601e+09 2.87703e+09 2.88101e+09 1
000 202 1 1 2.88834e+09 2.88859e+09 2.88961e+09 2.89652e+09 1
001 203 1 0 2.90061e+09 2.90086e+09 2.90187e+09 2.90192e+09 0
000 204 1 0 2.91118e+09 2.91143e+09 2.91245e+09 2.91376e+09 1
000 205 1 0 2.9221e+09 2.92235e+09 2.92337e+09 2.9244e+09 1
000 206 1 1 2.93343e+09 2.93367e+09 2.93469e+09 2.95336e+09 1
001 207 1 0 2.95773e+09 2.95798e+09 2.959e+09 2.95905e+09 0
000 208 1 1 2.96612e+09 2.96637e+09 2.96739e+09 2.97187e+09 1
001 209 2 0 2.97691e+09 2.97717e+09 2.97818e+09 2.99337e+09 0
001 210 2 0 3.00573e+09 3.00599e+09 3.00701e+09 3.01026e+09 0
001 211 1 0 3.01325e+09 3.01349e+09 3.01451e+09 3.01453e+09 0
000 212 1 1 3.02161e+09 3.02186e+09 3.02288e+09 3.02364e+09 1
001 213 2 0 3.02644e+09 3.02669e+09 3.02771e+09 3.02859e+09 0
001 214 2 1 3.03623e+09 3.03648e+09 3.0375e+09 3.03893e+09 0
000 215 2 1 3.05053e+09 3.05079e+09 3.05181e+09 3.05434e+09 1
000 216 2 1 3.06231e+09 3.06255e+09 3.06357e+09 3.06807e+09 1
000 217 2 0 3.08126e+09 3.08152e+09 3.08253e+09 3.08641e+09 1
001 218 1 1 3.09529e+09 3.09555e+09 3.09657e+09 3.10558e+09 0
001 219 1 0 3.10835e+09 3.10861e+09 3.10963e+09 3.10978e+09 0
000 220 1 1 3.11693e+09 3.11718e+09 3.1182e+09 3.1253e+09 1
001 221 1 1 3.12815e+09 3.1284e+09 3.12942e+09 3.12949e+09 0
001 222 1 0 3.1381e+09 3.13835e+09 3.13937e+09 3.14198e+09 0
000 223 1 0 3.15359e+09 3.15384e+09 3.15486e+09 3.16641e+09 1
000 224 1 0 3.17806e+09 3.17832e+09 3.17934e+09 3.21777e+09 1
000 225 1 1 3.22507e+09 3.22531e+09 3.22633e+09 3.23512e+09 1
001 226 2 1 3.23805e+09 3.23831e+09 3.23933e+09 3.24595e+09 0
000 227 2 0 3.2623e+09 3.26255e+09 3.26357e+09 3.29447e+09 1
001 228 1 0 3.30011e+09 3.30036e+09 3.30138e+09 3.32854e+09 0
000 229 1 0 3.33868e+09 3.33893e+09 3.33995e+09 3.34693e+09 1
000 230 1 0 3.35744e+09 3.3577e+09 3.35871e+09 3.41527e+09 1
000 231 1 0 3.42506e+09 3.42532e+09 3.42633e+09 3.42646e+09 1
000 232 1 0 3.43571e+09 3.43597e+09 3.43699e+09 3.44192e+09 0
000 233 1 0 3.44911e+09 3.44936e+09 3.45038e+09 3.49942e+09 0
000 234 2 0 3.50798e+09 3.50824e+09 3.50926e+09 3.58037e+09 0
001 235 1 0 3.5868e+09 3.58705e+09 3.58807e+09 3.59066e+09 0
000 236 1 0 3.59918e+09 3.59943e+09 3.60045e+09 3.6029e+09 1
000 237 1 0 3.61034e+09 3.61059e+09 3.61161e+09 3.61253e+09 1
000 238 1 0 3.62069e+09 3.62095e+09 3.62197e+09 3.65018e+09 1
000 239 2 1 3.66031e+09 3.66058e+09 3.6616e+09 3.66789e+09 0
000 240 2 0 3.67688e+09 3.67714e+09 3.67816e+09 3.68133e+09 0
001 241 1 0 3.6846e+09 3.68486e+09 3.68588e+09 3.74445e+09 0
000 242 1 0 3.75193e+09 3.75219e+09 3.75321e+09 3.80621e+09 1
000 243 1 0 3.81361e+09 3.81387e+09 3.81489e+09 3.82965e+09 1
000 244 1 0 3.83669e+09 3.83693e+09 3.83795e+09 3.86686e+09 1
000 245 2 0 3.87529e+09 3.87555e+09 3.87657e+09 3.92583e+09 0
001 246 1 0 3.93001e+09 3.93027e+09 3.93129e+09 3.9349e+09 0
000 247 1 0 3.9421e+09 3.94235e+09 3.94337e+09 3.94504e+09 1
000 248 1 0 3.95491e+09 3.95515e+09 3.95617e+09 3.95671e+09 1
000 249 1 0 3.96437e+09 3.96462e+09 3.96564e+09 4.00134e+09 1
000 250 2 0 4.00874e+09 4.00899e+09 4.01001e+09 4.01983e+09 0
001 251 1 1 4.02479e+09 4.02505e+09 4.02607e+09 4.02626e+09 0
001 252 2 1 4.03168e+09 4.03193e+09 4.03295e+09 4.03297e+09 0
000 253 2 0 4.04852e+09 4.04876e+09 4.04978e+09 4.05255e+09 1
001 254 1 0 4.05554e+09 4.0558e+09 4.05682e+09 4.05835e+09 0
000 255 1 0 4.06752e+09 4.06777e+09 4.06879e+09 4.07287e+09 1
000 256 1 0 4.08025e+09 4.0805e+09 4.08151e+09 4.13297e+09 1
000 257 1 0 4.14021e+09 4.14046e+09 4.14148e+09 4.17094e+09 1
000 258 2 1 4.17828e+09 4.17852e+09 4.17954e+09 4.22122e+09 0
000 259 1 1 4.22998e+09 4.23024e+09 4.23126e+09 4.23868e+09 0
001 260 2 1 4.24118e+09 4.24143e+09 4.24245e+09 4.24329e+09 0
000 261 2 0 4.25074e+09 4.251e+09 4.25202e+09 4.26063e+09 1
001 262 1 1 4.26442e+09 4.26467e+09 4.26569e+09 6.18474e+06 0
001 263 2 0 8.70401e+06 8.94812e+06 9.96728e+06 1.05956e+07 0
001 264 1 0 1.32813e+07 1.35314e+07 1.45506e+07 1.53161e+07 0
000 265 1 0 2.36391e+07 2.38921e+07 2.49113e+07 3.83444e+07 1
000 266 1 1 4.55998e+07 4.5846e+07 4.68651e+07 4.85015e+07 1
001 267 2 1 5.10485e+07 5.12901e+07 5.23093e+07 5.30264e+07 0
000 268 2 0 6.03095e+07 6.05574e+07 6.15766e+07 6.78995e+07 1
001 269 1 0 7.23395e+07 7.25921e+07 7.36113e+07 7.85621e+07 0
000 270 1 0 8.56412e+07 8.58962e+07 8.69154e+07 1.18399e+08 1
000 271 1 0 1.25754e+08 1.26012e+08 1.27031e+08 1.39222e+08 1
000 272 1 0 1.4627e+08 1.4652e+08 1.47539e+08 1.59832e+08 1
000 273 2 0 1.67517e+08 1.67771e+08 1.68791e+08 1.7423e+08 0
001 274 2 0 1.76992e+08 1.77237e+08 1.78256e+08 2.33231e+08 0
001 275 1 0 2.411e+08 2.41347e+08 2.42366e+08 2.42372e+08 0
000 276 1 0 2.49497e+08 2.49753e+08 2.50772e+08 2.55755e+08 1
000 277 1 1 2.62941e+08 2.63204e+08 2.64223e+08 2.65518e+08 1
001 278 2 1 2.68926e+08 2.69182e+08 2.70201e+08 2.7092e+08 0
000 279 2 1 2.78002e+08 2.78265e+08 2.79284e+08 3.09778e+08 1
000 280 2 0 3.17401e+08 3.17644e+08 3.18664e+08 3.21368e+08 1
001 281 2 0 3.26217e+08 3.26467e+08 3.27486e+08 3.47332e+08 0
001 282 1 0 3.56923e+08 3.57174e+08 3.58193e+08 3.8051e+08 0
000 283 1 0 3.8759e+08 3.87848e+08 3.88867e+08 4.38902e+08 1
000 284 1 0 4.46226e+08 4.46478e+08 4.47497e+08 4.73203e+08 1
000 285 1 0 4.80246e+08 4.80499e+08 4.81518e+08 4.90197e+08 1
000 286 2 0 4.97662e+08 4.97909e+08 4.98928e+08 5.17583e+08 0
001 287 1 0 5.22612e+08 5.22863e+08 5.23883e+08 5.25867e+08 0
000 288 1 0 5.32968e+08 5.33214e+08 5.34233e+08 5.36913e+08 1
000 289 1 0 5.44321e+08 5.44572e+08 5.45591e+08 5.85944e+08 1
000 290 1 0 5.94126e+08 5.94381e+08 5.954e+08 7.08926e+08 1
000 291 2 0 7.16842e+08 7.1709e+08 7.18109e+08 7.84049e+08 0
001 292 2 0 7.90135e+08 7.90382e+08 7.91401e+08 7.94661e+08 0
001 293 2 0 8.04396e+08 8.04645e+08 8.05664e+08 8.52972e+08 0
001 294 2 0 8.57096e+08 8.5735e+08 8.58369e+08 9.28178e+08 0
001 295 2 0 9.31276e+08 9.31529e+08 9.32548e+08 9.36133e+08 0
001 296 2 0 9.40815e+08 9.4107e+08 9.42089e+08 9.42883e+08 0
001 297 2 0 9.49897e+08 9.50145e+08 9.51164e+08 9.72699e+08 0
001 298 1 0 9.83297e+08 9.83549e+08 9.84569e+08 1.00179e+09 0
000 299 1 0 1.00914e+09 1.0094e+09 1.01041e+09 1.01734e+09 1
000 300 1 0 1.02957e+09 1.02982e+09 1.03084e+09 1.03167e+09 1
000 301 1 1 1.03875e+09 1.039e+09 1.04002e+09 1.0889e+09 1
001 302 2 0 1.09388e+09 1.09413e+09 1.09515e+09 1.09515e+09 0
001 303 1 0 1.09891e+09 1.09916e+09 1.10018e+09 1.16195e+09 0
000 304 1 0 1.17085e+09 1.17111e+09 1.17213e+09 1.20332e+09 1
000 305 1 0 1.21236e+09 1.2126e+09 1.21362e+09 1.22869e+09 1
000 306 1 0 1.23617e+09 1.23644e+09 1.23746e+09 1.23912e+09 1
000 307 1 0 1.24938e+09 1.24964e+09 1.25065e+09 1.2635e+09 0
000 308 1 0 1.27086e+09 1.27111e+09 1.27213e+09 1.31402e+09 0
000 309 2 0 1.32131e+09 1.32157e+09 1.32259e+09 1.327e+09 0
001 310 2 0 1.33061e+09 1.33087e+09 1.33189e+09 1.3496e+09 0
001 311 1 0 1.35225e+09 1.35251e+09 1.35353e+09 1.35416e+09 0
000 312 1 0 1.36132e+09 1.36158e+09 1.3626e+09 1.3639e+09 1
000 313 1 0 1.37098e+09 1.37124e+09 1.37226e+09 1.40543e+09 1
000 314 1 0 1.41737e+09 1.41763e+09 1.41865e+09 1.42092e+09 1
000 315 2 0 1.4282e+09 1.42846e+09 1.42948e+09 1.47415e+09 0
001 316 1 0 1.47758e+09 1.47784e+09 1.47886e+09 1.47889e+09 0
000 317 1 0 1.48627e+09 1.48653e+09 1.48755e+09 1.48795e+09 1
000 318 1 0 1.4952e+09 1.49546e+09 1.49648e+09 1.51525e+09 1
000 319 1 0 1.52265e+09 1.5229e+09 1.52392e+09 1.53729e+09 1
000 320 1 0 1.54451e+09 1.54476e+09 1.54577e+09 1.55786e+09 0
000 321 2 1 1.5672e+09 1.56745e+09 1.56847e+09 1.57084e+09 0
000 322 2 0 1.58004e+09 1.58029e+09 1.58131e+09 1.58287e+09 0
001 323 2 0 1.58925e+09 1.58949e+09 1.59051e+09 1.59788e+09 0
001 324 1 0 1.60157e+09 1.60183e+09 1.60285e+09 1.60361e+09 0
000 325 1 0 1.61087e+09 1.61112e+09 1.61214e+09 1.67023e+09 1
000 326 1 0 1.67905e+09 1.67929e+09 1.68031e+09 1.68596e+09 1
000 327 1 0 1.69311e+09 1.69337e+09 1.69439e+09 1.72817e+09 1
000 328 2 0 1.73612e+09 1.73637e+09 1.73739e+09 1.85019e+09 0
001 329 2 0 1.85275e+09 1.85301e+09 1.85403e+09 1.9284e+09 0
001 330 2 0 1.93234e+09 1.93259e+09 1.93361e+09 1.93686e+09 0
001 331 2 0 1.93947e+09 1.93973e+09 1.94075e+09 1.98257e+09 0
001 332 1 0 1.98546e+09 1.98571e+09 1.98672e+09 1.98677e+09 0
000 333 1 0 1.99419e+09 1.99444e+09 1.99546e+09 2.00581e+09 1
000 334 1 1 2.01315e+09 2.0134e+09 2.01442e+09 2.02101e+09 1
001 335 1 0 2.02956e+09 2.02981e+09 2.03083e+09 2.03607e+09 0
000 336 1 0 2.0433e+09 2.04356e+09 2.04458e+09 2.05281e+09 1
000 337 1 1 2.06011e+09 2.06035e+09 2.06137e+09 2.09026e+09 1
001 338 1 0 2.09321e+09 2.09347e+09 2.09449e+09 2.1014e+09 0
000 339 1 1 2.10884e+09 2.10909e+09 2.11011e+09 2.11024e+09 1
001 340 1 1 2.11701e+09 2.11727e+09 2.11829e+09 2.13445e+09 0
001 341 2 1 2.13746e+09 2.13771e+09 2.13873e+09 2.16785e+09 0
000 342 2 1 2.17513e+09 2.17538e+09 2.1764e+09 2.28735e+09 1
000 343 2 0 2.30033e+09 2.30059e+09 2.30161e+09 2.33042e+09 1
001 344 1 0 2.33562e+09 2.33587e+09 2.33689e+09 2.35792e+09 0
000 345 1 0 2.36507e+09 2.36532e+09 2.36634e+09 2.42996e+09 1
000 346 1 0 2.43722e+09 2.43746e+09 2.43848e+09 2.51593e+09 1
000 347 1 1 2.52469e+09 2.52496e+09 2.52598e+09 2.55896e+09 1
001 348 1 0 2.5631e+09 2.56335e+09 2.56437e+09 2.56576e+09 0
000 349 1 1 2.57295e+09 2.5732e+09 2.57422e+09 2.58383e+09 1
001 