trial trialType response stillTime stimOnset stimOffset respTime correctionTrial correct
001 1 0 8.13569e+06 8.44455e+06 9.46369e+06 1.59033e+07 0 0
002 1 0 2.38817e+07 2.41545e+07 2.51737e+07 2.55731e+07 1 0
003 1 0 3.26902e+07 3.29634e+07 3.39825e+07 3.4648e+07 1 0
004 1 0 4.18447e+07 4.21098e+07 4.3129e+07 4.57124e+07 1 0
005 2 0 5.32367e+07 5.34879e+07 5.45071e+07 5.48876e+07 0 1
006 2 1 5.95692e+07 5.9823e+07 6.08421e+07 6.45986e+07 0 0
007 2 0 7.37454e+07 7.40044e+07 7.50235e+07 7.79991e+07 1 1
008 2 1 8.09216e+07 8.11757e+07 8.21948e+07 8.74603e+07 0 0
009 2 1 9.53457e+07 9.56037e+07 9.66228e+07 1.01305e+08 1 0
010 2 0 1.09248e+08 1.09499e+08 1.10518e+08 1.12335e+08 1 1
011 2 0 1.16775e+08 1.17035e+08 1.18054e+08 1.19527e+08 0 1
012 1 1 1.2362e+08 1.23872e+08 1.24892e+08 1.26686e+08 0 1
013 1 0 1.29724e+08 1.29988e+08 1.31008e+08 1.32784e+08 0 0
014 1 1 1.40979e+08 1.4123e+08 1.42249e+08 1.46631e+08 1 1
015 2 0 1.4966e+08 1.49908e+08 1.50927e+08 1.55603e+08 0 1
016 2 0 1.58146e+08 1.58405e+08 1.59424e+08 1.64691e+08 0 1
017 2 0 1.68203e+08 1.68457e+08 1.69476e+08 1.70758e+08 0 1
018 1 0 1.73558e+08 1.73824e+08 1.74843e+08 1.78774e+08 0 0
019 1 0 1.86152e+08 1.8641e+08 1.87429e+08 1.95078e+08 1 0
020 1 0 2.02222e+08 2.02483e+08 2.03502e+08 2.07493e+08 1 0
021 1 1 2.14857e+08 2.1511e+08 2.16129e+08 2.17728e+08 1 1
022 1 0 2.20465e+08 2.20708e+08 2.21727e+08 2.21866e+08 0 0
023 1 1 2.31676e+08 2.31926e+08 2.32945e+08 2.37161e+08 1 1
024 1 0 2.45504e+08 2.45749e+08 2.46768e+08 2.46817e+08 0 0
025 1 1 2.57125e+08 2.5739e+08 2.5841e+08 2.60138e+08 1 1
026 2 1 2.68585e+08 2.68844e+08 2.69863e+08 2.69871e+08 0 0
027 2 1 2.80894e+08 2.81145e+08 2.82164e+08 2.83886e+08 1 0
028 2 1 2.91396e+08 2.9166e+08 2.92679e+08 2.9603e+08 1 0
029 2 1 3.05759e+08 3.06013e+08 3.07032e+08 3.09226e+08 1 0
030 1 0 3.17382e+08 3.17639e+08 3.18658e+08 3.21582e+08 0 0
031 2 1 3.28778e+08 3.29031e+08 3.3005e+08 3.31997e+08 0 0
032 2 0 3.39432e+08 3.39683e+08 3.40702e+08 3.40731e+08 0 1
033 1 1 3.43268e+08 3.43531e+08 3.4455e+08 3.44564e+08 0 1
034 2 1 3.47326e+08 3.47587e+08 3.48607e+08 3.49315e+08 0 0
035 2 0 3.5978e+08 3.60024e+08 3.61044e+08 3.61366e+08 1 1
036 2 1 3.68244e+08 3.68492e+08 3.69511e+08 3.69526e+08 0 0
037 2 0 3.80005e+08 3.80255e+08 3.81274e+08 3.8425e+08 1 1
038 1 0 3.86976e+08 3.87231e+08 3.8825e+08 3.88297e+08 0 0
039 1 1 3.95807e+08 3.96063e+08 3.97082e+08 3.97127e+08 1 1
040 1 1 4.01059e+08 4.01305e+08 4.02324e+08 4.02425e+08 0 1
041 1 0 4.17605e+08 4.17864e+08 4.18884e+08 4.20737e+08 0 0
042 1 1 4.27952e+08 4.28205e+08 4.29224e+08 4.29348e+08 1 1
043 1 1 4.32306e+08 4.32565e+08 4.33584e+08 4.34331e+08 0 1
044 1 0 4.41875e+08 4.42127e+08 4.43146e+08 4.43465e+08 0 0
045 1 1 4.52084e+08 4.52338e+08 4.53358e+08 4.53365e+08 1 1
046 2 0 4.56173e+08 4.56425e+08 4.57444e+08 4.59296e+08 0 1
047 1 1 4.66634e+08 4.66888e+08 4.67908e+08 4.70651e+08 0 1
048 2 1 4.73843e+08 4.74095e+08 4.75114e+08 4.78061e+08 0 0
049 2 1 4.8615e+08 4.86412e+08 4.87431e+08 4.9034e+08 1 0
050 2 0 5.00863e+08 5.0112e+08 5.02139e+08 5.06995e+08 1 1
051 1 1 5.11624e+08 5.11873e+08 5.12892e+08 5.15931e+08 0 1
052 2 1 5.23211e+08 5.23463e+08 5.24482e+08 5.24619e+08 0 0
053 2 1 5.36299e+08 5.36556e+08 5.37575e+08 5.4014e+08 1 0
054 2 0 5.51901e+08 5.52155e+08 5.53174e+08 5.54448e+08 1 1
055 2 1 5.63725e+08 5.6398e+08 5.64999e+08 5.65481e+08 0 0
056 2 0 5.73142e+08 5.73396e+08 5.74415e+08 5.74893e+08 1 1
057 2 1 5.77603e+08 5.77856e+08 5.78875e+08 5.79118e+08 0 0
058 2 0 5.86371e+08 5.86613e+08 5.87632e+08 5.87771e+08 1 1
059 2 0 5.90379e+08 5.90642e+08 5.91661e+08 5.91719e+08 0 1
060 2 0 5.94754e+08 5.94999e+08 5.96018e+08 5.96136e+08 0 1
061 1 0 6.03174e+08 6.03431e+08 6.0445e+08 6.05059e+08 0 0
062 1 0 6.12262e+08 6.12523e+08 6.13542e+08 6.1598e+08 1 0
063 1 1 6.23068e+08 6.23326e+08 6.24345e+08 6.30558e+08 1 1
064 1 1 6.38262e+08 6.38513e+08 6.39532e+08 6.40138e+08 0 1
065 1 1 6.42999e+08 6.43262e+08 6.44282e+08 6.44543e+08 0 1
066 1 1 6.49702e+08 6.49959e+08 6.50978e+08 6.52332e+08 0 1
067 2 0 6.58987e+08 6.5924e+08 6.60259e+08 6.60277e+08 0 1
068 1 0 6.67135e+08 6.67395e+08 6.68414e+08 6.70218e+08 0 0
069 1 0 6.79448e+08 6.79708e+08 6.80727e+08 6.82403e+08 1 0
070 1 0 6.90613e+08 6.90874e+08 6.91893e+08 6.93114e+08 1 0
071 1 1 7.00449e+08 7.00691e+08 7.0171e+08 7.04252e+08 1 1
072 2 0 7.09377e+08 7.09631e+08 7.1065e+08 7.1089e+08 0 1
073 2 0 7.16546e+08 7.16796e+08 7.17815e+08 7.17927e+08 0 1
074 2 1 7.20403e+08 7.20669e+08 7.21688e+08 7.25568e+08 0 0
075 2 0 7.34081e+08 7.34331e+08 7.3535e+08 7.35774e+08 1 1
076 1 1 7.48403e+08 7.48659e+08 7.49678e+08 7.49812e+08 0 1
077 1 0 7.52357e+08 7.52616e+08 7.53635e+08 7.53825e+08 0 0
078 1 1 7.6283e+08 7.63093e+08 7.64112e+08 7.66818e+08 1 1
079 1 0 7.69816e+08 7.70078e+08 7.71097e+08 7.72112e+08 0 0
080 1 1 7.79331e+08 7.79581e+08 7.806e+08 7.80774e+08 1 1
081 2 0 7.83467e+08 7.83727e+08 7.84747e+08 7.84843e+08 0 1
082 1 1 7.94083e+08 7.94343e+08 7.95363e+08 7.95374e+08 0 1
083 1 0 7.97982e+08 7.98244e+08 7.99263e+08 7.99309e+08 0 0
084 1 1 8.06882e+08 8.0713e+08 8.08149e+08 8.08158e+08 1 1
085 1 1 8.11213e+08 8.11464e+08 8.12484e+08 8.12568e+08 0 1
086 2 1 8.18652e+08 8.18915e+08 8.19934e+08 8.20919e+08 0 0
087 2 0 8.29916e+08 8.30168e+08 8.31187e+08 8.32098e+08 1 1
088 1 1 8.36341e+08 8.36605e+08 8.37625e+08 8.37774e+08 0 1
089 2 1 8.43525e+08 8.43781e+08 8.44801e+08 8.45674e+08 0 0
090 2 1 8.56911e+08 8.57162e+08 8.58181e+08 8.58803e+08 1 0
091 2 1 8.68185e+08 8.68437e+08 8.69456e+08 8.71136e+08 1 0
092 2 1 8.80032e+08 8.80284e+08 8.81303e+08 8.88893e+08 1 0
093 2 1 8.97252e+08 8.97504e+08 8.98524e+08 9.03297e+08 0 0
094 2 1 9.13534e+08 9.13794e+08 9.14813e+08 9.16599e+08 0 0
095 2 1 9.23954e+08 9.24206e+08 9.25225e+08 9.26519e+08 0 0
096 1 0 9.33673e+08 9.33931e+08 9.3495e+08 9.36323e+08 0 0
097 2 1 9.43644e+08 9.43889e+08 9.44909e+08 9.46409e+08 0 0
098 2 1 9.53869e+08 9.54126e+08 9.55145e+08 9.56467e+08 0 0
099 2 1 9.6526e+08 9.65511e+08 9.6653e+08 9.69768e+08 0 0
100 1 1 9.78466e+08 9.78725e+08 9.79744e+08 9.82574e+08 0 1
101 2 0 9.86854e+08 9.87114e+08 9.88133e+08 9.8824e+08 0 1
102 1 1 9.91427e+08 9.91679e+08 9.92699e+08 9.92741e+08 0 1
103 2 1 9.95581e+08 9.95845e+08 9.96864e+08 9.99905e+08 0 0
104 2 1 1.00727e+09 1.00753e+09 1.00855e+09 1.0088e+09 1 0
105 2 1 1.01597e+09 1.01622e+09 1.01724e+09 1.01867e+09 1 0
106 2 0 1.02606e+09 1.02631e+09 1.02733e+09 1.03201e+09 1 1
107 2 0 1.03477e+09 1.03503e+09 1.03605e+09 1.0374e+09 0 1
108 2 1 1.0404e+09 1.04066e+09 1.04168e+09 1.04239e+09 0 0
109 2 1 1.04971e+09 1.04998e+09 1.051e+09 1.05327e+09 1 0
110 2 0 1.06071e+09 1.06099e+09 1.06201e+09 1.07527e+09 1 1
111 2 1 1.07794e+09 1.0782e+09 1.07922e+09 1.07993e+09 0 0
112 2 1 1.08751e+09 1.08775e+09 1.08877e+09 1.08993e+09 1 0
113 2 1 1.09721e+09 1.09746e+09 1.09848e+09 1.10122e+09 1 0
114 2 1 1.10988e+09 1.11015e+09 1.11117e+09 1.11142e+09 1 0
115 2 1 1.11876e+09 1.11902e+09 1.12004e+09 1.12071e+09 0 0
116 2 0 1.12862e+09 1.12887e+09 1.12989e+09 1.13212e+09 0 1
117 1 0 1.13484e+09 1.1351e+09 1.13612e+09 1.13614e+09 0 0
118 1 1 1.14356e+09 1.14382e+09 1.14484e+09 1.14716e+09 1 1
119 2 1 1.15013e+09 1.15038e+09 1.1514e+09 1.15288e+09 0 0
120 2 0 1.16108e+09 1.16133e+09 1.16235e+09 1.16491e+09 1 1
121 1 1 1.17336e+09 1.17361e+09 1.17463e+09 1.17656e+09 0 1
122 2 1 1.17911e+09 1.17938e+09 1.1804e+09 1.18056e+09 0 0
123 2 1 1.19062e+09 1.19087e+09 1.19189e+09 1.19267e+09 1 0
124 2 1 1.19971e+09 1.19996e+09 1.20098e+09 1.20145e+09 1 0
125 2 0 1.2108e+09 1.21106e+09 1.21208e+09 1.21543e+09 1 1
126 2 1 1.22489e+09 1.22515e+09 1.22617e+09 1.22821e+09 0 0
127 2 0 1.23657e+09 1.23682e+09 1.23784e+09 1.24083e+09 1 1
128 1 1 1.24335e+09 1.2436e+09 1.24462e+09 1.24487e+09 0 1
129 2 0 1.24737e+09 1.24761e+09 1.24863e+09 1.24891e+09 0 1
130 2 1 1.25186e+09 1.25211e+09 1.25313e+09 1.25429e+09 0 0
131 2 0 1.26175e+09 1.262e+09 1.26302e+09 1.26543e+09 1 1
132 1 1 1.2702e+09 1.27046e+09 1.27148e+09 1.27605e+09 0 1
133 2 1 1.27861e+09 1.27887e+09 1.27989e+09 1.27992e+09 0 0
134 2 1 1.2891e+09 1.28936e+09 1.29037e+09 1.29301e+09 1 0
135 2 1 1.301e+09 1.30126e+09 1.30227e+09 1.30331e+09 1 0
136 2 1 1.31068e+09 1.31093e+09 1.31195e+09 1.31248e+09 1 0
137 1 1 1.32141e+09 1.32166e+09 1.32268e+09 1.32467e+09 0 1
138 2 1 1.32742e+09 1.32768e+09 1.3287e+09 1.33047e+09 0 0
139 2 0 1.33844e+09 1.33869e+09 1.33971e+09 1.33975e+09 1 1
140 2 1 1.34331e+09 1.34358e+09 1.3446e+09 1.34776e+09 0 0
141 2 0 1.35488e+09 1.35514e+09 1.35616e+09 1.35676e+09 1 1
142 1 1 1.35957e+09 1.35983e+09 1.36085e+09 1.36096e+09 0 1
143 1 1 1.36368e+09 1.36394e+09 1.36496e+09 1.36529e+09 0 1
144 1 0 1.36785e+09 1.36811e+09 1.36913e+09 1.36976e+09 0 0
145 1 0 1.37712e+09 1.37737e+09 1.37839e+09 1.37846e+09 1 0
146 1 1 1.39084e+09 1.39109e+09 1.39211e+09 1.39345e+09 1 1
147 1 0 1.39753e+09 1.39777e+09 1.39879e+09 1.3988e+09 0 0
148 1 0 1.40601e+09 1.40626e+09 1.40728e+09 1.40991e+09 1 0
149 1 1 1.41808e+09 1.41834e+09 1.41936e+09 1.424e+09 1 1
150 1 0 1.42649e+09 1.42676e+09 1.42778e+09 1.42781e+09 0 0
151 1 0 1.43624e+09 1.43649e+09 1.43751e+09 1.43753e+09 1 0
152 1 1 1.44465e+09 1.44491e+09 1.44592e+09 1.44617e+09 1 1
153 1 1 1.45011e+09 1.45037e+09 1.45139e+09 1.45146e+09 0 1
154 1 0 1.45657e+09 1.45682e+09 1.45784e+09 1.46061e+09 0 0
155 1 0 1.46945e+09 1.4697e+09 1.47072e+09 1.4708e+09 1 0
156 1 0 1.4784e+09 1.47866e+09 1.47968e+09 1.48295e+09 1 0
157 1 1 1.49098e+09 1.49123e+09 1.49225e+09 1.49455e+09 1 1
158 1 0 1.49853e+09 1.49879e+09 1.4998e+09 1.50319e+09 0 0
159 1 1 1.51145e+09 1.5117e+09 1.51272e+09 1.51535e+09 1 1
160 2 1 1.51796e+09 1.51821e+09 1.51923e+09 1.52052e+09 0 0
161 2 0 1.52917e+09 1.52943e+09 1.53045e+09 1.53579e+09 1 1
162 1 1 1.53963e+09 1.53988e+09 1.5409e+09 1.54525e+09 0 1
163 1 1 1.55178e+09 1.55204e+09 1.55306e+09 1.55321e+09 0 1
164 1 0 1.55597e+09 1.55622e+09 1.55724e+09 1.5633e+09 0 0
165 1 1 1.57225e+09 1.5725e+09 1.57352e+09 1.57741e+09 1 1
166 1 1 1.58002e+09 1.58027e+09 1.58129e+09 1.58267e+09 0 1
167 1 0 1.58539e+09 1.58563e+09 1.58665e+09 1.59195e+09 0 0
168 1 0 1.59933e+09 1.59959e+09 1.60061e+09 1.60295e+09 1 0
169 1 0 1.61036e+09 1.61062e+09 1.61164e+09 1.61441e+09 1 0
170 1 0 1.62149e+09 1.62174e+09 1.62276e+09 1.62277e+09 1 0
171 1 0 1.63009e+09 1.63035e+09 1.63137e+09 1.63237e+09 0 0
172 2 1 1.63985e+09 1.64011e+09 1.64113e+09 1.64248e+09 0 0
173 1 0 1.65107e+09 1.65134e+09 1.65235e+09 1.65359e+09 0 0
174 2 0 1.66092e+09 1.66117e+09 1.66219e+09 1.66554e+09 0 1
175 1 1 1.66838e+09 1.66863e+09 1.66965e+09 1.6697e+09 0 1
176 1 1 1.6723e+09 1.67256e+09 1.67358e+09 1.67554e+09 0 1
177 2 1 1.67808e+09 1.67835e+09 1.67937e+09 1.68723e+09 0 0
178 2 0 1.69443e+09 1.69467e+09 1.69569e+09 1.70251e+09 1 1
179 1 0 1.70789e+09 1.70814e+09 1.70916e+09 1.71214e+09 0 0
180 1 0 1.72039e+09 1.72064e+09 1.72166e+09 1.72323e+09 1 0
181 1 0 1.73145e+09 1.73169e+09 1.73271e+09 1.73606e+09 1 0
182 1 1 1.74479e+09 1.74505e+09 1.74607e+09 1.74881e+09 1 1
183 2 1 1.75334e+09 1.7536e+09 1.75462e+09 1.75579e+09 0 0
184 2 1 1.76464e+09 1.76489e+09 1.76591e+09 1.76677e+09 1 0
185 2 0 1.77546e+09 1.77571e+09 1.77673e+09 1.77885e+09 1 1
186 2 1 1.78172e+09 1.78197e+09 1.78299e+09 1.7839e+09 0 0
187 2 1 1.79143e+09 1.79169e+09 1.79271e+09 1.79544e+09 1 0
188 2 0 1.80285e+09 1.8031e+09 1.80412e+09 1.80434e+09 1 1
189 1 1 1.80696e+09 1.80721e+09 1.80823e+09 1.81297e+09 0 1
190 2 1 1.81589e+09 1.81614e+09 1.81716e+09 1.81727e+09 0 0
191 2 0 1.82545e+09 1.8257e+09 1.82672e+09 1.83057e+09 1 1
192 1 0 1.83441e+09 1.83468e+09 1.8357e+09 1.84203e+09 0 0
193 1 0 1.8493e+09 1.84955e+09 1.85057e+09 1.85351e+09 1 0
194 1 1 1.86469e+09 1.86494e+09 1.86596e+09 1.86858e+09 1 1
195 1 1 1.8712e+09 1.87144e+09 1.87246e+09 1.87256e+09 0 1
196 1 0 1.87709e+09 1.87734e+09 1.87836e+09 1.88492e+09 0 0
197 1 0 1.89239e+09 1.89265e+09 1.89367e+09 1.89663e+09 1 0
198 1 1 1.90386e+09 1.90411e+09 1.90513e+09 1.9073e+09 1 1
199 2 1 1.90997e+09 1.91023e+09 1.91125e+09 1.91219e+09 0 0
200 2 1 1.91937e+09 1.91962e+09 1.92064e+09 1.92411e+09 1 0
201 2 1 1.93138e+09 1.93162e+09 1.93264e+09 1.933e+09 1 0
202 2 0 1.94365e+09 1.9439e+09 1.94492e+09 1.94634e+09 1 1
203 1 0 1.94974e+09 1.94999e+09 1.95101e+09 1.95765e+09 0 0
204 1 1 1.96508e+09 1.96533e+09 1.96635e+09 1.96908e+09 1 1
205 2 1 1.97178e+09 1.97202e+09 1.97304e+09 1.97659e+09 0 0
206 2 0 1.98395e+09 1.9842e+09 1.98522e+09 1.98952e+09 1 1
207 2 1 1.99534e+09 1.99559e+09 1.9966e+09 1.99688e+09 0 0
208 2 0 2.00602e+09 2.00626e+09 2.00728e+09 2.00947e+09 1 1
209 2 1 2.01213e+09 2.01238e+09 2.0134e+09 2.01394e+09 0 0
210 2 1 2.02285e+09 2.02311e+09 2.02413e+09 2.02499e+09 1 0
211 2 1 2.03307e+09 2.03334e+09 2.03436e+09 2.03768e+09 1 0
212 2 1 2.04593e+09 2.04618e+09 2.0472e+09 2.04878e+09 1 0
213 1 1 2.05732e+09 2.05757e+09 2.05859e+09 2.0614e+09 0 1
214 2 0 2.0641e+09 2.06435e+09 2.06537e+09 2.07013e+09 0 1
215 2 1 2.07279e+09 2.07305e+09 2.07407e+09 2.07427e+09 0 0
216 2 1 2.08167e+09 2.08193e+09 2.08295e+09 2.08621e+09 1 0
217 2 1 2.09453e+09 2.09479e+09 2.09581e+09 2.09752e+09 1 0
218 2 1 2.10604e+09 2.10628e+09 2.1073e+09 2.10851e+09 1 0
219 2 0 2.11632e+09 2.11658e+09 2.1176e+09 2.1201e+09 0 1
220 1 1 2.12366e+09 2.12393e+09 2.12494e+09 2.12631e+09 0 1
221 1 1 2.12914e+09 2.12939e+09 2.13041e+09 2.13049e+09 0 1
222 1 0 2.13335e+09 2.1336e+09 2.13462e+09 2.13481e+09 0 0
223 1 1 2.14408e+09 2.14435e+09 2.14537e+09 2.14538e+09 1 1
224 2 1 2.14816e+09 2.14842e+09 2.14944e+09 2.14949e+09 0 0
225 2 0 2.15678e+09 2.15702e+09 2.15804e+09 2.15991e+09 1 1
226 2 1 2.16284e+09 2.1631e+09 2.16412e+09 2.16418e+09 0 0
227 2 0 2.17285e+09 2.1731e+09 2.17411e+09 2.17683e+09 1 1
228 2 1 2.18377e+09 2.18402e+09 2.18504e+09 2.18818e+09 0 0
229 2 0 2.19527e+09 2.19553e+09 2.19655e+09 2.1996e+09 1 1
230 1 0 2.20239e+09 2.20266e+09 2.20368e+09 2.20428e+09 0 0
231 1 0 2.21309e+09 2.21334e+09 2.21436e+09 2.21778e+09 1 0
232 1 1 2.22488e+09 2.22515e+09 2.22617e+09 2.22677e+09 1 1
233 1 0 2.22935e+09 2.2296e+09 2.23062e+09 2.23124e+09 0 0
234 1 0 2.2395e+09 2.23976e+09 2.24078e+09 2.24374e+09 1 0
235 1 1 2.25194e+09 2.2522e+09 2.25322e+09 2.25326e+09 1 1
236 1 0 2.2563e+09 2.25655e+09 2.25757e+09 2.26078e+09 0 0
237 1 0 2.26937e+09 2.26963e+09 2.27065e+09 2.27601e+09 1 0
238 1 0 2.28468e+09 2.28492e+09 2.28594e+09 2.28966e+09 1 0
239 1 1 2.2969e+09 2.29715e+09 2.29817e+09 2.29822e+09 1 1
240 2 1 2.301e+09 2.30124e+09 2.30226e+09 2.30239e+09 0 0
241 2 0 2.30961e+09 2.30986e+09 2.31088e+09 2.3109e+09 1 1
242 2 0 2.31384e+09 2.31409e+09 2.31511e+09 2.31566e+09 0 1
243 1 1 2.32168e+09 2.32193e+09 2.32295e+09 2.32588e+09 0 1
244 2 0 2.32839e+09 2.32865e+09 2.32967e+09 2.33095e+09 0 1
245 1 1 2.33912e+09 2.33937e+09 2.34039e+09 2.34041e+09 0 1
246 1 0 2.344e+09 2.34426e+09 2.34528e+09 2.35111e+09 0 0
247 1 1 2.35833e+09 2.35858e+09 2.3596e+09 2.3628e+09 1 1
248 2 0 2.36547e+09 2.36572e+09 2.36674e+09 2.36675e+09 0 1
249 2 0 2.36952e+09 2.36976e+09 2.37078e+09 2.37116e+09 0 1
250 2 0 2.37554e+09 2.37578e+09 2.3768e+09 2.37769e+09 0 1
251 1 1 2.38412e+09 2.38438e+09 2.3854e+09 2.38697e+09 0 1
252 2 1 2.39253e+09 2.39279e+09 2.39381e+09 2.39683e+09 0 0
253 2 1 2.40416e+09 2.40442e+09 2.40544e+09 2.40564e+09 1 0
254 2 0 2.41365e+09 2.41391e+09 2.41493e+09 2.42191e+09 1 1
255 1 0 2.42457e+09 2.42483e+09 2.42585e+09 2.42625e+09 0 0
256 1 0 2.43601e+09 2.43626e+09 2.43728e+09 2.43823e+09 1 0
257 1 0 2.44897e+09 2.44922e+09 2.45024e+09 2.45117e+09 1 0
258 1 0 2.45844e+09 2.45869e+09 2.45971e+09 2.4634e+09 1 0
259 2 0 2.47054e+09 2.4708e+09 2.47182e+09 2.47384e+09 0 1
260 1 1 2.47636e+09 2.47661e+09 2.47763e+09 2.47764e+09 0 1
261 1 1 2.48058e+09 2.48083e+09 2.48185e+09 2.48186e+09 0 1
262 2 1 2.48744e+09 2.48769e+09 2.48871e+09 2.49036e+09 0 0
263 2 0 2.4974e+09 2.49765e+09 2.49867e+09 2.49908e+09 1 1
264 2 0 2.50507e+09 2.50533e+09 2.50635e+09 2.50762e+09 0 1
265 1 0 2.51331e+09 2.51356e+09 2.51458e+09 2.51488e+09 0 0
266 1 0 2.52372e+09 2.52398e+09 2.525e+09 2.52806e+09 1 0
267 1 0 2.53678e+09 2.53704e+09 2.53806e+09 2.53823e+09 1 0
268 1 1 2.5467e+09 2.54695e+09 2.54797e+09 2.54864e+09 1 1
269 1 0 2.55241e+09 2.55267e+09 2.55369e+09 2.55736e+09 0 0
270 1 0 2.56483e+09 2.56507e+09 2.56609e+09 2.56832e+09 1 0
271 1 1 2.57976e+09 2.58001e+09 2.58103e+09 2.5852e+09 1 1
272 1 1 2.59003e+09 2.59028e+09 2.5913e+09 2.59131e+09 0 1
273 1 0 2.59402e+09 2.59427e+09 2.59529e+09 2.59947e+09 0 0
274 1 0 2.6087e+09 2.60895e+09 2.60997e+09 2.60999e+09 1 0
275 1 0 2.6171e+09 2.61736e+09 2.61838e+09 2.6186e+09 1 0
276 1 0 2.62573e+09 2.62598e+09 2.627e+09 2.62771e+09 1 0
277 2 0 2.63637e+09 2.63662e+09 2.63764e+09 2.63791e+09 0 1
278 2 0 2.64061e+09 2.64087e+09 2.64189e+09 2.64192e+09 0 1
279 2 0 2.64448e+09 2.64474e+09 2.64576e+09 2.64597e+09 0 1
280 2 0 2.64863e+09 2.6489e+09 2.64992e+09 2.64992e+09 0 1
281 1 0 2.65519e+09 2.65544e+09 2.65646e+09 2.66398e+09 0 0
282 1 1 2.67146e+09 2.67171e+09 2.67273e+09 2.67571e+09 1 1
283 1 0 2.68117e+09 2.68143e+09 2.68244e+09 2.68487e+09 0 0
284 1 0 2.69285e+09 2.69311e+09 2.69413e+09 2.69657e+09 1 0
285 1 0 2.707e+09 2.70725e+09 2.70827e+09 2.70833e+09 1 0
286 1 1 2.71575e+09 2.716e+09 2.71702e+09 2.71704e+09 1 1
287 2 1 2.71981e+09 2.72007e+09 2.72108e+09 2.72119e+09 0 0
288 2 0 2.72939e+09 2.72964e+09 2.73066e+09 2.73238e+09 1 1
289 1 1 2.73819e+09 2.73843e+09 2.73945e+09 2.73946e+09 0 1
290 2 0 2.74216e+09 2.74242e+09 2.74344e+09 2.74361e+09 0 1
291 1 0 2.74633e+09 2.74657e+09 2.74759e+09 2.74778e+09 0 0
292 1 0 2.75494e+09 2.75518e+09 2.7562e+09 2.76045e+09 1 0
293 1 0 2.76753e+09 2.76778e+09 2.7688e+09 2.76883e+09 1 0
294 1 0 2.78003e+09 2.78028e+09 2.7813e+09 2.78425e+09 1 0
295 2 1 2.79363e+09 2.79388e+09 2.7949e+09 2.79748e+09 0 0
296 1 0 2.80467e+09 2.80492e+09 2.80594e+09 2.80904e+09 0 0
297 2 0 2.8164e+09 2.81665e+09 2.81767e+09 2.81987e+09 0 1
298 1 0 2.82966e+09 2.82991e+09 2.83092e+09 2.83273e+09 0 0
299 1 1 2.84182e+09 2.84207e+09 2.84308e+09 2.84339e+09 1 1
300 1 0 2.84844e+09 2.8487e+09 2.84972e+09 2.85209e+09 0 0
301 1 1 2.85917e+09 2.85943e+09 2.86045e+09 2.8613e+09 1 1
302 1 1 2.86656e+09 2.8668e+09 2.86782e+09 2.86783e+09 0 1
303 1 0 2.87206e+09 2.87232e+09 2.87333e+09 2.87527e+09 0 0
304 1 1 2.88339e+09 2.88364e+09 2.88466e+09 2.88501e+09 1 1
305 2 0 2.8897e+09 2.88995e+09 2.89097e+09 2.89099e+09 0 1
306 1 1 2.90172e+09 2.90198e+09 2.90299e+09 2.90302e+09 0 1
307 2 0 2.90814e+09 2.90839e+09 2.90941e+09 2.90953e+09 0 1
308 1 0 2.91703e+09 2.91728e+09 2.9183e+09 2.92104e+09 0 0
309 1 1 2.92859e+09 2.92884e+09 2.92986e+09 2.92999e+09 1 1
310 2 0 2.93516e+09 2.93541e+09 2.93643e+09 2.93679e+09 0 1
311 1 1 2.94447e+09 2.94472e+09 2.94574e+09 2.94579e+09 0 1
312 1 0 2.95373e+09 2.95399e+09 2.95501e+09 2.95562e+09 0 0
313 1 0 2.96271e+09 2.96297e+09 2.96399e+09 2.96654e+09 1 0
314 1 0 2.97365e+09 2.9739e+09 2.97492e+09 2.97517e+09 1 0
315 1 0 2.98238e+09 2.98263e+09 2.98365e+09 2.98437e+09 1 0
316 1 0 2.99171e+09 2.99198e+09 2.993e+09 2.99307e+09 0 0
317 1 1 3.00079e+09 3.00104e+09 3.00206e+09 3.00247e+09 0 1
318 2 1 3.01002e+09 3.01028e+09 3.0113e+09 3.01482e+09 0 0
319 2 0 3.02358e+09 3.02383e+09 3.02485e+09 3.02578e+09 1 1
320 2 0 3.03165e+09 3.03191e+09 3.03293e+09 3.03533e+09 0 1
321 1 0 3.04445e+09 3.0447e+09 3.04572e+09 3.04667e+09 0 0
322 1 0 3.05621e+09 3.05646e+09 3.05748e+09 3.06214e+09 1 0
323 1 1 3.07206e+09 3.07232e+09 3.07334e+09 3.07335e+09 1 1
324 2 1 3.07603e+09 3.07629e+09 3.07731e+09 3.07735e+09 0 0
325 2 1 3.08461e+09 3.08486e+09 3.08588e+09 3.08671e+09 1 0
326 2 1 3.09491e+09 3.09517e+09 3.09618e+09 3.09765e+09 1 0
327 2 0 3.10674e+09 3.10698e+09 3.108e+09 3.10832e+09 1 1
328 2 0 3.11104e+09 3.1113e+09 3.11232e+09 3.11427e+09 0 1
329 1 0 3.11988e+09 3.12013e+09 3.12115e+09 3.12332e+09 0 0
330 1 0 3.13068e+09 3.13094e+09 3.13196e+09 3.13332e+09 1 0
331 1 1 3.14247e+09 3.14273e+09 3.14375e+09 3.14383e+09 1 1
332 2 0 3.14673e+09 3.14699e+09 3.14801e+09 3.14801e+09 0 1
333 1 1 3.15503e+09 3.15529e+09 3.15631e+09 3.15891e+09 0 1
334 1 0 3.16326e+09 3.16351e+09 3.16453e+09 3.16749e+09 0 0
335 1 0 3.17488e+09 3.17513e+09 3.17615e+09 3.17851e+09 1 0
336 1 0 3.18833e+09 3.18858e+09 3.1896e+09 3.18968e+09 1 0
337 1 0 3.19697e+09 3.19722e+09 3.19824e+09 3.20023e+09 1 0
338 1 1 3.20972e+09 3.20997e+09 3.21099e+09 3.21101e+09 0 1
339 2 1 3.21393e+09 3.21418e+09 3.2152e+09 3.21648e+09 0 0
340 2 0 3.22505e+09 3.2253e+09 3.22632e+09 3.22905e+09 1 1
341 2 1 3.23206e+09 3.23231e+09 3.23333e+09 3.23978e+09 0 0
342 2 0 3.24705e+09 3.24731e+09 3.24833e+09 3.2486e+09 1 1
343 1 0 3.2516e+09 3.25185e+09 3.25287e+09 3.2544e+09 0 0
344 1 0 3.26148e+09 3.26172e+09 3.26274e+09 3.27087e+09 1 0
345 1 1 3.27973e+09 3.27998e+09 3.281e+09 3.28107e+09 1 1
346 2 1 3.28386e+09 3.28411e+09 3.28513e+09 3.28515e+09 0 0
347 2 1 3.2931e+09 3.29335e+09 3.29437e+09 3.29801e+09 1 0
348 2 0 3.30547e+09 3.30573e+09 3.30675e+09 3.32598e+09 1 1
349 2 1 3.32879e+09 3.32904e+09 3.33006e+09 3.33008e+09 0 0
350 2 0 3.33757e+09 3.33783e+09 3.33885e+09 3.35027e+09 1 1
351 2 1 3.35598e+09 3.35623e+09 3.35725e+09 3.35727e+09 0 0
352 2 0 3.36443e+09 3.36468e+09 3.3657e+09 3.3713e+09 1 1
353 2 0 3.37706e+09 3.3773e+09 3.37832e+09 3.3823e+09 0 1
354 1 0 3.38518e+09 3.38544e+09 3.38646e+09 3.38929e+09 0 0
355 1 1 3.39702e+09 3.39727e+09 3.39829e+09 3.39841e+09 1 1
356 2 0 3.40134e+09 3.40159e+09 3.40261e+09 3.40395e+09 0 1
357 2 1 3.40958e+09 3.40984e+09 3.41085e+09 3.41294e+09 0 0
358 2 0 3.42256e+09 3.42281e+09 3.42383e+09 3.42443e+09 1 1
359 1 1 3.42718e+09 3.42743e+09 3.42845e+09 3.42914e+09 0 1
360 2 1 3.43167e+09 3.43192e+09 3.43294e+09 3.43318e+09 0 0
361 2 1 3.44142e+09 3.44166e+09 3.44268e+09 3.44274e+09 1 0
362 2 0 3.44989e+09 3.45014e+09 3.45116e+09 3.45221e+09 1 1
363 2 1 3.45515e+09 3.4554e+09 3.45642e+09 3.4567e+09 0 0
364 2 0 3.46387e+09 3.46412e+09 3.46513e+09 3.46811e+09 1 1
365 1 1 3.47105e+09 3.4713e+09 3.47232e+09 3.47249e+09 0 1
366 2 1 3.47552e+09 3.47577e+09 3.47679e+09 3.47682e+09 0 0
367 2 0 3.4854e+09 3.48565e+09 3.48667e+09 3.48728e+09 1 1
368 1 0 3.49402e+09 3.49429e+09 3.49531e+09 3.49601e+09 0 0
369 1 1 3.50511e+09 3.50537e+09 3.50639e+09 3.50661e+09 1 1
370 2 0 3.5108e+09 3.51106e+09 3.51208e+09 3.5123e+09 0 1
371 1 0 3.5202e+09 3.52046e+09 3.52148e+09 3.52191e+09 0 0
372 1 0 3.52905e+09 3.5293e+09 3.53032e+09 3.53036e+09 1 0
373 1 0 3.53765e+09 3.53791e+09 3.53893e+09 3.53902e+09 1 0
374 1 1 3.54645e+09 3.5467e+09 3.54772e+09 3.54776e+09 1 1
375 1 1 3.55043e+09 3.55069e+09 3.55171e+09 3.55184e+09 0 1
376 1 0 3.55612e+09 3.55638e+09 3.5574e+09 3.55748e+09 0 0
377 1 0 3.56493e+09 3.56518e+09 3.5662e+09 3.56943e+09 1 0
378 1 1 3.5769e+09 3.57716e+09 3.57818e+09 3.57819e+09 1 1
379 1 0 3.58103e+09 3.58129e+09 3.58231e+09 3.58381e+09 0 0
380 1 0 3.59097e+09 3.59123e+09 3.59225e+09 3.60088e+09 1 0
381 1 1 3.60839e+09 3.60864e+09 3.60966e+09 3.60969e+09 1 1
382 1 0 3.61233e+09 3.61258e+09 3.6136e+09 3.61372e+09 0 0
383 1 0 3.62225e+09 3.62249e+09 3.62351e+09 3.62369e+09 1 0
384 1 1 3.63115e+09 3.6314e+09 3.63242e+09 3.63252e+09 1 1
385 2 0 3.63548e+09 3.63575e+09 3.63677e+09 3.63685e+09 0 1
386 2 0 3.63963e+09 3.63988e+09 3.64089e+09 3.64205e+09 0 1
387 2 0 3.64729e+09 3.64755e+09 3.64857e+09 3.65037e+09 0 1
388 1 1 3.65579e+09 3.65604e+09 3.65706e+09 3.65926e+09 0 1
389 2 1 3.66335e+09 3.66361e+09 3.66463e+09 3.66641e+09 0 0
390 2 0 3.67409e+09 3.67434e+09 3.67536e+09 3.67563e+09 1 1
391 2 0 3.6782e+09 3.67845e+09 3.67947e+09 3.67951e+09 0 1
392 1 0 3.68467e+09 3.68492e+09 3.68594e+09 3.68801e+09 0 0
393 1 0 3.69819e+09 3.69844e+09 3.69946e+09 3.70209e+09 1 0
394 1 0 3.71073e+09 3.71098e+09 3.71199e+09 3.71544e+09 1 0
395 1 0 3.72331e+09 3.72356e+09 3.72458e+09 3.73026e+09 1 0
396 2 1 3.7424e+09 3.74265e+09 3.74367e+09 3.74461e+09 0 0
397 2 0 3.75196e+09 3.75222e+09 3.75324e+09 3.75596e+09 0 1
398 2 0 3.75886e+09 3.7591e+09 3.76012e+09 3.76156e+09 0 1
399 1 0 3.76896e+09 3.76921e+09 3.77023e+09 3.77443e+09 0 0
400 1 0 3.78349e+09 3.78374e+09 3.78476e+09 3.78483e+09 1 0
401 1 0 3.79191e+09 3.79216e+09 3.79318e+09 3.79798e+09 1 0
402 1 1 3.80587e+09 3.80613e+09 3.80715e+09 3.80731e+09 1 1
403 2 1 3.81307e+09 3.81333e+09 3.81435e+09 3.81438e+09 0 0
404 2 1 3.82169e+09 3.82194e+09 3.82296e+09 3.82298e+09 1 0
405 2 0 3.833e+09 3.83326e+09 3.83428e+09 3.83492e+09 1 1
406 2 0 3.84525e+09 3.8455e+09 3.84652e+09 3.848e+09 0 1
407 1 0 3.851e+09 3.85126e+09 3.85228e+09 3.853e+09 0 0
408 1 0 3.86049e+09 3.86073e+09 3.86175e+09 3.86176e+09 1 0
409 1 1 3.87005e+09 3.87029e+09 3.87131e+09 3.87322e+09 1 1
410 2 0 3.88013e+09 3.88039e+09 3.88141e+09 3.88147e+09 0 1
411 1 0 3.88576e+09 3.88602e+09 3.88704e+09 3.88886e+09 0 0
412 1 0 3.89888e+09 3.89913e+09 3.90015e+09 3.90531e+09 1 0
413 1 1 3.91484e+09 3.9151e+09 3.91612e+09 3.91731e+09 1 1
414 1 1 3.92084e+09 3.92109e+09 3.92211e+09 3.92212e+09 0 1
415 1 0 3.92489e+09 3.92515e+09 3.92616e+09 3.93682e+09 0 0
416 1 1 3.94587e+09 3.94613e+09 3.94715e+09 3.94721e+09 1 1
417 1 0 3.94996e+09 3.95021e+09 3.95123e+09 3.95152e+09 0 0
418 1 0 3.95867e+09 3.95892e+09 3.95994e+09 3.96234e+09 1 0
419 1 0 3.97029e+09 3.97055e+09 3.97157e+09 3.97189e+09 1 0
420 1 1 3.98127e+09 3.98152e+09 3.98254e+09 3.98283e+09 1 1
421 2 0 3.98559e+09 3.98585e+09 3.98687e+09 3.98723e+09 0 1
422 1 0 3.99326e+09 3.99351e+09 3.99453e+09 3.99923e+09 0 0
423 1 0 4.00993e+09 4.0102e+09 4.01122e+09 4.01476e+09 1 0
424 1 0 4.02208e+09 4.02232e+09 4.02334e+09 4.02357e+09 1 0
425 1 1 4.03068e+09 4.03094e+09 4.03196e+09 4.03198e+09 1 1
426 1 0 4.03698e+09 4.03723e+09 4.03825e+09 4.03873e+09 0 0
427 1 1 4.04586e+09 4.04611e+09 4.04713e+09 4.04799e+09 1 1
428 2 0 4.05077e+09 4.05102e+09 4.05203e+09 4.0523e+09 0 1
429 1 0 4.05781e+09 4.05806e+09 4.05908e+09 4.06214e+09 0 0
430 1 1 4.07092e+09 4.07116e+09 4.07218e+09 4.07377e+09 1 1
431 2 0 4.07635e+09 4.07661e+09 4.07763e+09 4.07814e+09 0 1
432 2 0 4.08097e+09 4.08123e+09 4.08225e+09 4.08308e+09 0 1
433 2 1 4.0883e+09 4.08856e+09 4.08958e+09 4.09177e+09 0 0
434 2 0 4.0989e+09 4.09916e+09 4.10018e+09 4.10109e+09 1 1
435 2 1 4.10637e+09 4.10662e+09 4.10764e+09 4.10789e+09 0 0
436 2 1 4.1152e+09 4.11545e+09 4.11647e+09 4.11658e+09 1 0
437 2 0 4.12587e+09 4.12613e+09 4.12714e+09 4.12717e+09 1 1
438 1 1 4.13408e+09 4.13434e+09 4.13536e+09 4.13938e+09 0 1
439 2 0 4.14581e+09 4.14607e+09 4.14709e+09 4.14727e+09 0 1
440 2 0 4.15268e+09 4.15292e+09 4.15394e+09 4.15814e+09 0 1
441 1 0 4.16098e+09 4.16122e+09 4.16224e+09 4.16226e+09 0 0
442 1 0 4.17109e+09 4.17135e+09 4.17236e+09 4.17894e+09 1 0
443 1 1 4.18684e+09 4.1871e+09 4.18812e+09 4.18818e+09 1 1
444 1 0 4.19082e+09 4.19107e+09 4.19209e+09 4.1921e+09 0 0
445 1 1 4.19913e+09 4.19938e+09 4.20039e+09 4.20601e+09 1 1
446 2 1 4.21036e+09 4.21062e+09 4.21164e+09 4.21181e+09 0 0
447 2 0 4.21917e+09 4.21944e+09 4.22046e+09 4.22058e+09 1 1
448 1 0 4.22331e+09 4.22356e+09 4.22458e+09 4.22646e+09 0 0
449 1 1 4.23486e+09 4.23512e+09 4.23614e+09 4.23843e+09 1 1
450 2 0 4.24097e+09 4.24123e+09 4.24224e+09 4.24244e+09 0 1
451 2 1 4.24515e+09 4.24541e+09 4.24643e+09 4.24644e+09 0 0
452 2 0 4.25496e+09 4.2552e+09 4.25622e+09 4.25929e+09 1 1
453 1 0 4.26227e+09 4.26254e+09 4.26356e+09 4.27067e+09 0 0
454 1 1 4.2778e+09 4.27805e+09 4.27907e+09 4.27924e+09 1 1
455 2 0 4.28382e+09 4.28406e+09 4.28508e+09 4.2855e+09 0 1
456 2 1 4.28853e+09 4.28878e+09 4.2898e+09 4.28989e+09 0 0
457 2 0 6.37749e+06 6.63783e+06 7.65697e+06 1.68612e+07 1 1
458 1 1 1.96434e+07 1.98949e+07 2.09141e+07 2.09593e+07 0 1
459 1 0 2.5898e+07 2.61505e+07 2.71696e+07 2.73124e+07 0 0
460 1 0 3.46952e+07 3.49544e+07 3.59736e+07 4.12056e+07 1 0
461 1 0 4.88366e+07 4.90811e+07 5.01003e+07 5.07723e+07 1 0
462 1 1 5.97975e+07 6.00643e+07 6.10835e+07 6.12205e+07 1 1
463 2 1 6.6945e+07 6.71912e+07 6.82103e+07 6.84301e+07 0 0
464 2 0 7.56572e+07 7.59106e+07 7.69297e+07 7.89156e+07 1 1
465 2 0 8.61921e+07 8.64481e+07 8.74673e+07 9.24034e+07 0 1
466 1 0 9.50917e+07 9.53447e+07 9.63638e+07 1.04872e+08 0 0
467 1 0 1.14531e+08 1.14781e+08 1.158e+08 1.22239e+08 1 0
468 1 1 1.32128e+08 1.32379e+08 1.33398e+08 1.33676e+08 1 1
469 2 0 1.3665e+08 1.36904e+08 1.37923e+08 1.3798e+08 0 1
470 2 0 1.40822e+08 1.41077e+08 1.42096e+08 1.42123e+08 0 1
471 1 0 1.45743e+08 1.45997e+08 1.47016e+08 1.47029e+08 0 0
472 1 0 1.54081e+08 1.54332e+08 1.55351e+08 1.57737e+08 1 0
473 1 0 1.65121e+08 1.65364e+08 1.66384e+08 1.96638e+08 1 0
474 1 0 2.04021e+08 2.04264e+08 2.05283e+08 2.0552e+08 1 0
475 2 0 2.12917e+08 2.13163e+08 2.14182e+08 2.4585e+08 0 1
476 1 0 2.52476e+08 2.52734e+08 2.53753e+08 2.58354e+08 0 0
477 1 0 2.67944e+08 2.68191e+08 2.6921e+08 2.6947e+08 1 0
478 1 0 2.7687e+08 2.77131e+08 2.7815e+08 2.80112e+08 1 0
479 1 0 2.87373e+08 2.87631e+08 2.8865e+08 2.92023e+08 1 0
480 1 0 3.01416e+08 3.01669e+08 3.02688e+08 3.35243e+08 0 0
481 1 0 3.4259e+08 3.42851e+08 3.4387e+08 3.43885e+08 0 0
482 1 0 3.5103e+08 3.51282e+08 3.52301e+08 3.88101e+08 0 0
483 1 0 3.95504e+08 3.95763e+08 3.96782e+08 4.02928e+08 0 0
484 2 0 4.10449e+08 4.10702e+08 4.11721e+08 4.32621e+08 0 1
485 2 1 4.36434e+08 4.36684e+08 4.37703e+08 4.4307e+08 0 0
486 2 0 4.50293e+08 4.50538e+08 4.51557e+08 4.61667e+08 1 1
487 2 0 4.64383e+08 4.6463e+08 4.65649e+08 4.69602e+08 0 1
488 1 0 4.73984e+08 4.7424e+08 4.75259e+08 4.75324e+08 0 0
489 1 0 4.84186e+08 4.84435e+08 4.85454e+08 6.55518e+08 1 0
490 1 0 6.62917e+08 6.63173e+08 6.64192e+08 7.04675e+08 1 0
491 1 0 7.15026e+08 7.15279e+08 7.16298e+08 7.26318e+08 1 0
492 1 0 7.36301e+08 7.36547e+08 7.37566e+08 7.50301e+08 0 0
493 2 0 7.57618e+08 7.57862e+08 7.58881e+08 8.47667e+08 0 1
494 2 0 8.50339e+08 8.50586e+08 8.51605e+08 8.5493e+08 0 1
495 2 0 8.58796e+08 8.59052e+08 8.60071e+08 8.60361e+08 0 1
496 1 0 8.65338e+08 8.65585e+08 8.66604e+08 1.6953e+09 0 0
