trial trialType response stillTime stimOnset stimOffset respTime correctionTrial correct
001 1 0 1.0411e+07 1.07025e+07 1.17217e+07 1.368e+07 0 0
002 1 1 2.16474e+07 2.19189e+07 2.29381e+07 2.29843e+07 1 1
003 1 0 3.73688e+07 3.76524e+07 3.86715e+07 3.95728e+07 0 0
004 1 0 5.15615e+07 5.18123e+07 5.28315e+07 5.43833e+07 1 0
005 1 0 8.1747e+07 8.20017e+07 8.30209e+07 8.38226e+07 1 0
006 1 0 9.28748e+07 9.31229e+07 9.4142e+07 9.45942e+07 1 0
007 2 1 1.01726e+08 1.01983e+08 1.03002e+08 1.03267e+08 0 0
008 2 0 1.11302e+08 1.11567e+08 1.12586e+08 1.14499e+08 0 1
009 1 1 1.26619e+08 1.26878e+08 1.27897e+08 1.28038e+08 0 1
010 2 1 1.32217e+08 1.32468e+08 1.33487e+08 1.34884e+08 0 0
011 2 1 1.45673e+08 1.45934e+08 1.46953e+08 1.47307e+08 1 0
012 2 0 1.58188e+08 1.58446e+08 1.59465e+08 1.60067e+08 1 1
013 1 1 1.63098e+08 1.63363e+08 1.64383e+08 1.66339e+08 0 1
014 2 1 1.68928e+08 1.69182e+08 1.70202e+08 1.70256e+08 0 0
015 2 0 2.11734e+08 2.11995e+08 2.13014e+08 2.14968e+08 1 1
016 2 0 2.30607e+08 2.30859e+08 2.31879e+08 2.32867e+08 0 1
017 2 0 2.3573e+08 2.35989e+08 2.37008e+08 2.42154e+08 0 1
018 2 1 2.63826e+08 2.64085e+08 2.65104e+08 2.65262e+08 0 0
019 2 0 2.77785e+08 2.78044e+08 2.79063e+08 2.79983e+08 1 1
020 2 1 2.95944e+08 2.96205e+08 2.97224e+08 2.98264e+08 0 0
021 2 0 3.07473e+08 3.07717e+08 3.08736e+08 3.11992e+08 1 1
022 2 1 3.14699e+08 3.14951e+08 3.1597e+08 3.17304e+08 0 0
023 2 0 3.29777e+08 3.30034e+08 3.31053e+08 3.33032e+08 1 1
024 2 0 3.36727e+08 3.36985e+08 3.38004e+08 3.38261e+08 0 1
025 2 1 3.40864e+08 3.41125e+08 3.42144e+08 3.43292e+08 0 0
026 2 0 3.84983e+08 3.85241e+08 3.8626e+08 3.87648e+08 1 1
027 1 1 4.01207e+08 4.01465e+08 4.02484e+08 4.03449e+08 0 1
028 2 0 4.158e+08 4.16062e+08 4.17081e+08 4.18114e+08 0 1
029 1 1 4.58202e+08 4.58461e+08 4.5948e+08 4.5975e+08 0 1
030 1 1 4.6263e+08 4.62883e+08 4.63903e+08 4.65265e+08 0 1
031 1 1 4.67906e+08 4.68167e+08 4.69186e+08 4.69199e+08 0 1
032 2 1 4.83695e+08 4.83944e+08 4.84963e+08 4.87179e+08 0 0
033 2 1 5.01856e+08 5.02115e+08 5.03135e+08 5.03761e+08 1 0
034 2 0 5.1105e+08 5.11296e+08 5.12315e+08 5.13968e+08 1 1
035 2 0 5.30861e+08 5.31117e+08 5.32136e+08 5.34212e+08 0 1
036 1 1 5.38157e+08 5.38412e+08 5.39431e+08 5.39761e+08 0 1
037 1 1 5.59512e+08 5.59773e+08 5.60793e+08 5.60928e+08 0 1
038 1 1 5.63639e+08 5.63891e+08 5.6491e+08 5.6537e+08 0 1
039 2 1 5.76991e+08 5.77239e+08 5.78258e+08 5.78335e+08 0 0
040 2 0 6.10449e+08 6.10703e+08 6.11723e+08 6.122e+08 1 1
041 2 1 6.3334e+08 6.33592e+08 6.34611e+08 6.34663e+08 0 0
042 2 1 6.42741e+08 6.42986e+08 6.44005e+08 6.44082e+08 1 0
043 2 0 6.51513e+08 6.5177e+08 6.52789e+08 6.54174e+08 1 1
044 1 1 6.66249e+08 6.66501e+08 6.6752e+08 6.67659e+08 0 1
045 1 1 6.92535e+08 6.92788e+08 6.93807e+08 6.94468e+08 0 1
046 1 1 7.13718e+08 7.13961e+08 7.14981e+08 7.15403e+08 0 1
047 1 1 7.25075e+08 7.25337e+08 7.26356e+08 7.26364e+08 0 1
048 1 1 7.34717e+08 7.34971e+08 7.3599e+08 7.36143e+08 0 1
049 2 0 7.40194e+08 7.40439e+08 7.41458e+08 7.42661e+08 0 1
050 2 1 7.52187e+08 7.52445e+08 7.53465e+08 7.53473e+08 0 0
051 2 0 7.61487e+08 7.6174e+08 7.62759e+08 7.64312e+08 1 1
052 1 0 7.78392e+08 7.78641e+08 7.7966e+08 7.81253e+08 0 0
053 1 0 7.92562e+08 7.92817e+08 7.93836e+08 7.94746e+08 1 0
054 1 1 8.15149e+08 8.1541e+08 8.16429e+08 8.16679e+08 1 1
055 1 0 8.26872e+08 8.27118e+08 8.28137e+08 8.28789e+08 0 0
056 1 1 8.41869e+08 8.42125e+08 8.43144e+08 8.43995e+08 1 1
057 1 1 8.4668e+08 8.46931e+08 8.4795e+08 8.48621e+08 0 1
058 1 1 8.58089e+08 8.58338e+08 8.59357e+08 8.59393e+08 0 1
059 1 1 8.64246e+08 8.64492e+08 8.65512e+08 8.65536e+08 0 1
060 2 1 8.68429e+08 8.68685e+08 8.69704e+08 8.71102e+08 0 0
061 2 0 8.8509e+08 8.85336e+08 8.86355e+08 8.86439e+08 1 1
062 2 1 9.03884e+08 9.04137e+08 9.05156e+08 9.05747e+08 0 0
063 2 1 9.13345e+08 9.1359e+08 9.14609e+08 9.14639e+08 1 0
064 2 0 9.2229e+08 9.22547e+08 9.23566e+08 9.23728e+08 1 1
065 1 1 9.36195e+08 9.36448e+08 9.37467e+08 9.37479e+08 0 1
066 1 1 9.6056e+08 9.60823e+08 9.61842e+08 9.6207e+08 0 1
067 1 1 9.71306e+08 9.7156e+08 9.72579e+08 9.73839e+08 0 1
068 1 1 9.83523e+08 9.83788e+08 9.84808e+08 9.85381e+08 0 1
069 1 1 9.94222e+08 9.94475e+08 9.95494e+08 9.95705e+08 0 1
070 2 0 1.01001e+09 1.01027e+09 1.01129e+09 1.01178e+09 0 1
071 2 0 1.01466e+09 1.01491e+09 1.01593e+09 1.01606e+09 0 1
072 2 1 1.02688e+09 1.02714e+09 1.02816e+09 1.02929e+09 0 0
073 2 1 1.0377e+09 1.03795e+09 1.03897e+09 1.03915e+09 1 0
074 2 0 1.04776e+09 1.04801e+09 1.04903e+09 1.04964e+09 1 1
075 1 1 1.06797e+09 1.06823e+09 1.06925e+09 1.06941e+09 0 1
076 2 1 1.07922e+09 1.07948e+09 1.0805e+09 1.08081e+09 0 0
077 2 0 1.088e+09 1.08826e+09 1.08928e+09 1.09044e+09 1 1
078 1 1 1.1075e+09 1.10775e+09 1.10877e+09 1.109e+09 0 1
079 1 1 1.11707e+09 1.11732e+09 1.11834e+09 1.11985e+09 0 1
080 1 1 1.12331e+09 1.12357e+09 1.12459e+09 1.12497e+09 0 1
081 1 1 1.14222e+09 1.14248e+09 1.1435e+09 1.14379e+09 0 1
082 1 1 1.14659e+09 1.14685e+09 1.14787e+09 1.14796e+09 0 1
083 2 0 1.16097e+09 1.16122e+09 1.16224e+09 1.16272e+09 0 1
084 2 0 1.1751e+09 1.17534e+09 1.17636e+09 1.17837e+09 0 1
085 1 1 1.19163e+09 1.19189e+09 1.19291e+09 1.19329e+09 0 1
086 1 1 1.20044e+09 1.2007e+09 1.20172e+09 1.20174e+09 0 1
087 2 1 1.2127e+09 1.21295e+09 1.21397e+09 1.21449e+09 0 0
088 2 1 1.23576e+09 1.23602e+09 1.23704e+09 1.23742e+09 1 0
089 2 1 1.25966e+09 1.25991e+09 1.26093e+09 1.26097e+09 1 0
090 2 0 1.26832e+09 1.26856e+09 1.26958e+09 1.26987e+09 1 1
091 1 1 1.29374e+09 1.294e+09 1.29502e+09 1.29777e+09 0 1
092 2 1 1.30402e+09 1.30428e+09 1.3053e+09 1.30545e+09 0 0
093 2 0 1.31356e+09 1.3138e+09 1.31482e+09 1.31506e+09 1 1
094 1 1 1.32646e+09 1.32672e+09 1.32774e+09 1.32817e+09 0 1
095 1 1 1.34555e+09 1.3458e+09 1.34682e+09 1.34778e+09 0 1
096 1 1 1.35045e+09 1.35069e+09 1.35171e+09 1.35302e+09 0 1
097 2 0 1.35572e+09 1.35599e+09 1.357e+09 1.35808e+09 0 1
098 2 0 1.37987e+09 1.38014e+09 1.38116e+09 1.3835e+09 0 1
099 1 1 1.39957e+09 1.39983e+09 1.40085e+09 1.40122e+09 0 1
100 1 1 1.40973e+09 1.40998e+09 1.411e+09 1.41256e+09 0 1
101 2 0 1.4211e+09 1.42136e+09 1.42238e+09 1.42252e+09 0 1
102 2 0 1.44103e+09 1.44129e+09 1.44231e+09 1.44348e+09 0 1
103 2 1 1.45439e+09 1.45464e+09 1.45566e+09 1.45758e+09 0 0
104 2 1 1.47108e+09 1.47133e+09 1.47235e+09 1.47237e+09 1 0
105 2 1 1.48265e+09 1.48291e+09 1.48392e+09 1.48449e+09 1 0
106 2 1 1.49421e+09 1.49447e+09 1.49549e+09 1.49732e+09 1 0
107 2 0 1.50553e+09 1.50579e+09 1.50681e+09 1.50695e+09 0 1
108 2 0 1.52174e+09 1.522e+09 1.52302e+09 1.52317e+09 0 1
109 1 0 1.53405e+09 1.53431e+09 1.53533e+09 1.53661e+09 0 0
110 1 1 1.55191e+09 1.55217e+09 1.55319e+09 1.55421e+09 1 1
111 1 1 1.55679e+09 1.55705e+09 1.55807e+09 1.55821e+09 0 1
112 2 1 1.5709e+09 1.57115e+09 1.57217e+09 1.57271e+09 0 0
113 2 1 1.58195e+09 1.5822e+09 1.58322e+09 1.5844e+09 1 0
114 2 1 1.59304e+09 1.59329e+09 1.59431e+09 1.59451e+09 1 0
115 2 1 1.61179e+09 1.61205e+09 1.61307e+09 1.61412e+09 1 0
116 2 1 1.62305e+09 1.62329e+09 1.62431e+09 1.62525e+09 0 0
117 1 1 1.63454e+09 1.63479e+09 1.63581e+09 1.63666e+09 0 1
118 1 0 1.653e+09 1.65327e+09 1.65429e+09 1.65487e+09 0 0
119 1 0 1.66365e+09 1.66391e+09 1.66493e+09 1.66718e+09 1 0
120 1 0 1.67722e+09 1.67747e+09 1.67849e+09 1.67877e+09 1 0
121 1 1 1.68607e+09 1.68632e+09 1.68734e+09 1.68736e+09 1 1
122 1 1 1.69409e+09 1.69433e+09 1.69535e+09 1.69549e+09 0 1
123 2 1 1.70458e+09 1.70484e+09 1.70586e+09 1.70599e+09 0 0
124 2 1 1.71563e+09 1.7159e+09 1.71692e+09 1.71775e+09 1 0
125 2 1 1.72635e+09 1.7266e+09 1.72762e+09 1.72806e+09 1 0
126 2 0 1.74291e+09 1.74317e+09 1.74419e+09 1.74683e+09 1 1
127 2 1 1.75551e+09 1.75577e+09 1.75679e+09 1.75764e+09 0 0
128 2 0 1.76648e+09 1.76674e+09 1.76775e+09 1.76808e+09 1 1
129 2 1 1.77057e+09 1.77082e+09 1.77184e+09 1.77287e+09 0 0
130 2 1 1.78157e+09 1.78181e+09 1.78283e+09 1.78338e+09 1 0
131 2 0 1.79096e+09 1.79121e+09 1.79223e+09 1.79223e+09 1 1
132 1 1 1.80166e+09 1.80192e+09 1.80294e+09 1.80324e+09 0 1
133 2 1 1.80581e+09 1.80606e+09 1.80708e+09 1.80721e+09 0 0
134 2 1 1.81582e+09 1.81607e+09 1.81709e+09 1.81711e+09 1 0
135 2 0 1.82612e+09 1.82637e+09 1.82739e+09 1.82752e+09 1 1
136 1 1 1.84237e+09 1.84264e+09 1.84366e+09 1.84375e+09 0 1
137 2 0 1.85164e+09 1.85189e+09 1.85291e+09 1.85315e+09 0 1
138 2 1 1.85623e+09 1.85648e+09 1.8575e+09 1.85777e+09 0 0
139 2 1 1.86941e+09 1.86966e+09 1.87068e+09 1.87074e+09 1 0
140 2 0 1.87832e+09 1.87858e+09 1.87959e+09 1.87966e+09 1 1
141 2 1 1.88225e+09 1.88251e+09 1.88353e+09 1.885e+09 0 0
142 2 1 1.89575e+09 1.896e+09 1.89702e+09 1.89741e+09 1 0
143 2 0 1.90598e+09 1.90624e+09 1.90726e+09 1.90795e+09 1 1
144 1 1 1.91184e+09 1.91209e+09 1.91311e+09 1.91313e+09 0 1
145 2 1 1.9158e+09 1.91605e+09 1.91707e+09 1.91831e+09 0 0
146 2 1 1.93615e+09 1.93641e+09 1.93743e+09 1.93778e+09 1 0
147 2 1 1.94549e+09 1.94574e+09 1.94676e+09 1.94716e+09 1 0
148 2 1 1.95721e+09 1.95748e+09 1.9585e+09 1.96072e+09 1 0
149 1 0 1.96815e+09 1.96841e+09 1.96942e+09 1.97527e+09 0 0
150 2 1 1.98535e+09 1.9856e+09 1.98662e+09 1.98688e+09 0 0
151 1 1 2.00516e+09 2.00543e+09 2.00644e+09 2.00646e+09 0 1
152 2 1 2.01481e+09 2.01507e+09 2.01609e+09 2.01612e+09 0 0
153 2 0 2.02346e+09 2.02372e+09 2.02474e+09 2.02694e+09 1 1
154 2 1 2.03059e+09 2.03084e+09 2.03186e+09 2.0327e+09 0 0
155 2 0 2.04426e+09 2.04451e+09 2.04553e+09 2.04554e+09 1 1
156 2 1 2.0575e+09 2.05776e+09 2.05878e+09 2.05903e+09 0 0
157 2 1 2.06892e+09 2.06918e+09 2.0702e+09 2.07049e+09 1 0
158 2 1 2.09133e+09 2.09159e+09 2.09261e+09 2.09284e+09 1 0
159 2 1 2.10187e+09 2.10213e+09 2.10315e+09 2.10417e+09 1 0
160 2 1 2.11557e+09 2.11582e+09 2.11684e+09 2.11711e+09 0 0
161 2 0 2.12906e+09 2.12931e+09 2.13033e+09 2.1334e+09 0 1
162 2 1 2.14295e+09 2.14319e+09 2.14421e+09 2.14469e+09 0 0
163 2 1 2.15205e+09 2.1523e+09 2.15332e+09 2.15337e+09 1 0
164 2 1 2.16203e+09 2.16229e+09 2.16331e+09 2.16356e+09 1 0
165 2 1 2.17084e+09 2.17109e+09 2.17211e+09 2.17238e+09 1 0
166 2 1 2.18086e+09 2.18111e+09 2.18213e+09 2.18225e+09 0 0
167 2 1 2.19138e+09 2.19163e+09 2.19265e+09 2.19275e+09 0 0
168 1 1 2.20325e+09 2.20352e+09 2.20454e+09 2.20468e+09 0 1
169 1 1 2.21317e+09 2.21343e+09 2.21445e+09 2.21449e+09 0 1
170 1 0 2.22539e+09 2.22564e+09 2.22666e+09 2.22816e+09 0 0
171 1 0 2.23622e+09 2.23648e+09 2.2375e+09 2.23925e+09 1 0
172 1 0 2.24718e+09 2.24744e+09 2.24846e+09 2.2509e+09 1 0
173 1 0 2.26011e+09 2.26037e+09 2.26138e+09 2.26333e+09 1 0
174 1 1 2.27398e+09 2.27423e+09 2.27525e+09 2.27595e+09 0 1
175 2 1 2.29325e+09 2.2935e+09 2.29452e+09 2.29453e+09 0 0
176 2 0 2.30293e+09 2.30319e+09 2.30421e+09 2.30612e+09 1 1
177 2 1 2.31416e+09 2.31442e+09 2.31544e+09 2.31555e+09 0 0
178 2 1 2.32275e+09 2.32301e+09 2.32403e+09 2.3242e+09 1 0
179 2 0 2.33632e+09 2.33658e+09 2.3376e+09 2.33858e+09 1 1
180 1 1 2.34153e+09 2.34179e+09 2.34281e+09 2.3434e+09 0 1
181 1 0 2.35764e+09 2.3579e+09 2.35892e+09 2.35935e+09 0 0
182 1 1 2.36725e+09 2.36751e+09 2.36853e+09 2.36867e+09 1 1
183 1 1 2.37694e+09 2.37719e+09 2.37821e+09 2.37826e+09 0 1
184 2 0 2.38081e+09 2.38106e+09 2.38208e+09 2.38265e+09 0 1
185 2 0 2.40186e+09 2.40211e+09 2.40313e+09 2.40374e+09 0 1
186 2 1 2.42682e+09 2.42708e+09 2.4281e+09 2.42887e+09 0 0
187 2 0 2.4369e+09 2.43716e+09 2.43818e+09 2.43988e+09 1 1
188 1 1 2.45177e+09 2.45202e+09 2.45304e+09 2.45315e+09 0 1
189 1 1 2.4565e+09 2.45675e+09 2.45777e+09 2.46011e+09 0 1
190 2 0 2.48564e+09 2.48589e+09 2.48691e+09 2.48903e+09 0 1
191 2 1 2.51422e+09 2.51447e+09 2.51549e+09 2.51552e+09 0 0
192 2 1 2.52573e+09 2.52598e+09 2.527e+09 2.52701e+09 1 0
193 2 0 2.53681e+09 2.53706e+09 2.53807e+09 2.5381e+09 1 1
194 1 1 2.55082e+09 2.55108e+09 2.55209e+09 2.55232e+09 0 1
195 1 1 2.56043e+09 2.56069e+09 2.56171e+09 2.5619e+09 0 1
196 2 1 2.56846e+09 2.56872e+09 2.56974e+09 2.57089e+09 0 0
197 2 1 2.58094e+09 2.5812e+09 2.58222e+09 2.58224e+09 1 0
198 2 0 2.59117e+09 2.59143e+09 2.59245e+09 2.59252e+09 1 1
199 1 1 2.60103e+09 2.60128e+09 2.6023e+09 2.6024e+09 0 1
200 2 0 2.61538e+09 2.61564e+09 2.61665e+09 2.61692e+09 0 1
201 2 1 2.62e+09 2.62025e+09 2.62127e+09 2.62215e+09 0 0
202 2 1 2.64021e+09 2.64047e+09 2.64149e+09 2.64236e+09 1 0
203 2 1 2.65065e+09 2.6509e+09 2.65192e+09 2.65214e+09 1 0
204 2 1 2.66878e+09 2.66903e+09 2.67005e+09 2.67018e+09 1 0
205 2 1 2.67888e+09 2.67914e+09 2.68016e+09 2.68023e+09 0 0
206 1 1 2.68771e+09 2.68796e+09 2.68898e+09 2.68921e+09 0 1
207 2 1 2.70679e+09 2.70705e+09 2.70806e+09 2.70829e+09 0 0
208 2 0 2.71751e+09 2.71777e+09 2.71879e+09 2.71895e+09 1 1
209 1 1 2.72186e+09 2.72211e+09 2.72312e+09 2.72328e+09 0 1
210 2 1 2.75221e+09 2.75246e+09 2.75348e+09 2.75399e+09 0 0
211 2 0 2.76247e+09 2.76274e+09 2.76376e+09 2.76377e+09 1 1
212 2 1 2.77241e+09 2.77266e+09 2.77368e+09 2.7737e+09 0 0
213 2 1 2.78143e+09 2.78168e+09 2.7827e+09 2.78318e+09 1 0
214 2 1 2.79301e+09 2.79325e+09 2.79427e+09 2.79472e+09 1 0
215 2 0 2.80192e+09 2.80217e+09 2.80319e+09 2.8033e+09 1 1
216 2 0 2.81618e+09 2.81643e+09 2.81745e+09 2.81895e+09 0 1
217 2 1 2.83462e+09 2.83487e+09 2.83589e+09 2.83757e+09 0 0
218 2 1 2.84641e+09 2.84666e+09 2.84768e+09 2.84812e+09 1 0
219 2 0 2.85595e+09 2.85619e+09 2.85721e+09 2.85728e+09 1 1
220 1 1 2.86418e+09 2.86444e+09 2.86546e+09 2.86552e+09 0 1
221 1 0 2.88677e+09 2.88702e+09 2.88804e+09 2.89016e+09 0 0
222 1 1 2.89756e+09 2.89781e+09 2.89883e+09 2.89884e+09 1 1
223 1 1 2.9226e+09 2.92285e+09 2.92387e+09 2.92528e+09 0 1
224 2 1 2.92846e+09 2.9287e+09 2.92972e+09 2.93078e+09 0 0
225 2 0 2.94007e+09 2.94032e+09 2.94134e+09 2.94422e+09 1 1
226 1 1 2.95466e+09 2.95491e+09 2.95593e+09 2.95595e+09 0 1
227 1 1 2.97258e+09 2.97284e+09 2.97386e+09 2.97396e+09 0 1
228 1 1 2.98708e+09 2.98733e+09 2.98835e+09 2.98957e+09 0 1
229 1 1 2.99932e+09 2.99958e+09 3.0006e+09 3.00073e+09 0 1
230 2 1 3.01356e+09 3.01381e+09 3.01483e+09 3.01494e+09 0 0
231 2 1 3.02235e+09 3.02259e+09 3.02361e+09 3.02382e+09 1 0
232 2 1 3.03155e+09 3.0318e+09 3.03282e+09 3.03315e+09 1 0
233 2 1 3.04146e+09 3.04171e+09 3.04273e+09 3.04292e+09 1 0
234 1 0 3.05064e+09 3.05089e+09 3.05191e+09 3.05195e+09 0 0
235 2 0 3.06097e+09 3.06121e+09 3.06223e+09 3.06368e+09 0 1
236 1 1 3.07315e+09 3.0734e+09 3.07442e+09 3.07443e+09 0 1
237 2 1 3.08817e+09 3.08843e+09 3.08945e+09 3.08951e+09 0 0
238 2 1 3.09829e+09 3.09854e+09 3.09956e+09 3.10053e+09 1 0
239 2 0 3.10996e+09 3.1102e+09 3.11122e+09 3.11261e+09 1 1
240 2 0 3.12647e+09 3.12672e+09 3.12774e+09 3.12777e+09 0 1
241 2 0 3.13402e+09 3.13427e+09 3.13529e+09 3.13726e+09 0 1
242 1 1 3.14544e+09 3.14569e+09 3.14671e+09 3.14701e+09 0 1
243 2 0 3.17513e+09 3.17539e+09 3.17641e+09 3.17715e+09 0 1
244 2 1 3.18274e+09 3.18299e+09 3.18401e+09 3.18405e+09 0 0
245 2 0 3.20146e+09 3.20171e+09 3.20273e+09 3.20397e+09 1 1
246 1 1 3.20647e+09 3.20673e+09 3.20775e+09 3.20963e+09 0 1
247 1 0 3.21612e+09 3.21638e+09 3.2174e+09 3.21743e+09 0 0
248 1 1 3.22604e+09 3.2263e+09 3.22732e+09 3.22734e+09 1 1
249 1 0 3.2471e+09 3.24736e+09 3.24838e+09 3.24841e+09 0 0
250 1 1 3.25842e+09 3.25868e+09 3.2597e+09 3.26031e+09 1 1
251 2 1 3.26317e+09 3.26343e+09 3.26445e+09 3.26485e+09 0 0
252 2 1 3.27352e+09 3.27377e+09 3.27479e+09 3.27493e+09 1 0
253 2 1 3.28253e+09 3.28278e+09 3.2838e+09 3.28445e+09 1 0
254 2 1 3.29458e+09 3.29483e+09 3.29585e+09 3.29594e+09 1 0
255 2 1 3.30508e+09 3.30534e+09 3.30636e+09 3.30672e+09 0 0
256 1 0 3.31755e+09 3.31779e+09 3.31881e+09 3.31894e+09 0 0
257 2 0 3.32671e+09 3.32696e+09 3.32798e+09 3.32841e+09 0 1
258 2 1 3.33465e+09 3.33491e+09 3.33593e+09 3.33594e+09 0 0
259 2 0 3.34375e+09 3.34399e+09 3.34501e+09 3.34555e+09 1 1
260 1 1 3.34807e+09 3.34833e+09 3.34935e+09 3.35091e+09 0 1
261 2 0 3.36036e+09 3.36061e+09 3.36163e+09 3.36356e+09 0 1
262 2 1 3.36633e+09 3.36658e+09 3.3676e+09 3.3719e+09 0 0
263 2 1 3.38091e+09 3.38115e+09 3.38217e+09 3.38225e+09 1 0
264 2 0 3.38947e+09 3.38974e+09 3.39076e+09 3.3934e+09 1 1
265 1 1 3.40851e+09 3.40875e+09 3.40977e+09 3.41035e+09 0 1
266 1 0 3.4168e+09 3.41705e+09 3.41807e+09 3.41811e+09 0 0
267 1 1 3.42907e+09 3.42933e+09 3.43035e+09 3.43073e+09 1 1
268 2 1 3.44165e+09 3.44191e+09 3.44293e+09 3.44351e+09 0 0
269 2 1 3.4536e+09 3.45386e+09 3.45488e+09 3.45549e+09 1 0
270 2 1 3.46355e+09 3.46381e+09 3.46482e+09 3.46539e+09 1 0
271 2 1 3.47729e+09 3.47753e+09 3.47855e+09 3.47887e+09 1 0
272 2 1 3.48597e+09 3.48623e+09 3.48725e+09 3.48738e+09 0 0
273 1 0 3.49578e+09 3.49603e+09 3.49705e+09 3.49713e+09 0 0
274 2 0 3.50688e+09 3.50715e+09 3.50817e+09 3.50956e+09 0 1
275 1 0 3.51435e+09 3.5146e+09 3.51562e+09 3.5158e+09 0 0
276 1 1 3.52361e+09 3.52386e+09 3.52488e+09 3.52494e+09 1 1
277 1 1 3.52924e+09 3.52949e+09 3.53051e+09 3.53056e+09 0 1
278 2 1 3.53722e+09 3.53746e+09 3.53848e+09 3.53868e+09 0 0
279 2 0 3.54765e+09 3.5479e+09 3.54892e+09 3.54921e+09 1 1
280 2 0 3.55188e+09 3.55214e+09 3.55315e+09 3.55672e+09 0 1
281 1 0 3.5646e+09 3.56486e+09 3.56588e+09 3.56599e+09 0 0
282 1 1 3.57551e+09 3.57576e+09 3.57678e+09 3.57704e+09 1 1
283 1 0 3.58044e+09 3.58069e+09 3.58171e+09 3.58188e+09 0 0
284 1 1 3.59069e+09 3.59094e+09 3.59196e+09 3.59212e+09 1 1
285 1 1 3.59983e+09 3.6001e+09 3.60111e+09 3.60113e+09 0 1
286 1 1 3.61683e+09 3.61708e+09 3.6181e+09 3.61818e+09 0 1
287 2 1 3.62282e+09 3.62307e+09 3.62409e+09 3.62471e+09 0 0
288 2 1 3.63888e+09 3.63913e+09 3.64015e+09 3.64017e+09 1 0
289 2 1 3.6578e+09 3.65805e+09 3.65907e+09 3.65964e+09 1 0
290 2 1 3.66688e+09 3.66712e+09 3.66814e+09 3.66831e+09 1 0
291 2 1 3.67868e+09 3.67893e+09 3.67995e+09 3.68055e+09 0 0
292 1 0 3.68878e+09 3.68904e+09 3.69006e+09 3.69227e+09 0 0
293 1 1 3.70116e+09 3.70143e+09 3.70245e+09 3.70257e+09 0 1
294 1 1 3.70745e+09 3.70769e+09 3.70871e+09 3.70882e+09 0 1
295 1 1 3.71177e+09 3.71202e+09 3.71304e+09 3.71317e+09 0 1
296 2 1 3.71815e+09 3.7184e+09 3.71942e+09 3.71974e+09 0 0
297 2 1 3.72889e+09 3.72915e+09 3.73017e+09 3.73067e+09 1 0
298 2 1 3.7439e+09 3.74416e+09 3.74518e+09 3.74733e+09 1 0
299 2 1 3.75466e+09 3.75491e+09 3.75593e+09 3.7561e+09 1 0
300 1 0 3.76336e+09 3.76361e+09 3.76463e+09 3.76506e+09 0 0
301 1 0 3.77219e+09 3.77244e+09 3.77346e+09 3.77403e+09 0 0
302 1 0 3.78221e+09 3.78247e+09 3.78349e+09 3.78393e+09 0 0
303 2 1 3.79458e+09 3.79483e+09 3.79585e+09 3.7981e+09 0 0
304 2 1 3.81304e+09 3.81329e+09 3.81431e+09 3.81453e+09 0 0
305 2 1 3.82202e+09 3.82228e+09 3.8233e+09 3.83228e+09 0 0
306 2 0 3.83981e+09 3.84007e+09 3.84109e+09 3.84207e+09 0 1
307 1 1 3.84769e+09 3.84794e+09 3.84896e+09 3.84906e+09 0 1
308 2 0 3.85551e+09 3.85576e+09 3.85678e+09 3.85686e+09 0 1
309 1 1 3.86957e+09 3.86983e+09 3.87085e+09 3.87086e+09 0 1
310 2 1 3.88047e+09 3.88072e+09 3.88174e+09 3.88179e+09 0 0
311 2 1 3.88899e+09 3.88923e+09 3.89025e+09 3.89141e+09 1 0
312 2 1 3.89879e+09 3.89905e+09 3.90007e+09 3.90045e+09 1 0
313 2 0 3.90753e+09 3.90778e+09 3.9088e+09 3.91049e+09 1 1
314 2 1 3.91611e+09 3.91637e+09 3.91739e+09 3.91773e+09 0 0
315 2 1 3.92961e+09 3.92986e+09 3.93088e+09 3.93089e+09 1 0
316 2 0 3.9405e+09 3.94075e+09 3.94176e+09 3.94555e+09 1 1
317 1 0 3.94954e+09 3.9498e+09 3.95082e+09 3.95103e+09 0 0
318 1 1 3.96041e+09 3.96065e+09 3.96167e+09 3.96326e+09 1 1
319 1 1 3.96616e+09 3.96641e+09 3.96743e+09 3.96767e+09 0 1
320 1 1 3.97028e+09 3.97053e+09 3.97155e+09 3.97282e+09 0 1
321 2 0 3.98098e+09 3.98124e+09 3.98226e+09 3.98365e+09 0 1
322 2 1 3.99013e+09 3.99037e+09 3.99139e+09 3.99215e+09 0 0
323 2 1 4.00073e+09 4.00099e+09 4.00201e+09 4.00212e+09 1 0
324 2 1 4.00979e+09 4.01005e+09 4.01107e+09 4.01145e+09 1 0
325 2 0 4.0205e+09 4.02075e+09 4.02177e+09 4.02208e+09 1 1
326 2 1 4.03297e+09 4.03322e+09 4.03424e+09 4.03439e+09 0 0
327 2 1 4.04188e+09 4.04213e+09 4.04315e+09 4.04337e+09 1 0
328 2 0 4.05143e+09 4.05169e+09 4.05271e+09 4.05353e+09 1 1
329 2 1 4.06107e+09 4.06132e+09 4.06234e+09 4.06256e+09 0 0
330 2 1 4.07054e+09 4.0708e+09 4.07181e+09 4.07306e+09 1 0
331 2 0 4.08078e+09 4.08104e+09 4.08206e+09 4.08268e+09 1 1
332 2 1 4.08964e+09 4.0899e+09 4.09092e+09 4.09161e+09 0 0
333 2 1 4.10225e+09 4.1025e+09 4.10352e+09 4.10355e+09 1 0
334 2 0 4.11198e+09 4.11223e+09 4.11325e+09 4.11329e+09 1 1
335 1 1 4.11984e+09 4.1201e+09 4.12112e+09 4.12115e+09 0 1
336 2 0 4.12646e+09 4.12672e+09 4.12773e+09 4.12979e+09 0 1
337 1 1 4.13808e+09 4.13833e+09 4.13935e+09 4.13936e+09 0 1
338 1 0 4.15113e+09 4.15139e+09 4.1524e+09 4.15248e+09 0 0
339 1 1 4.16204e+09 4.16228e+09 4.1633e+09 4.16334e+09 1 1
340 2 1 4.16976e+09 4.17001e+09 4.17102e+09 4.17127e+09 0 0
341 2 1 4.17879e+09 4.17904e+09 4.18006e+09 4.18009e+09 1 0
342 2 1 4.18736e+09 4.18761e+09 4.18863e+09 4.19421e+09 1 0
343 2 1 4.20171e+09 4.20196e+09 4.20298e+09 4.203e+09 1 0
344 1 0 4.21012e+09 4.21037e+09 4.21139e+09 4.21273e+09 0 0
345 1 0 4.22266e+09 4.22292e+09 4.22394e+09 4.23051e+09 0 0
346 1 0 4.23973e+09 4.23998e+09 4.241e+09 4.24455e+09 0 0
347 2 0 4.25225e+09 4.2525e+09 4.25352e+09 4.25522e+09 0 1
348 1 1 4.25816e+09 4.25841e+09 4.25943e+09 4.25963e+09 0 1
349 2 0 4.26696e+09 4.26722e+09 4.26823e+09 4.26824e+09 0 1
350 2 1 4.28075e+09 4.28101e+09 4.28203e+09 4.28226e+09 0 0
351 2 1 4.28955e+09 4.2898e+09 4.29082e+09 4.29225e+09 1 0
352 2 1 4.61928e+06 4.87988e+06 5.89902e+06 6.21622e+06 1 0
353 2 0 1.43473e+07 1.46021e+07 1.56212e+07 1.63873e+07 1 1
354 1 0 2.66435e+07 2.68987e+07 2.79178e+07 2.80543e+07 0 0
355 1 0 3.79095e+07 3.81546e+07 3.91737e+07 3.99799e+07 1 0
356 1 1 4.85048e+07 4.87537e+07 4.97729e+07 5.09931e+07 1 1
357 1 1 5.98631e+07 6.01183e+07 6.11374e+07 6.11674e+07 0 1
358 2 1 6.70229e+07 6.72833e+07 6.83025e+07 6.95027e+07 0 0
359 2 0 8.14275e+07 8.16769e+07 8.2696e+07 8.37036e+07 1 1
360 1 1 8.62648e+07 8.65244e+07 8.75436e+07 8.80075e+07 0 1
361 2 0 9.50815e+07 9.53381e+07 9.63573e+07 9.64848e+07 0 1
362 1 1 1.00694e+08 1.0094e+08 1.01959e+08 1.01975e+08 0 1
363 2 1 1.1227e+08 1.12524e+08 1.13543e+08 1.13574e+08 0 0
364 2 1 1.22365e+08 1.22614e+08 1.23633e+08 1.26601e+08 1 0
365 2 0 1.34058e+08 1.34316e+08 1.35335e+08 1.37187e+08 1 1
366 1 1 1.43644e+08 1.43898e+08 1.44918e+08 1.44949e+08 0 1
367 2 0 1.51019e+08 1.5127e+08 1.52289e+08 1.52351e+08 0 1
368 2 1 1.56907e+08 1.5716e+08 1.58179e+08 1.58627e+08 0 0
369 2 1 1.66351e+08 1.66608e+08 1.67627e+08 1.67788e+08 1 0
370 2 0 1.75129e+08 1.75384e+08 1.76403e+08 1.78902e+08 1 1
371 1 1 1.84735e+08 1.84983e+08 1.86002e+08 1.86013e+08 0 1
372 2 1 1.9974e+08 1.99985e+08 2.01004e+08 2.01617e+08 0 0
373 2 1 2.10198e+08 2.10458e+08 2.11477e+08 2.327e+08 1 0
374 2 0 2.41263e+08 2.41518e+08 2.42538e+08 2.56242e+08 1 1
375 1 0 2.58932e+08 2.59182e+08 2.60201e+08 2.60619e+08 0 0
376 1 0 2.68998e+08 2.69241e+08 2.7026e+08 2.7265e+08 1 0
377 1 1 2.80261e+08 2.80514e+08 2.81533e+08 2.8277e+08 1 1
378 2 0 2.89709e+08 2.89961e+08 2.90981e+08 2.94113e+08 0 1
379 1 0 3.00605e+08 3.00855e+08 3.01874e+08 3.02246e+08 0 0
380 1 0 3.09414e+08 3.0967e+08 3.10689e+08 3.13233e+08 1 0
381 1 0 3.20741e+08 3.20999e+08 3.22018e+08 3.41223e+08 1 0
382 1 1 3.48361e+08 3.48607e+08 3.49626e+08 3.54566e+08 1 1
383 1 1 3.57498e+08 3.57748e+08 3.58767e+08 3.5914e+08 0 1
384 1 0 3.67631e+08 3.67876e+08 3.68895e+08 3.68908e+08 0 0
385 1 0 3.78433e+08 3.78692e+08 3.79711e+08 3.81037e+08 1 0
386 1 0 3.883e+08 3.88562e+08 3.89581e+08 3.89595e+08 1 0
387 1 1 3.97113e+08 3.97356e+08 3.98376e+08 3.98403e+08 1 1
388 2 0 4.04926e+08 4.05192e+08 4.06211e+08 4.07919e+08 0 1
389 1 0 4.16282e+08 4.16547e+08 4.17566e+08 4.19313e+08 0 0
390 1 0 4.26367e+08 4.26618e+08 4.27637e+08 4.29508e+08 1 0
391 1 0 4.36581e+08 4.36824e+08 4.37843e+08 4.40527e+08 1 0
392 1 0 4.47823e+08 4.48066e+08 4.49085e+08 4.50273e+08 1 0
393 2 0 4.57373e+08 4.57636e+08 4.58655e+08 5.22318e+08 0 1
394 2 1 5.26749e+08 5.27004e+08 5.28023e+08 5.29554e+08 0 0
395 2 1 5.37038e+08 5.37284e+08 5.38303e+08 5.43953e+08 1 0
396 2 0 5.52936e+08 5.5318e+08 5.54199e+08 5.89772e+08 1 1
397 2 1 5.95015e+08 5.9527e+08 5.96289e+08 5.98315e+08 0 0
398 2 0 6.05737e+08 6.06e+08 6.07019e+08 6.62942e+08 1 1
399 1 0 6.658e+08 6.66052e+08 6.67071e+08 6.67235e+08 0 0
400 1 0 6.74342e+08 6.74594e+08 6.75613e+08 6.79453e+08 1 0
401 1 0 6.86536e+08 6.86779e+08 6.87798e+08 6.97041e+08 1 0
402 1 0 7.04117e+08 7.0437e+08 7.0539e+08 7.06031e+08 1 0
403 1 0 7.1335e+08 7.13602e+08 7.14621e+08 7.27647e+08 0 0
404 2 0 7.35329e+08 7.35576e+08 7.36595e+08 7.38313e+08 0 1
405 2 0 7.41331e+08 7.41592e+08 7.42611e+08 7.42624e+08 0 1
406 2 0 7.45556e+08 7.45808e+08 7.46827e+08 7.47874e+08 0 1
407 1 0 7.54696e+08 7.54952e+08 7.55971e+08 7.56331e+08 0 0
408 1 0 7.63844e+08 7.64093e+08 7.65112e+08 7.65879e+08 1 0
409 1 0 7.72957e+08 7.732e+08 7.74219e+08 7.84575e+08 1 0
410 1 0 7.91831e+08 7.92079e+08 7.93099e+08 8.15733e+08 1 0
411 1 0 8.24005e+08 8.24256e+08 8.25275e+08 1.01934e+09 0 0
