trial trialType response stillTime stimOnset stimOffset respTime correctionTrial correct
001 1 0 3.13243e+06 3.39812e+06 4.41726e+06 7.96748e+06 0 0
002 1 0 2.13125e+07 2.1572e+07 2.25911e+07 2.40892e+07 1 0
003 1 0 3.11982e+07 3.14614e+07 3.24806e+07 3.40037e+07 1 0
004 1 1 4.27776e+07 4.3035e+07 4.40542e+07 4.45861e+07 1 1
005 1 1 4.75628e+07 4.78222e+07 4.88413e+07 5.08206e+07 0 1
006 2 0 8.41196e+07 8.43693e+07 8.53885e+07 8.54362e+07 0 1
007 1 1 8.80282e+07 8.82858e+07 8.9305e+07 8.99636e+07 0 1
008 1 0 9.2886e+07 9.31474e+07 9.41666e+07 9.80747e+07 0 0
009 1 0 1.12643e+08 1.12907e+08 1.13926e+08 1.26989e+08 1 0
010 1 0 1.34699e+08 1.34948e+08 1.35967e+08 1.37741e+08 1 0
011 1 1 1.51801e+08 1.52055e+08 1.53074e+08 1.55698e+08 1 1
012 2 1 1.58405e+08 1.58664e+08 1.59683e+08 1.61097e+08 0 0
013 2 1 1.68629e+08 1.68876e+08 1.69895e+08 1.71438e+08 1 0
014 2 1 1.79215e+08 1.79465e+08 1.80484e+08 1.81118e+08 1 0
015 2 0 1.9196e+08 1.92202e+08 1.93221e+08 1.94091e+08 1 1
016 2 1 1.96635e+08 1.96895e+08 1.97914e+08 2.01477e+08 0 0
017 2 0 2.10123e+08 2.10384e+08 2.11403e+08 2.13363e+08 1 1
018 2 0 2.16118e+08 2.16373e+08 2.17393e+08 2.36109e+08 0 1
019 2 1 2.38991e+08 2.3925e+08 2.40269e+08 2.50048e+08 0 0
020 2 1 2.63527e+08 2.63785e+08 2.64804e+08 2.65918e+08 1 0
021 2 1 2.94471e+08 2.94727e+08 2.95746e+08 2.95785e+08 1 0
022 2 1 3.02995e+08 3.03249e+08 3.04268e+08 3.06022e+08 1 0
023 1 0 3.15863e+08 3.16111e+08 3.1713e+08 3.18017e+08 0 0
024 1 0 3.25291e+08 3.25541e+08 3.2656e+08 3.27377e+08 0 0
025 2 0 3.37477e+08 3.37726e+08 3.38745e+08 3.39035e+08 0 1
026 1 1 3.42001e+08 3.42258e+08 3.43277e+08 3.43811e+08 0 1
027 1 0 3.46446e+08 3.46691e+08 3.4771e+08 3.57876e+08 0 0
028 1 1 3.65443e+08 3.65701e+08 3.6672e+08 3.67466e+08 1 1
029 2 1 3.70318e+08 3.70573e+08 3.71592e+08 3.76117e+08 0 0
030 2 0 3.83591e+08 3.83848e+08 3.84867e+08 3.9137e+08 1 1
031 1 1 3.99185e+08 3.99436e+08 4.00456e+08 4.10084e+08 0 1
032 2 0 4.12954e+08 4.13209e+08 4.14228e+08 4.20172e+08 0 1
033 1 1 4.22683e+08 4.2294e+08 4.23959e+08 4.32057e+08 0 1
034 2 0 4.34828e+08 4.35086e+08 4.36105e+08 4.38504e+08 0 1
035 2 1 4.41302e+08 4.41564e+08 4.42583e+08 4.48616e+08 0 0
036 2 0 4.57028e+08 4.57277e+08 4.58296e+08 4.58325e+08 1 1
037 1 0 4.61283e+08 4.61546e+08 4.62565e+08 4.67396e+08 0 0
038 1 1 4.76369e+08 4.76617e+08 4.77636e+08 4.77842e+08 1 1
039 1 0 4.80498e+08 4.80762e+08 4.81781e+08 4.84798e+08 0 0
040 1 0 4.92474e+08 4.92736e+08 4.93755e+08 4.97602e+08 1 0
041 1 0 5.05868e+08 5.06128e+08 5.07147e+08 5.079e+08 1 0
042 1 0 5.16639e+08 5.16898e+08 5.17917e+08 5.20107e+08 1 0
043 1 1 5.32634e+08 5.32885e+08 5.33904e+08 5.34714e+08 0 1
044 1 1 5.38376e+08 5.38639e+08 5.39658e+08 5.40476e+08 0 1
045 2 1 5.4352e+08 5.43773e+08 5.44792e+08 5.50244e+08 0 0
046 2 0 5.59054e+08 5.59319e+08 5.60339e+08 5.60347e+08 1 1
047 1 1 5.63051e+08 5.63307e+08 5.64326e+08 5.64807e+08 0 1
048 1 0 5.72126e+08 5.72373e+08 5.73392e+08 5.77123e+08 0 0
049 1 0 5.85719e+08 5.85968e+08 5.86987e+08 5.87118e+08 1 0
050 1 0 5.97065e+08 5.97307e+08 5.98326e+08 5.99546e+08 1 0
051 1 1 6.06742e+08 6.0702e+08 6.08039e+08 6.10637e+08 1 1
052 2 0 6.1337e+08 6.13623e+08 6.14642e+08 6.37386e+08 0 1
053 1 1 6.40163e+08 6.40407e+08 6.41427e+08 6.41694e+08 0 1
054 2 0 6.4471e+08 6.44972e+08 6.45991e+08 6.46813e+08 0 1
055 1 0 6.49567e+08 6.49814e+08 6.50833e+08 6.5355e+08 0 0
056 1 1 6.61334e+08 6.61577e+08 6.62596e+08 6.62612e+08 1 1
057 2 1 6.65216e+08 6.65467e+08 6.66486e+08 6.68021e+08 0 0
058 2 0 6.75254e+08 6.75514e+08 6.76533e+08 6.7891e+08 1 1
059 1 0 6.81519e+08 6.81774e+08 6.82793e+08 6.84131e+08 0 0
060 1 0 6.91567e+08 6.9182e+08 6.92839e+08 7.28803e+08 1 0
061 1 1 7.389e+08 7.39157e+08 7.40176e+08 7.41886e+08 1 1
062 1 1 7.44627e+08 7.44885e+08 7.45904e+08 7.58207e+08 0 1
063 2 1 7.60841e+08 7.61088e+08 7.62107e+08 7.71942e+08 0 0
064 2 0 7.81619e+08 7.81871e+08 7.8289e+08 7.82908e+08 1 1
065 1 1 7.92753e+08 7.93004e+08 7.94023e+08 7.94748e+08 0 1
066 2 1 7.97699e+08 7.97952e+08 7.98971e+08 8.0286e+08 0 0
067 2 0 8.10364e+08 8.10616e+08 8.11635e+08 8.31527e+08 1 1
068 2 1 8.3442e+08 8.34667e+08 8.35686e+08 8.41661e+08 0 0
069 2 0 8.50776e+08 8.51024e+08 8.52043e+08 8.6021e+08 1 1
070 2 1 8.6322e+08 8.63478e+08 8.64498e+08 8.75956e+08 0 0
071 2 0 8.83291e+08 8.83537e+08 8.84557e+08 9.07217e+08 1 1
072 1 0 9.10454e+08 9.10699e+08 9.11718e+08 9.13702e+08 0 0
073 1 1 9.20867e+08 9.21127e+08 9.22146e+08 9.24953e+08 1 1
074 2 1 9.27536e+08 9.27796e+08 9.28815e+08 9.37504e+08 0 0
075 2 1 9.45524e+08 9.45782e+08 9.46801e+08 9.46915e+08 1 0
076 2 1 9.6235e+08 9.62593e+08 9.63613e+08 9.87807e+08 1 0
077 2 0 9.94902e+08 9.95152e+08 9.96172e+08 1.00545e+09 1 1
078 1 0 1.00805e+09 1.00831e+09 1.00933e+09 1.01359e+09 0 0
079 1 0 1.02559e+09 1.02584e+09 1.02686e+09 1.02697e+09 1 0
080 1 1 1.03418e+09 1.03443e+09 1.03545e+09 1.0357e+09 1 1
081 1 1 1.0384e+09 1.03864e+09 1.03966e+09 1.04292e+09 0 1
082 1 1 1.04558e+09 1.04584e+09 1.04686e+09 1.06758e+09 0 1
083 2 1 1.07022e+09 1.07049e+09 1.07151e+09 1.07922e+09 0 0
084 2 1 1.08625e+09 1.08651e+09 1.08753e+09 1.12142e+09 1 0
085 2 1 1.12994e+09 1.13019e+09 1.13121e+09 1.13663e+09 1 0
086 2 0 1.14386e+09 1.14411e+09 1.14513e+09 1.14637e+09 1 1
087 1 1 1.15018e+09 1.15044e+09 1.15146e+09 1.15188e+09 0 1
088 2 0 1.16113e+09 1.16138e+09 1.1624e+09 1.17665e+09 0 1
089 1 1 1.18582e+09 1.18608e+09 1.1871e+09 1.19211e+09 0 1
090 1 1 1.19499e+09 1.19524e+09 1.19626e+09 1.20682e+09 0 1
091 1 1 1.20961e+09 1.20986e+09 1.21088e+09 1.22576e+09 0 1
092 2 1 1.22836e+09 1.22863e+09 1.22965e+09 1.24187e+09 0 0
093 2 1 1.25026e+09 1.25051e+09 1.25153e+09 1.25154e+09 1 0
094 2 1 1.2616e+09 1.26186e+09 1.26288e+09 1.26341e+09 1 0
095 2 0 1.2746e+09 1.27486e+09 1.27587e+09 1.27731e+09 1 1
096 2 1 1.28307e+09 1.28333e+09 1.28435e+09 1.29084e+09 0 0
097 2 1 1.29809e+09 1.29835e+09 1.29936e+09 1.29986e+09 1 0
098 2 1 1.31505e+09 1.31531e+09 1.31633e+09 1.31762e+09 1 0
099 2 0 1.32545e+09 1.3257e+09 1.32672e+09 1.32875e+09 1 1
100 2 1 1.33611e+09 1.33636e+09 1.33738e+09 1.34135e+09 0 0
101 2 0 1.34963e+09 1.34987e+09 1.35089e+09 1.35838e+09 1 1
102 2 1 1.36125e+09 1.3615e+09 1.36252e+09 1.36642e+09 0 0
103 2 1 1.37383e+09 1.37407e+09 1.37509e+09 1.37516e+09 1 0
104 2 1 1.38823e+09 1.3885e+09 1.38952e+09 1.39002e+09 1 0
105 2 0 1.39848e+09 1.39873e+09 1.39975e+09 1.40055e+09 1 1
106 2 1 1.41006e+09 1.41032e+09 1.41134e+09 1.41535e+09 0 0
107 2 0 1.42256e+09 1.42282e+09 1.42384e+09 1.42548e+09 1 1
108 1 1 1.42943e+09 1.42969e+09 1.43071e+09 1.44154e+09 0 1
109 2 1 1.44434e+09 1.44459e+09 1.44561e+09 1.44936e+09 0 0
110 2 1 1.46137e+09 1.46163e+09 1.46265e+09 1.46267e+09 1 0
111 2 1 1.47086e+09 1.47112e+09 1.47214e+09 1.47533e+09 1 0
112 2 0 1.48275e+09 1.48302e+09 1.48403e+09 1.48596e+09 1 1
113 1 1 1.4887e+09 1.48895e+09 1.48997e+09 1.49777e+09 0 1
114 2 1 1.50052e+09 1.50078e+09 1.5018e+09 1.51303e+09 0 0
115 2 1 1.52021e+09 1.52046e+09 1.52148e+09 1.55273e+09 1 0
116 2 1 1.56063e+09 1.5609e+09 1.56192e+09 1.56676e+09 1 0
117 2 0 1.57747e+09 1.57773e+09 1.57875e+09 1.57916e+09 1 1
118 1 1 1.58618e+09 1.58645e+09 1.58747e+09 1.58873e+09 0 1
119 1 1 1.59573e+09 1.59598e+09 1.597e+09 1.59981e+09 0 1
120 2 1 1.60279e+09 1.60305e+09 1.60407e+09 1.61976e+09 0 0
121 2 0 1.62827e+09 1.62853e+09 1.62955e+09 1.63156e+09 1 1
122 2 1 1.63818e+09 1.63845e+09 1.63947e+09 1.6411e+09 0 0
123 2 1 1.64913e+09 1.64939e+09 1.65041e+09 1.65049e+09 1 0
124 2 1 1.65851e+09 1.65878e+09 1.6598e+09 1.66372e+09 1 0
125 2 1 1.68499e+09 1.68527e+09 1.68629e+09 1.68658e+09 1 0
126 1 0 1.69891e+09 1.69917e+09 1.70019e+09 1.70038e+09 0 0
127 2 0 1.70871e+09 1.70897e+09 1.70999e+09 1.71135e+09 0 1
128 2 1 1.71731e+09 1.71756e+09 1.71858e+09 1.71905e+09 0 0
129 2 1 1.72671e+09 1.72697e+09 1.72799e+09 1.72818e+09 1 0
130 2 1 1.73571e+09 1.73597e+09 1.73699e+09 1.77356e+09 1 0
131 2 1 1.78686e+09 1.78711e+09 1.78813e+09 1.7896e+09 1 0
132 2 1 1.79811e+09 1.79837e+09 1.79938e+09 1.80125e+09 0 0
133 2 1 1.811e+09 1.81125e+09 1.81227e+09 1.81251e+09 0 0
134 1 0 1.81997e+09 1.82021e+09 1.82123e+09 1.82241e+09 0 0
135 2 1 1.82978e+09 1.83003e+09 1.83105e+09 1.83153e+09 0 0
136 1 1 1.84338e+09 1.84364e+09 1.84466e+09 1.84502e+09 0 1
137 2 1 1.84991e+09 1.85016e+09 1.85118e+09 1.85339e+09 0 0
138 2 0 1.86392e+09 1.86417e+09 1.86519e+09 1.87706e+09 1 1
139 2 0 1.88568e+09 1.88593e+09 1.88695e+09 1.88748e+09 0 1
140 2 1 1.90052e+09 1.90078e+09 1.9018e+09 1.90347e+09 0 0
141 2 0 1.9106e+09 1.91085e+09 1.91187e+09 1.91412e+09 1 1
142 1 1 1.92152e+09 1.92178e+09 1.9228e+09 1.92357e+09 0 1
143 1 1 1.92629e+09 1.92655e+09 1.92757e+09 1.92823e+09 0 1
144 2 1 1.93493e+09 1.9352e+09 1.93622e+09 1.93688e+09 0 0
145 2 1 1.94505e+09 1.94531e+09 1.94633e+09 1.94749e+09 1 0
146 2 1 1.95712e+09 1.95737e+09 1.95839e+09 1.9666e+09 1 0
147 2 1 1.97838e+09 1.97863e+09 1.97965e+09 1.98018e+09 1 0
148 1 0 1.98916e+09 1.98942e+09 1.99044e+09 1.99134e+09 0 0
149 1 0 2.0024e+09 2.00266e+09 2.00368e+09 2.00472e+09 0 0
150 2 1 2.01631e+09 2.01656e+09 2.01758e+09 2.01762e+09 0 0
151 2 1 2.02904e+09 2.02929e+09 2.03031e+09 2.03034e+09 0 0
152 2 0 2.0377e+09 2.03797e+09 2.03899e+09 2.03959e+09 0 1
153 1 1 2.04353e+09 2.04378e+09 2.0448e+09 2.04659e+09 0 1
154 1 1 2.05304e+09 2.05329e+09 2.05431e+09 2.05511e+09 0 1
155 2 1 2.06272e+09 2.06297e+09 2.06399e+09 2.07334e+09 0 0
156 2 1 2.08094e+09 2.08118e+09 2.0822e+09 2.08225e+09 1 0
157 2 1 2.09487e+09 2.09511e+09 2.09613e+09 2.0964e+09 1 0
158 2 0 2.10501e+09 2.10526e+09 2.10628e+09 2.1063e+09 1 1
159 1 1 2.11344e+09 2.11369e+09 2.11471e+09 2.11547e+09 0 1
160 2 1 2.12007e+09 2.12034e+09 2.12135e+09 2.12409e+09 0 0
161 2 1 2.13288e+09 2.13314e+09 2.13416e+09 2.13604e+09 1 0
162 2 0 2.14822e+09 2.14847e+09 2.14949e+09 2.15124e+09 1 1
163 1 1 2.16298e+09 2.16324e+09 2.16426e+09 2.16816e+09 0 1
164 2 1 2.17091e+09 2.17117e+09 2.17219e+09 2.17694e+09 0 0
165 2 1 2.18421e+09 2.18447e+09 2.18549e+09 2.18552e+09 1 0
166 2 1 2.19784e+09 2.1981e+09 2.19912e+09 2.19941e+09 1 0
167 2 0 2.20938e+09 2.20964e+09 2.21066e+09 2.21527e+09 1 1
168 2 0 2.22314e+09 2.2234e+09 2.22441e+09 2.22858e+09 0 1
169 2 0 2.23313e+09 2.23338e+09 2.2344e+09 2.24192e+09 0 1
170 2 1 2.24555e+09 2.2458e+09 2.24682e+09 2.2509e+09 0 0
171 2 0 2.25955e+09 2.2598e+09 2.26082e+09 2.26084e+09 1 1
172 1 0 2.28476e+09 2.28502e+09 2.28604e+09 2.29328e+09 0 0
173 1 0 2.30418e+09 2.30443e+09 2.30545e+09 2.30966e+09 1 0
174 1 0 2.31713e+09 2.31738e+09 2.3184e+09 2.34012e+09 1 0
175 1 0 2.34787e+09 2.34813e+09 2.34915e+09 2.35002e+09 1 0
176 2 1 2.35969e+09 2.35995e+09 2.36097e+09 2.36249e+09 0 0
177 1 1 2.37104e+09 2.37129e+09 2.37231e+09 2.3748e+09 0 1
178 1 1 2.38001e+09 2.38027e+09 2.38129e+09 2.41355e+09 0 1
179 1 1 2.41614e+09 2.4164e+09 2.41742e+09 2.42612e+09 0 1
180 1 1 2.42905e+09 2.42931e+09 2.43033e+09 2.44558e+09 0 1
181 2 1 2.44845e+09 2.44871e+09 2.44973e+09 2.47661e+09 0 0
182 2 1 2.48506e+09 2.48531e+09 2.48633e+09 2.50507e+09 1 0
183 2 1 2.52277e+09 2.52302e+09 2.52404e+09 2.52441e+09 1 0
184 2 0 2.53161e+09 2.53187e+09 2.53288e+09 2.53301e+09 1 1
185 1 1 2.54299e+09 2.54325e+09 2.54427e+09 2.54684e+09 0 1
186 1 1 2.54972e+09 2.54998e+09 2.551e+09 2.56125e+09 0 1
187 1 0 2.56425e+09 2.56451e+09 2.56553e+09 2.57134e+09 0 0
188 1 0 2.58169e+09 2.58195e+09 2.58297e+09 2.5834e+09 1 0
189 1 0 2.59221e+09 2.59247e+09 2.59349e+09 2.59624e+09 1 0
190 1 1 2.60369e+09 2.60395e+09 2.60497e+09 2.6053e+09 1 1
191 2 1 2.60795e+09 2.60821e+09 2.60923e+09 2.61872e+09 0 0
192 2 1 2.62731e+09 2.62756e+09 2.62858e+09 2.65265e+09 1 0
193 2 0 2.65992e+09 2.66017e+09 2.66119e+09 2.70934e+09 1 1
194 2 1 2.7158e+09 2.71605e+09 2.71707e+09 2.72982e+09 0 0
195 2 1 2.73743e+09 2.7377e+09 2.73872e+09 2.74124e+09 1 0
196 2 1 2.7499e+09 2.75015e+09 2.75117e+09 2.75292e+09 1 0
197 2 0 2.76e+09 2.76026e+09 2.76128e+09 2.76789e+09 1 1
198 2 1 2.7704e+09 2.77064e+09 2.77166e+09 2.77461e+09 0 0
199 2 1 2.78311e+09 2.78336e+09 2.78438e+09 2.81294e+09 1 0
200 2 1 2.82018e+09 2.82045e+09 2.82147e+09 2.82163e+09 1 0
201 2 0 2.8289e+09 2.82915e+09 2.83017e+09 2.83023e+09 1 1
202 1 1 2.83481e+09 2.83507e+09 2.83609e+09 2.8363e+09 0 1
203 2 1 2.84806e+09 2.84831e+09 2.84933e+09 2.93489e+09 0 0
204 2 1 2.94371e+09 2.94396e+09 2.94498e+09 2.97173e+09 1 0
205 2 1 2.98225e+09 2.98251e+09 2.98353e+09 2.98358e+09 1 0
206 2 0 2.99115e+09 2.99141e+09 2.99242e+09 2.99271e+09 1 1
207 1 1 2.99938e+09 2.99964e+09 3.00066e+09 3.00707e+09 0 1
208 1 1 3.00963e+09 3.00988e+09 3.0109e+09 3.01458e+09 0 1
209 1 0 3.01816e+09 3.01841e+09 3.01943e+09 3.02343e+09 0 0
210 1 0 3.03201e+09 3.03225e+09 3.03327e+09 3.04604e+09 1 0
211 1 1 3.05313e+09 3.05339e+09 3.05441e+09 3.05548e+09 1 1
212 2 1 3.05802e+09 3.05827e+09 3.05929e+09 3.06866e+09 0 0
213 2 1 3.07933e+09 3.07959e+09 3.08061e+09 3.08193e+09 1 0
214 2 1 3.09094e+09 3.0912e+09 3.09222e+09 3.093e+09 1 0
215 2 1 3.10122e+09 3.10146e+09 3.10248e+09 3.10318e+09 1 0
216 1 1 3.11374e+09 3.11399e+09 3.11501e+09 3.11511e+09 0 1
217 2 1 3.12302e+09 3.12328e+09 3.1243e+09 3.12935e+09 0 0
218 2 0 3.13677e+09 3.13702e+09 3.13804e+09 3.14705e+09 1 1
219 2 1 3.14981e+09 3.15007e+09 3.15109e+09 3.16065e+09 0 0
220 2 0 3.1689e+09 3.16915e+09 3.17017e+09 3.17278e+09 1 1
221 1 0 3.17561e+09 3.17585e+09 3.17687e+09 3.18201e+09 0 0
222 1 0 3.19099e+09 3.19123e+09 3.19225e+09 3.19478e+09 1 0
223 1 0 3.20315e+09 3.2034e+09 3.20442e+09 3.25002e+09 1 0
224 1 1 3.25732e+09 3.25758e+09 3.2586e+09 3.25936e+09 1 1
225 2 1 3.26213e+09 3.26239e+09 3.26341e+09 3.28106e+09 0 0
226 2 0 3.28861e+09 3.28887e+09 3.28989e+09 3.29e+09 1 1
227 1 1 3.29288e+09 3.29313e+09 3.29415e+09 3.29544e+09 0 1
228 2 0 3.30145e+09 3.30171e+09 3.30273e+09 3.30324e+09 0 1
229 1 0 3.31173e+09 3.31199e+09 3.31301e+09 3.31317e+09 0 0
230 1 1 3.32219e+09 3.32246e+09 3.32348e+09 3.32373e+09 1 1
231 1 1 3.32661e+09 3.32687e+09 3.32789e+09 3.34268e+09 0 1
232 2 1 3.34525e+09 3.3455e+09 3.34652e+09 3.38092e+09 0 0
233 2 1 3.38996e+09 3.39021e+09 3.39122e+09 3.40355e+09 1 0
234 2 0 3.41378e+09 3.41404e+09 3.41506e+09 3.42862e+09 1 1
235 2 1 3.43137e+09 3.43162e+09 3.43264e+09 3.4382e+09 0 0
236 2 1 3.44552e+09 3.44577e+09 3.44679e+09 3.4548e+09 1 0
237 2 1 3.46242e+09 3.46268e+09 3.4637e+09 3.46754e+09 1 0
238 2 0 3.47549e+09 3.47574e+09 3.47676e+09 3.47705e+09 1 1
239 2 1 3.48839e+09 3.48864e+09 3.48966e+09 3.48976e+09 0 0
240 2 1 3.49735e+09 3.49761e+09 3.49863e+09 3.51107e+09 1 0
241 2 0 3.51969e+09 3.51995e+09 3.52097e+09 3.52529e+09 1 1
242 2 1 3.53097e+09 3.53122e+09 3.53224e+09 3.53318e+09 0 0
243 2 0 3.54056e+09 3.54082e+09 3.54184e+09 3.54559e+09 1 1
244 1 1 3.54812e+09 3.54837e+09 3.54939e+09 3.55567e+09 0 1
245 2 1 3.55863e+09 3.55888e+09 3.5599e+09 3.56775e+09 0 0
246 2 0 3.57542e+09 3.57569e+09 3.57671e+09 3.59991e+09 1 1
247 1 1 3.60599e+09 3.60625e+09 3.60727e+09 3.6169e+09 0 1
248 2 1 3.6195e+09 3.61977e+09 3.62078e+09 3.63094e+09 0 0
249 2 0 3.64789e+09 3.64815e+09 3.64917e+09 3.6492e+09 1 1
250 2 1 3.65707e+09 3.65734e+09 3.65836e+09 3.66058e+09 0 0
251 2 0 3.66862e+09 3.66888e+09 3.6699e+09 3.6874e+09 1 1
252 1 0 3.69368e+09 3.69394e+09 3.69496e+09 3.69963e+09 0 0
253 1 0 3.70919e+09 3.70944e+09 3.71045e+09 3.71302e+09 1 0
254 1 0 3.72356e+09 3.72382e+09 3.72484e+09 3.72566e+09 1 0
255 1 1 3.73284e+09 3.7331e+09 3.73412e+09 3.73864e+09 1 1
256 2 0 3.74149e+09 3.74176e+09 3.74278e+09 3.78579e+09 0 1
257 1 1 3.78901e+09 3.78927e+09 3.79029e+09 3.79233e+09 0 1
258 2 1 3.79507e+09 3.79532e+09 3.79634e+09 3.79977e+09 0 0
259 2 1 3.80814e+09 3.8084e+09 3.80942e+09 3.80947e+09 1 0
260 2 1 3.81653e+09 3.81678e+09 3.8178e+09 3.81832e+09 1 0
261 2 1 3.82578e+09 3.82605e+09 3.82707e+09 3.82721e+09 1 0
262 2 1 3.83739e+09 3.83764e+09 3.83866e+09 3.84058e+09 0 0
263 1 0 3.85043e+09 3.85069e+09 3.85171e+09 3.85412e+09 0 0
264 1 0 3.86246e+09 3.86272e+09 3.86374e+09 3.86384e+09 0 0
265 1 1 3.87315e+09 3.8734e+09 3.87442e+09 3.87595e+09 0 1
266 2 0 3.87998e+09 3.88023e+09 3.88125e+09 3.88666e+09 0 1
267 1 1 3.89021e+09 3.89047e+09 3.89149e+09 3.89419e+09 0 1
268 1 1 3.89863e+09 3.89887e+09 3.89989e+09 3.9077e+09 0 1
269 2 1 3.91385e+09 3.9141e+09 3.91512e+09 3.91625e+09 0 0
270 2 1 3.92333e+09 3.92359e+09 3.92461e+09 3.9302e+09 1 0
271 2 1 3.93851e+09 3.93877e+09 3.93979e+09 3.98437e+09 1 0
272 2 1 3.99143e+09 3.99169e+09 3.99271e+09 3.99507e+09 1 0
273 1 0 4.00298e+09 4.00324e+09 4.00426e+09 4.00709e+09 0 0
274 2 1 4.01485e+09 4.0151e+09 4.01612e+09 4.01617e+09 0 0
275 2 1 4.02335e+09 4.0236e+09 4.02462e+09 4.02848e+09 0 0
276 2 0 4.03567e+09 4.03592e+09 4.03694e+09 4.03697e+09 0 1
277 2 1 4.04224e+09 4.04249e+09 4.04351e+09 4.04553e+09 0 0
278 2 1 4.05416e+09 4.05441e+09 4.05542e+09 4.10861e+09 1 0
279 2 1 4.11593e+09 4.11619e+09 4.1172e+09 4.12288e+09 1 0
280 2 1 4.13076e+09 4.13102e+09 4.13204e+09 4.13304e+09 1 0
281 2 1 4.14078e+09 4.14103e+09 4.14205e+09 4.14381e+09 0 0
282 2 1 4.15327e+09 4.15354e+09 4.15455e+09 4.15593e+09 0 0
283 1 1 4.16306e+09 4.16331e+09 4.16433e+09 4.16941e+09 0 1
284 1 1 4.17528e+09 4.17553e+09 4.17655e+09 4.18469e+09 0 1
285 2 1 4.18719e+09 4.18746e+09 4.18848e+09 4.20269e+09 0 0
286 2 0 4.2107e+09 4.21095e+09 4.21197e+09 4.21415e+09 1 1
287 1 0 4.21966e+09 4.21992e+09 4.22094e+09 4.22891e+09 0 0
288 1 0 4.23601e+09 4.23627e+09 4.23729e+09 4.24144e+09 1 0
289 1 1 4.2491e+09 4.24935e+09 4.25037e+09 4.25105e+09 1 1
290 2 1 4.25535e+09 4.2556e+09 4.25662e+09 4.26077e+09 0 0
291 2 1 4.26801e+09 4.26826e+09 4.26928e+09 4.29394e+09 1 0
292 2 1 7.09838e+06 7.36532e+06 8.38446e+06 1.41879e+07 1 0
293 2 0 2.12624e+07 2.15204e+07 2.25396e+07 2.66722e+07 1 1
294 1 1 3.01046e+07 3.0351e+07 3.13702e+07 4.15495e+07 0 1
295 1 1 4.44877e+07 4.47461e+07 4.57653e+07 5.33696e+07 0 1
296 1 1 6.21783e+07 6.2438e+07 6.34571e+07 6.55673e+07 0 1
297 1 0 7.38089e+07 7.40724e+07 7.50915e+07 7.67589e+07 0 0
298 1 0 8.52603e+07 8.55051e+07 8.65242e+07 8.66186e+07 1 0
299 1 0 9.56897e+07 9.59518e+07 9.6971e+07 9.75223e+07 1 0
300 1 1 1.04723e+08 1.04982e+08 1.06001e+08 1.06245e+08 1 1
301 2 1 1.09502e+08 1.09752e+08 1.10771e+08 1.17166e+08 0 0
302 2 1 1.24426e+08 1.24676e+08 1.25696e+08 1.37064e+08 1 0
303 2 1 1.44229e+08 1.44493e+08 1.45512e+08 1.50197e+08 1 0
304 2 1 1.57604e+08 1.57853e+08 1.58873e+08 1.89367e+08 1 0
305 1 1 1.9809e+08 1.98348e+08 1.99367e+08 1.99402e+08 0 1
306 1 1 2.07266e+08 2.07522e+08 2.08541e+08 2.08732e+08 0 1
307 1 1 2.19401e+08 2.19652e+08 2.20671e+08 2.21439e+08 0 1
308 1 1 2.25905e+08 2.26165e+08 2.27184e+08 2.27693e+08 0 1
309 1 0 2.31671e+08 2.31926e+08 2.32946e+08 2.346e+08 0 0
310 1 1 2.4345e+08 2.43709e+08 2.44728e+08 2.69771e+08 1 1
311 2 0 2.72442e+08 2.7269e+08 2.7371e+08 2.83231e+08 0 1
312 2 1 2.90524e+08 2.90778e+08 2.91797e+08 2.92982e+08 0 0
313 2 1 3.02001e+08 3.02244e+08 3.03263e+08 3.03704e+08 1 0
314 2 1 3.1364e+08 3.13886e+08 3.14905e+08 3.15752e+08 1 0
315 2 1 3.22964e+08 3.23222e+08 3.24241e+08 3.24651e+08 1 0
316 1 0 3.3236e+08 3.32611e+08 3.3363e+08 3.45645e+08 0 0
317 1 1 3.53097e+08 3.53341e+08 3.5436e+08 3.57065e+08 0 1
318 2 1 3.63643e+08 3.63904e+08 3.64923e+08 3.69404e+08 0 0
319 2 0 3.77739e+08 3.77993e+08 3.79012e+08 3.83831e+08 1 1
320 2 1 3.87729e+08 3.87994e+08 3.89013e+08 3.94973e+08 0 0
321 2 0 4.03666e+08 4.03917e+08 4.04937e+08 4.04963e+08 1 1
322 2 1 4.11926e+08 4.12169e+08 4.13188e+08 4.15134e+08 0 0
323 2 1 4.23663e+08 4.23917e+08 4.24936e+08 4.25536e+08 1 0
324 2 0 4.33611e+08 4.33854e+08 4.34874e+08 4.36568e+08 1 1
325 1 1 4.46451e+08 4.46708e+08 4.47727e+08 4.4905e+08 0 1
326 1 1 4.51831e+08 4.5209e+08 4.53109e+08 4.57359e+08 0 1
327 1 0 4.59996e+08 4.60254e+08 4.61273e+08 4.62233e+08 0 0
328 1 1 4.6972e+08 4.69975e+08 4.70995e+08 4.71761e+08 1 1
329 2 1 4.74973e+08 4.75227e+08 4.76246e+08 4.7812e+08 0 0
330 2 1 4.85236e+08 4.8548e+08 4.86499e+08 5.07995e+08 1 0
331 2 0 5.15126e+08 5.1537e+08 5.16389e+08 7.14391e+08 1 1
332 2 1 7.17322e+08 7.1757e+08 7.18589e+08 7.21661e+08 0 0
333 2 0 7.29067e+08 7.2932e+08 7.30339e+08 7.59545e+08 1 1
334 1 0 7.65625e+08 7.65876e+08 7.66895e+08 7.70684e+08 0 0
335 1 0 7.78082e+08 7.78332e+08 7.79351e+08 7.89048e+08 1 0
336 1 0 7.96284e+08 7.9654e+08 7.97559e+08 8.1232e+08 1 0
337 1 0 8.27154e+08 8.2741e+08 8.28429e+08 8.3027e+08 1 0
338 2 0 8.37816e+08 8.38065e+08 8.39084e+08 8.41371e+08 0 1
339 1 1 8.45565e+08 8.45809e+08 8.46828e+08 8.46837e+08 0 1
340 1 1 8.53411e+08 8.53664e+08 8.54683e+08 8.55117e+08 0 1
341 1 1 8.58103e+08 8.58354e+08 8.59373e+08 8.6299e+08 0 1
342 2 0 8.67216e+08 8.67469e+08 8.68488e+08 9.15549e+08 0 1
343 1 0 9.21829e+08 9.2208e+08 9.23099e+08 9.25532e+08 0 0
344 1 0 9.32609e+08 9.32858e+08 9.33877e+08 9.37252e+08 1 0
345 1 0 9.44401e+08 9.44646e+08 9.45666e+08 9.60627e+08 1 0
346 1 1 9.67892e+08 9.68152e+08 9.69171e+08 9.80122e+08 1 1
347 1 1 9.85298e+08 9.85545e+08 9.86564e+08 9.91405e+08 0 1
348 2 1 9.94335e+08 9.94582e+08 9.95601e+08 1.00232e+09 0 0
349 2 0 1.00939e+09 1.00965e+09 1.01067e+09 1.01138e+09 1 1
350 2 0 1.02098e+09 1.02124e+09 1.02225e+09 1.02358e+09 0 1
351 1 1 1.02682e+09 1.02708e+09 1.0281e+09 1.04188e+09 0 1
352 1 1 1.04579e+09 1.04604e+09 1.04706e+09 1.05155e+09 0 1
353 1 1 1.05476e+09 1.055e+09 1.05602e+09 1.05612e+09 0 1
354 1 1 1.06344e+09 1.0637e+09 1.06472e+09 1.06653e+09 0 1
355 2 0 1.07493e+09 1.07519e+09 1.07621e+09 1.07643e+09 0 1
356 2 1 1.08062e+09 1.08089e+09 1.08191e+09 1.09662e+09 0 0
357 2 1 1.10562e+09 1.10587e+09 1.10689e+09 1.10781e+09 1 0
358 2 0 1.11493e+09 1.11517e+09 1.11619e+09 1.11734e+09 1 1
359 2 1 1.12153e+09 1.12178e+09 1.1228e+09 1.12691e+09 0 0
360 2 0 1.13402e+09 1.13427e+09 1.13529e+09 1.13986e+09 1 1
361 2 0 1.1439e+09 1.14415e+09 1.14517e+09 1.16148e+09 0 1
362 1 0 1.16563e+09 1.16588e+09 1.1669e+09 1.16772e+09 0 0
363 1 1 1.17565e+09 1.17591e+09 1.17693e+09 1.18244e+09 1 1
364 2 0 1.18509e+09 1.18535e+09 1.18637e+09 1.19306e+09 0 1
365 1 1 1.20238e+09 1.20263e+09 1.20365e+09 1.20669e+09 0 1
366 2 0 1.21154e+09 1.21179e+09 1.21281e+09 1.21461e+09 0 1
367 2 0 1.22009e+09 1.22034e+09 1.22136e+09 1.22167e+09 0 1
368 2 1 1.22732e+09 1.22757e+09 1.22859e+09 1.23227e+09 0 0
369 2 0 1.2397e+09 1.23996e+09 1.24098e+09 1.27532e+09 1 1
370 2 1 1.28003e+09 1.28028e+09 1.2813e+09 1.28316e+09 0 0
371 2 0 1.29068e+09 1.29093e+09 1.29195e+09 1.32649e+09 1 1
372 1 0 1.33126e+09 1.33151e+09 1.33253e+09 1.34326e+09 0 0
373 1 0 1.35099e+09 1.35125e+09 1.35226e+09 1.35326e+09 1 0
374 1 0 1.36302e+09 1.36328e+09 1.36429e+09 1.38355e+09 1 0
375 1 0 1.39075e+09 1.39101e+09 1.39203e+09 1.40284e+09 1 0
376 2 0 1.41318e+09 1.41343e+09 1.41445e+09 1.42222e+09 0 1
377 2 1 1.42792e+09 1.42817e+09 1.42919e+09 1.46015e+09 0 0
378 2 0 1.46834e+09 1.46859e+09 1.46961e+09 1.46993e+09 1 1
379 1 0 1.47399e+09 1.47424e+09 1.47526e+09 1.48376e+09 0 0
380 1 0 1.49127e+09 1.49153e+09 1.49255e+09 1.4984e+09 1 0
381 1 0 1.50725e+09 1.5075e+09 1.50852e+09 1.51666e+09 1 0
382 1 0 1.5238e+09 1.52405e+09 1.52507e+09 1.53462e+09 1 0
383 2 0 1.5421e+09 1.54236e+09 1.54338e+09 1.54341e+09 0 1
384 1 1 1.54636e+09 1.54661e+09 1.54763e+09 1.54892e+09 0 1
385 2 1 1.55435e+09 1.5546e+09 1.55562e+09 1.56954e+09 0 0
386 2 1 1.57681e+09 1.57706e+09 1.57808e+09 1.58068e+09 1 0
387 2 1 1.58819e+09 1.58845e+09 1.58947e+09 1.59256e+09 1 0
388 2 1 1.60207e+09 1.60233e+09 1.60334e+09 1.62174e+09 1 0
389 2 1 1.62923e+09 1.62948e+09 1.6305e+09 1.63171e+09 0 0
390 2 1 1.63882e+09 1.63907e+09 1.64009e+09 1.64076e+09 0 0
391 1 0 1.64884e+09 1.64908e+09 1.6501e+09 1.65243e+09 0 0
392 1 0 1.65979e+09 1.66004e+09 1.66106e+09 1.73594e+09 0 0
393 1 1 1.7441e+09 1.74435e+09 1.74537e+09 1.86016e+09 0 1
394 1 1 1.86309e+09 1.86335e+09 1.86436e+09 1.86758e+09 0 1
395 1 1 1.87123e+09 1.87148e+09 1.8725e+09 1.88978e+09 0 1
396 1 0 1.8952e+09 1.89545e+09 1.89647e+09 2.01167e+09 0 0
397 1 0 2.01898e+09 2.01923e+09 2.02025e+09 2.07475e+09 1 0
398 1 1 2.08217e+09 2.08242e+09 2.08344e+09 2.1217e+09 1 1
399 2 0 2.12468e+09 2.12492e+09 2.12594e+09 2.13471e+09 0 1
400 1 1 2.13732e+09 2.13757e+09 2.13859e+09 2.1449e+09 0 1
401 2 1 2.14898e+09 2.14925e+09 2.15026e+09 2.20397e+09 0 0
402 2 1 2.21105e+09 2.21129e+09 2.21231e+09 2.26865e+09 1 0
403 2 1 2.27593e+09 2.2762e+09 2.27722e+09 2.2867e+09 1 0
404 2 1 2.29401e+09 2.29426e+09 2.29528e+09 2.31725e+09 1 0
405 1 1 2.32465e+09 2.3249e+09 2.32592e+09 2.34517e+09 0 1
406 1 1 2.3482e+09 2.34845e+09 2.34947e+09 2.36091e+09 0 1
407 2 1 2.36392e+09 2.36418e+09 2.3652e+09 2.36935e+09 0 0
408 2 1 2.37685e+09 2.3771e+09 2.37812e+09 2.4035e+09 1 0
409 2 1 2.41057e+09 2.41082e+09 2.41184e+09 2.42035e+09 1 0
410 2 1 2.42761e+09 2.42787e+09 2.42889e+09 2.45921e+09 1 0
411 2 1 2.46644e+09 2.46669e+09 2.46771e+09 2.47317e+09 0 0
412 1 0 2.4836e+09 2.48386e+09 2.48488e+09 2.49847e+09 0 0
413 2 1 2.50578e+09 2.50603e+09 2.50705e+09 2.53614e+09 0 0
414 1 1 2.54502e+09 2.54528e+09 2.5463e+09 2.56895e+09 0 1
415 1 1 2.57176e+09 2.57201e+09 2.57303e+09 2.59526e+09 0 1
416 1 1 2.59823e+09 2.59849e+09 2.59951e+09 2.61495e+09 0 1
417 2 0 2.618e+09 2.61826e+09 2.61928e+09 2.62305e+09 0 1
418 1 1 2.62574e+09 2.62599e+09 2.62701e+09 2.63873e+09 0 1
419 2 0 2.64164e+09 2.64189e+09 2.64291e+09 2.66535e+09 0 1
420 1 1 2.66864e+09 2.6689e+09 2.66992e+09 2.6841e+09 0 1
421 2 1 2.68717e+09 2.68742e+09 2.68844e+09 2.69578e+09 0 0
422 2 1 2.70327e+09 2.70352e+09 2.70454e+09 2.72399e+09 1 0
423 2 1 2.73121e+09 2.73147e+09 2.73249e+09 2.76477e+09 1 0
424 2 1 2.77207e+09 2.77232e+09 2.77334e+09 2.79916e+09 1 0
425 2 1 2.80777e+09 2.80802e+09 2.80903e+09 2.82896e+09 0 0
426 2 1 2.83611e+09 2.83636e+09 2.83738e+09 2.84971e+09 0 0
427 1 1 2.8569e+09 2.85714e+09 2.85816e+09 2.8733e+09 0 1
428 1 1 2.87666e+09 2.87691e+09 2.87793e+09 2.88473e+09 0 1
429 2 1 2.8922e+09 2.89246e+09 2.89348e+09 2.89436e+09 0 0
430 2 1 2.90139e+09 2.90164e+09 2.90265e+09 2.96882e+09 1 0
