trial trialType response stillTime stimOnset stimOffset respTime correctionTrial correct
001 2 0 3.21435e+06 3.47783e+06 4.49696e+06 5.73354e+06 0 1
002 1 0 3.05224e+07 3.07809e+07 3.18e+07 3.55606e+07 0 0
003 1 1 4.41846e+07 4.44433e+07 4.54624e+07 4.54955e+07 1 1
004 1 1 5.28323e+07 5.30915e+07 5.41107e+07 5.41482e+07 0 1
005 2 0 5.94074e+07 5.96511e+07 6.06703e+07 6.45321e+07 0 1
006 1 1 8.47964e+07 8.50478e+07 8.6067e+07 8.62253e+07 0 1
007 1 1 9.11032e+07 9.13662e+07 9.23853e+07 9.2532e+07 0 1
008 2 0 1.16829e+08 1.17083e+08 1.18102e+08 1.19617e+08 0 1
009 1 1 1.28609e+08 1.28865e+08 1.29884e+08 1.29955e+08 0 1
010 2 0 1.33248e+08 1.33494e+08 1.34513e+08 1.34634e+08 0 1
011 2 0 1.54151e+08 1.54401e+08 1.5542e+08 1.5674e+08 0 1
012 1 1 1.75548e+08 1.75805e+08 1.76824e+08 1.76837e+08 0 1
013 1 0 1.88625e+08 1.88886e+08 1.89905e+08 1.91902e+08 0 0
014 1 1 2.01354e+08 2.01616e+08 2.02635e+08 2.02671e+08 1 1
015 1 0 2.1311e+08 2.13369e+08 2.14388e+08 2.16793e+08 0 0
016 1 1 2.24761e+08 2.25018e+08 2.26037e+08 2.26059e+08 1 1
017 2 0 2.2894e+08 2.29199e+08 2.30218e+08 2.30571e+08 0 1
018 2 1 2.40629e+08 2.40882e+08 2.41901e+08 2.4225e+08 0 0
019 2 0 2.60352e+08 2.60606e+08 2.61625e+08 2.61749e+08 1 1
020 2 0 2.66915e+08 2.67174e+08 2.68193e+08 2.68503e+08 0 1
021 1 1 2.71384e+08 2.71646e+08 2.72665e+08 2.7282e+08 0 1
022 1 1 2.82177e+08 2.82445e+08 2.83464e+08 2.83622e+08 0 1
023 2 1 2.88552e+08 2.88809e+08 2.89828e+08 2.91307e+08 0 0
024 2 1 2.98509e+08 2.98774e+08 2.99793e+08 3.00177e+08 1 0
025 2 0 3.09766e+08 3.1002e+08 3.11039e+08 3.11057e+08 1 1
026 2 0 3.34943e+08 3.3521e+08 3.36229e+08 3.3791e+08 0 1
027 1 1 3.4287e+08 3.43122e+08 3.44142e+08 3.44178e+08 0 1
028 1 1 3.54125e+08 3.54385e+08 3.55404e+08 3.55511e+08 0 1
029 1 1 3.72196e+08 3.72457e+08 3.73476e+08 3.7357e+08 0 1
030 2 1 3.76439e+08 3.76704e+08 3.77723e+08 3.79158e+08 0 0
031 2 0 3.97253e+08 3.9751e+08 3.98529e+08 3.98769e+08 1 1
032 1 1 4.09415e+08 4.09671e+08 4.1069e+08 4.10704e+08 0 1
033 2 1 4.21565e+08 4.21838e+08 4.22858e+08 4.24792e+08 0 0
034 2 0 4.32736e+08 4.33005e+08 4.34024e+08 4.34321e+08 1 1
035 1 1 4.37138e+08 4.37383e+08 4.38402e+08 4.3847e+08 0 1
036 2 1 4.4559e+08 4.45846e+08 4.46866e+08 4.47048e+08 0 0
037 2 0 4.57456e+08 4.57708e+08 4.58727e+08 4.63028e+08 1 1
038 1 1 4.69565e+08 4.69837e+08 4.70856e+08 4.71059e+08 0 1
039 2 0 4.76974e+08 4.7723e+08 4.78249e+08 4.79012e+08 0 1
040 1 1 4.854e+08 4.85664e+08 4.86683e+08 4.86699e+08 0 1
041 2 0 4.99681e+08 4.99939e+08 5.00958e+08 5.01507e+08 0 1
042 2 0 5.04276e+08 5.04529e+08 5.05548e+08 5.06338e+08 0 1
043 2 0 5.12445e+08 5.12701e+08 5.1372e+08 5.1505e+08 0 1
044 1 0 5.19529e+08 5.19799e+08 5.20818e+08 5.2522e+08 0 0
045 1 1 5.411e+08 5.4135e+08 5.42369e+08 5.42391e+08 1 1
046 1 1 5.48579e+08 5.48825e+08 5.49844e+08 5.49885e+08 0 1
047 2 1 5.71729e+08 5.71979e+08 5.72998e+08 5.73213e+08 0 0
048 2 0 5.80337e+08 5.80603e+08 5.81622e+08 5.82911e+08 1 1
049 1 1 5.92612e+08 5.92869e+08 5.93888e+08 5.95645e+08 0 1
050 1 1 5.98609e+08 5.98862e+08 5.99881e+08 5.99948e+08 0 1
051 1 0 6.02439e+08 6.02691e+08 6.0371e+08 6.09665e+08 0 0
052 1 1 6.17123e+08 6.17395e+08 6.18414e+08 6.18513e+08 1 1
053 2 0 6.2452e+08 6.2478e+08 6.25799e+08 6.26425e+08 0 1
054 2 0 6.29361e+08 6.29622e+08 6.30641e+08 6.32987e+08 0 1
055 2 0 6.42029e+08 6.42278e+08 6.43297e+08 6.4781e+08 0 1
056 2 1 6.59971e+08 6.60215e+08 6.61235e+08 6.61338e+08 0 0
057 2 1 6.69362e+08 6.69619e+08 6.70638e+08 6.72524e+08 1 0
058 2 1 6.79903e+08 6.80165e+08 6.81184e+08 6.81273e+08 1 0
059 2 0 6.9043e+08 6.90683e+08 6.91702e+08 6.94504e+08 1 1
060 1 1 6.99204e+08 6.9945e+08 7.00469e+08 7.01164e+08 0 1
061 2 0 7.11164e+08 7.11425e+08 7.12444e+08 7.12672e+08 0 1
062 1 1 7.18807e+08 7.19057e+08 7.20077e+08 7.20085e+08 0 1
063 2 1 7.22627e+08 7.22882e+08 7.23901e+08 7.2438e+08 0 0
064 2 1 7.31699e+08 7.31954e+08 7.32973e+08 7.33293e+08 1 0
065 2 1 7.42405e+08 7.42658e+08 7.43677e+08 7.4381e+08 1 0
066 2 0 7.53043e+08 7.53295e+08 7.54314e+08 7.54324e+08 1 1
067 2 0 7.61358e+08 7.61629e+08 7.62648e+08 7.64198e+08 0 1
068 2 0 7.68941e+08 7.69193e+08 7.70212e+08 7.73673e+08 0 1
069 1 1 7.85397e+08 7.85664e+08 7.86683e+08 7.86825e+08 0 1
070 2 0 7.91778e+08 7.92022e+08 7.93041e+08 7.96803e+08 0 1
071 2 0 8.04953e+08 8.05205e+08 8.06224e+08 8.06386e+08 0 1
072 1 1 8.18805e+08 8.1907e+08 8.20089e+08 8.20283e+08 0 1
073 2 0 8.23374e+08 8.23624e+08 8.24643e+08 8.28006e+08 0 1
074 1 1 8.30497e+08 8.30742e+08 8.31761e+08 8.32169e+08 0 1
075 2 1 8.39974e+08 8.40222e+08 8.41241e+08 8.44018e+08 0 0
076 2 0 8.53309e+08 8.53575e+08 8.54594e+08 8.54629e+08 1 1
077 2 0 8.63172e+08 8.63422e+08 8.64441e+08 8.64499e+08 0 1
078 1 1 8.67012e+08 8.67258e+08 8.68277e+08 8.68337e+08 0 1
079 1 1 8.71239e+08 8.71495e+08 8.72514e+08 8.73374e+08 0 1
080 1 1 8.76011e+08 8.76267e+08 8.77286e+08 8.77462e+08 0 1
081 2 1 8.80061e+08 8.80311e+08 8.8133e+08 8.82163e+08 0 0
082 2 0 8.91458e+08 8.91701e+08 8.9272e+08 8.9499e+08 1 1
083 1 1 8.98712e+08 8.98964e+08 8.99984e+08 9.00089e+08 0 1
084 2 0 9.02575e+08 9.02823e+08 9.03842e+08 9.04218e+08 0 1
085 1 1 9.07218e+08 9.07473e+08 9.08492e+08 9.0867e+08 0 1
086 2 1 9.11773e+08 9.1203e+08 9.13049e+08 9.13271e+08 0 0
087 2 1 9.21253e+08 9.21499e+08 9.22518e+08 9.22546e+08 1 0
088 2 1 9.30394e+08 9.30643e+08 9.31662e+08 9.34514e+08 1 0
089 2 0 9.44871e+08 9.45122e+08 9.46141e+08 9.48303e+08 1 1
090 1 1 9.54134e+08 9.54395e+08 9.55414e+08 9.55522e+08 0 1
091 1 1 9.58189e+08 9.58439e+08 9.59458e+08 9.59476e+08 0 1
092 2 1 9.65942e+08 9.66202e+08 9.67221e+08 9.67784e+08 0 0
093 2 0 9.74823e+08 9.75067e+08 9.76086e+08 9.78037e+08 1 1
094 2 0 9.84952e+08 9.85209e+08 9.86228e+08 9.86393e+08 0 1
095 2 0 9.90206e+08 9.90462e+08 9.91481e+08 9.9306e+08 0 1
096 1 1 9.95747e+08 9.96003e+08 9.97022e+08 9.97032e+08 0 1
097 2 0 1.00266e+09 1.00291e+09 1.00393e+09 1.00407e+09 0 1
098 1 1 1.01102e+09 1.01127e+09 1.01229e+09 1.01291e+09 0 1
099 2 0 1.01583e+09 1.01607e+09 1.01709e+09 1.02398e+09 0 1
100 1 0 1.03216e+09 1.0324e+09 1.03342e+09 1.04088e+09 0 0
101 1 0 1.04806e+09 1.04832e+09 1.04934e+09 1.05165e+09 1 0
102 1 1 1.05996e+09 1.06021e+09 1.06123e+09 1.06155e+09 1 1
103 2 0 1.06526e+09 1.06551e+09 1.06653e+09 1.06723e+09 0 1
104 1 1 1.07007e+09 1.07034e+09 1.07136e+09 1.07138e+09 0 1
105 1 1 1.07431e+09 1.07457e+09 1.07559e+09 1.07646e+09 0 1
106 1 1 1.08146e+09 1.08171e+09 1.08273e+09 1.08325e+09 0 1
107 1 1 1.08589e+09 1.08614e+09 1.08716e+09 1.08723e+09 0 1
108 2 0 1.09263e+09 1.09288e+09 1.0939e+09 1.09553e+09 0 1
109 2 1 1.09918e+09 1.09943e+09 1.10045e+09 1.1045e+09 0 0
110 2 0 1.11194e+09 1.11219e+09 1.11321e+09 1.11386e+09 1 1
111 1 0 1.11646e+09 1.11671e+09 1.11773e+09 1.11776e+09 0 0
112 1 0 1.12503e+09 1.12528e+09 1.1263e+09 1.12648e+09 1 0
113 1 1 1.14114e+09 1.14139e+09 1.14241e+09 1.14309e+09 1 1
114 1 0 1.14612e+09 1.14637e+09 1.14739e+09 1.15525e+09 0 0
115 1 1 1.16243e+09 1.16268e+09 1.1637e+09 1.16395e+09 1 1
116 1 1 1.17352e+09 1.17378e+09 1.17479e+09 1.18032e+09 0 1
117 2 0 1.18294e+09 1.1832e+09 1.18421e+09 1.19002e+09 0 1
118 1 1 1.19683e+09 1.19709e+09 1.19811e+09 1.19813e+09 0 1
119 2 1 1.2016e+09 1.20185e+09 1.20287e+09 1.205e+09 0 0
120 2 0 1.21539e+09 1.21564e+09 1.21666e+09 1.21671e+09 1 1
121 1 1 1.22434e+09 1.2246e+09 1.22562e+09 1.22574e+09 0 1
122 2 0 1.23021e+09 1.23046e+09 1.23148e+09 1.23505e+09 0 1
123 1 1 1.23763e+09 1.23788e+09 1.2389e+09 1.23917e+09 0 1
124 2 0 1.24222e+09 1.24248e+09 1.2435e+09 1.24401e+09 0 1
125 1 1 1.24689e+09 1.24714e+09 1.24816e+09 1.2482e+09 0 1
126 1 1 1.25327e+09 1.25352e+09 1.25454e+09 1.25464e+09 0 1
127 2 0 1.2578e+09 1.25807e+09 1.25909e+09 1.25994e+09 0 1
128 1 0 1.26537e+09 1.26562e+09 1.26664e+09 1.27005e+09 0 0
129 1 1 1.27709e+09 1.27734e+09 1.27836e+09 1.27841e+09 1 1
130 2 0 1.28136e+09 1.28161e+09 1.28263e+09 1.28574e+09 0 1
131 2 0 1.28899e+09 1.28925e+09 1.29027e+09 1.29119e+09 0 1
132 2 0 1.29702e+09 1.29728e+09 1.2983e+09 1.29947e+09 0 1
133 1 1 1.30208e+09 1.30233e+09 1.30335e+09 1.30344e+09 0 1
134 1 1 1.30627e+09 1.30653e+09 1.30755e+09 1.30756e+09 0 1
135 1 1 1.31031e+09 1.31056e+09 1.31158e+09 1.31426e+09 0 1
136 2 0 1.31707e+09 1.31733e+09 1.31835e+09 1.31997e+09 0 1
137 2 1 1.32433e+09 1.3246e+09 1.32561e+09 1.32703e+09 0 0
138 2 0 1.33428e+09 1.33454e+09 1.33556e+09 1.33818e+09 1 1
139 1 1 1.34083e+09 1.34109e+09 1.34211e+09 1.34214e+09 0 1
140 1 1 1.34664e+09 1.34691e+09 1.34793e+09 1.34801e+09 0 1
141 2 0 1.3514e+09 1.35166e+09 1.35268e+09 1.35455e+09 0 1
142 2 0 1.36156e+09 1.36182e+09 1.36284e+09 1.36304e+09 0 1
143 1 1 1.36844e+09 1.36869e+09 1.36971e+09 1.36973e+09 0 1
144 2 0 1.37229e+09 1.37254e+09 1.37356e+09 1.37455e+09 0 1
145 2 0 1.37978e+09 1.38003e+09 1.38105e+09 1.38344e+09 0 1
146 1 1 1.38647e+09 1.38672e+09 1.38774e+09 1.38804e+09 0 1
147 2 0 1.39107e+09 1.39133e+09 1.39235e+09 1.39291e+09 0 1
148 2 0 1.39783e+09 1.39809e+09 1.39911e+09 1.39929e+09 0 1
149 2 0 1.40573e+09 1.40599e+09 1.40701e+09 1.40702e+09 0 1
150 1 1 1.41025e+09 1.41051e+09 1.41152e+09 1.41161e+09 0 1
151 2 1 1.41593e+09 1.41619e+09 1.41721e+09 1.41724e+09 0 0
152 2 0 1.42502e+09 1.42528e+09 1.4263e+09 1.42642e+09 1 1
153 2 0 1.43369e+09 1.43394e+09 1.43496e+09 1.43506e+09 0 1
154 2 1 1.43971e+09 1.43996e+09 1.44098e+09 1.44113e+09 0 0
155 2 0 1.44862e+09 1.44887e+09 1.44989e+09 1.45016e+09 1 1
156 1 1 1.4529e+09 1.45316e+09 1.45418e+09 1.45427e+09 0 1
157 1 1 1.45729e+09 1.45753e+09 1.45855e+09 1.45868e+09 0 1
158 1 1 1.46143e+09 1.46168e+09 1.4627e+09 1.46293e+09 0 1
159 2 1 1.4664e+09 1.46666e+09 1.46768e+09 1.46827e+09 0 0
160 2 0 1.47561e+09 1.47588e+09 1.4769e+09 1.48047e+09 1 1
161 2 0 1.48594e+09 1.48619e+09 1.48721e+09 1.48723e+09 0 1
162 2 0 1.48975e+09 1.48999e+09 1.49101e+09 1.49374e+09 0 1
163 1 1 1.49657e+09 1.49682e+09 1.49784e+09 1.49786e+09 0 1
164 2 0 1.50277e+09 1.50303e+09 1.50405e+09 1.50911e+09 0 1
165 1 1 1.51424e+09 1.51449e+09 1.51551e+09 1.51553e+09 0 1
166 1 1 1.51946e+09 1.51971e+09 1.52073e+09 1.52089e+09 0 1
167 2 0 1.52361e+09 1.52387e+09 1.52489e+09 1.52812e+09 0 1
168 2 0 1.53096e+09 1.53122e+09 1.53224e+09 1.53325e+09 0 1
169 2 1 1.53722e+09 1.53747e+09 1.53849e+09 1.53867e+09 0 0
170 2 0 1.54573e+09 1.54599e+09 1.54701e+09 1.54755e+09 1 1
171 2 0 1.55097e+09 1.55123e+09 1.55225e+09 1.55316e+09 0 1
172 2 0 1.55606e+09 1.55632e+09 1.55734e+09 1.55911e+09 0 1
173 1 1 1.56229e+09 1.56254e+09 1.56356e+09 1.56362e+09 0 1
174 1 1 1.56713e+09 1.56738e+09 1.5684e+09 1.56841e+09 0 1
175 2 1 1.57124e+09 1.57149e+09 1.57251e+09 1.5738e+09 0 0
176 2 0 1.58221e+09 1.58247e+09 1.58349e+09 1.58648e+09 1 1
177 1 0 1.58978e+09 1.59004e+09 1.59106e+09 1.59131e+09 0 0
178 1 1 1.60025e+09 1.6005e+09 1.60152e+09 1.60156e+09 1 1
179 2 0 1.60418e+09 1.60443e+09 1.60545e+09 1.60553e+09 0 1
180 1 0 1.61169e+09 1.61194e+09 1.61296e+09 1.62007e+09 0 0
181 1 0 1.63086e+09 1.63112e+09 1.63213e+09 1.6376e+09 1 0
182 1 0 1.64486e+09 1.64512e+09 1.64614e+09 1.65911e+09 1 0
183 1 1 1.66642e+09 1.66667e+09 1.66769e+09 1.6677e+09 1 1
184 2 0 1.67026e+09 1.67051e+09 1.67153e+09 1.67547e+09 0 1
185 1 1 1.67915e+09 1.67941e+09 1.68043e+09 1.68057e+09 0 1
186 1 0 1.68538e+09 1.68563e+09 1.68665e+09 1.68814e+09 0 0
187 1 1 1.69566e+09 1.69592e+09 1.69694e+09 1.71452e+09 1 1
188 1 1 1.71796e+09 1.71822e+09 1.71923e+09 1.72001e+09 0 1
189 2 0 1.72346e+09 1.72373e+09 1.72475e+09 1.72629e+09 0 1
190 2 0 1.72997e+09 1.73024e+09 1.73126e+09 1.74219e+09 0 1
191 2 0 1.74582e+09 1.7461e+09 1.74712e+09 1.74794e+09 0 1
192 1 1 1.75167e+09 1.75193e+09 1.75295e+09 1.75615e+09 0 1
193 2 0 1.76039e+09 1.76064e+09 1.76166e+09 1.76184e+09 0 1
194 1 1 1.76524e+09 1.76549e+09 1.76651e+09 1.76658e+09 0 1
195 1 1 1.76941e+09 1.76965e+09 1.77067e+09 1.77456e+09 0 1
196 1 1 1.77832e+09 1.77857e+09 1.77959e+09 1.77965e+09 0 1
197 2 0 1.78489e+09 1.78514e+09 1.78616e+09 1.79596e+09 0 1
198 1 1 1.79862e+09 1.79888e+09 1.7999e+09 1.80282e+09 0 1
199 1 0 1.80553e+09 1.80578e+09 1.8068e+09 1.80691e+09 0 0
200 1 0 1.8141e+09 1.81435e+09 1.81537e+09 1.83821e+09 1 0
201 1 0 1.8455e+09 1.84575e+09 1.84677e+09 1.8469e+09 1 0
202 1 0 1.85423e+09 1.85448e+09 1.8555e+09 1.85902e+09 1 0
203 1 0 1.86643e+09 1.86669e+09 1.86771e+09 1.8709e+09 0 0
204 2 0 1.87841e+09 1.87866e+09 1.87968e+09 1.88265e+09 0 1
205 2 0 1.88534e+09 1.88561e+09 1.88663e+09 1.88687e+09 0 1
206 1 0 1.89056e+09 1.89082e+09 1.89184e+09 1.89193e+09 0 0
207 1 0 1.89946e+09 1.89973e+09 1.90075e+09 1.902e+09 1 0
208 1 1 1.90906e+09 1.90931e+09 1.91033e+09 1.93161e+09 1 1
209 1 0 1.93442e+09 1.93468e+09 1.9357e+09 1.94957e+09 0 0
210 1 0 1.957e+09 1.95726e+09 1.95828e+09 1.96032e+09 1 0
211 1 1 1.96741e+09 1.96767e+09 1.96868e+09 1.96883e+09 1 1
212 1 0 1.97138e+09 1.97163e+09 1.97265e+09 2.00754e+09 0 0
213 1 1 2.0149e+09 2.01515e+09 2.01617e+09 2.0162e+09 1 1
214 2 0 2.01893e+09 2.01918e+09 2.0202e+09 2.05077e+09 0 1
215 1 0 2.05342e+09 2.05368e+09 2.0547e+09 2.24624e+09 0 0
216 1 0 2.25348e+09 2.25375e+09 2.25477e+09 2.29169e+09 1 0
217 1 0 2.29903e+09 2.29928e+09 2.3003e+09 2.32177e+09 1 0
218 1 0 2.32918e+09 2.32943e+09 2.33045e+09 2.36775e+09 1 0
219 2 0 2.3751e+09 2.37535e+09 2.37637e+09 2.45169e+09 0 1
220 2 0 2.4581e+09 2.45835e+09 2.45937e+09 2.5246e+09 0 1
