trial trialType response stillTime stimOnset stimOffset respTime correctionTrial correct
001 1 0 8.917e+06 9.21764e+06 1.02368e+07 1.50452e+07 0 0
002 1 0 2.23345e+07 2.26073e+07 2.36265e+07 3.48204e+07 1 0
003 1 0 4.194e+07 4.22195e+07 4.32387e+07 7.77681e+07 1 0
004 1 0 8.49562e+07 8.52098e+07 8.6229e+07 8.99026e+07 1 0
005 2 0 9.74326e+07 9.7681e+07 9.87002e+07 1.02823e+08 0 1
006 1 1 1.06781e+08 1.07039e+08 1.08058e+08 1.08925e+08 0 1
007 1 1 1.49384e+08 1.49646e+08 1.50665e+08 1.5115e+08 0 1
008 1 1 1.6435e+08 1.64604e+08 1.65623e+08 1.68213e+08 0 1
009 2 1 2.46641e+08 2.46901e+08 2.4792e+08 2.48922e+08 0 0
010 2 1 2.67524e+08 2.67781e+08 2.688e+08 2.69747e+08 1 0
011 2 0 2.77237e+08 2.77489e+08 2.78508e+08 2.79955e+08 1 1
012 2 0 3.07066e+08 3.07315e+08 3.08334e+08 3.09215e+08 0 1
013 2 1 3.35138e+08 3.354e+08 3.3642e+08 3.36517e+08 0 0
014 2 0 3.436e+08 3.43858e+08 3.44877e+08 3.45966e+08 1 1
015 1 0 3.80371e+08 3.80626e+08 3.81645e+08 3.81731e+08 0 0
016 1 1 3.91591e+08 3.91849e+08 3.92868e+08 3.92888e+08 1 1
017 1 1 4.14524e+08 4.14791e+08 4.1581e+08 4.16415e+08 0 1
018 2 0 4.25778e+08 4.26035e+08 4.27054e+08 4.27304e+08 0 1
019 1 1 4.41436e+08 4.41693e+08 4.42712e+08 4.43706e+08 0 1
020 2 1 4.61145e+08 4.61392e+08 4.62411e+08 4.64545e+08 0 0
021 2 1 4.74501e+08 4.7476e+08 4.75779e+08 4.76823e+08 1 0
022 2 0 4.92349e+08 4.92611e+08 4.9363e+08 4.9402e+08 1 1
023 1 0 5.15408e+08 5.15674e+08 5.16693e+08 5.16843e+08 0 0
024 1 1 5.25795e+08 5.26052e+08 5.27072e+08 5.27842e+08 1 1
025 2 1 5.39685e+08 5.39935e+08 5.40955e+08 5.42464e+08 0 0
026 2 1 5.51608e+08 5.51857e+08 5.52876e+08 5.52885e+08 1 0
027 2 0 5.64675e+08 5.6494e+08 5.65959e+08 5.6598e+08 1 1
028 2 1 5.69055e+08 5.69307e+08 5.70326e+08 5.70425e+08 0 0
029 2 0 5.99561e+08 5.99819e+08 6.00838e+08 6.01416e+08 1 1
030 1 1 6.08829e+08 6.09081e+08 6.101e+08 6.10383e+08 0 1
031 2 0 6.27034e+08 6.2728e+08 6.28299e+08 6.29198e+08 0 1
032 2 1 6.5856e+08 6.58806e+08 6.59825e+08 6.60829e+08 0 0
033 2 1 6.69142e+08 6.69401e+08 6.7042e+08 6.71537e+08 1 0
034 2 0 6.86824e+08 6.87091e+08 6.8811e+08 6.89484e+08 1 1
035 2 1 7.36914e+08 7.37176e+08 7.38196e+08 7.40171e+08 0 0
036 2 0 7.47345e+08 7.47599e+08 7.48618e+08 7.50759e+08 1 1
037 2 0 7.75586e+08 7.75838e+08 7.76857e+08 7.77761e+08 0 1
038 2 1 8.00483e+08 8.00739e+08 8.01759e+08 8.01924e+08 0 0
039 2 1 8.11612e+08 8.11878e+08 8.12897e+08 8.14506e+08 1 0
040 2 1 8.37353e+08 8.37619e+08 8.38638e+08 8.40495e+08 1 0
041 2 1 8.4919e+08 8.49443e+08 8.50462e+08 8.52188e+08 1 0
042 2 1 8.59457e+08 8.59708e+08 8.60727e+08 8.64655e+08 0 0
043 1 1 8.90236e+08 8.90496e+08 8.91515e+08 8.93292e+08 0 1
044 1 0 9.02004e+08 9.0226e+08 9.03279e+08 9.05112e+08 0 0
045 1 1 9.18792e+08 9.19044e+08 9.20063e+08 9.21423e+08 1 1
046 2 1 9.24228e+08 9.2448e+08 9.25499e+08 9.26828e+08 0 0
047 2 0 9.51863e+08 9.5213e+08 9.53149e+08 9.53287e+08 1 1
048 1 0 9.71653e+08 9.71915e+08 9.72934e+08 9.74117e+08 0 0
049 1 1 9.84218e+08 9.8448e+08 9.855e+08 9.86857e+08 1 1
050 2 1 1.02368e+09 1.02393e+09 1.02495e+09 1.0254e+09 0 0
051 2 1 1.03244e+09 1.03271e+09 1.03373e+09 1.03484e+09 1 0
052 2 1 1.05027e+09 1.05052e+09 1.05154e+09 1.05239e+09 1 0
053 2 0 1.06476e+09 1.06501e+09 1.06603e+09 1.06881e+09 1 1
054 2 0 1.10293e+09 1.10318e+09 1.1042e+09 1.10925e+09 0 1
055 2 1 1.13333e+09 1.13358e+09 1.1346e+09 1.13497e+09 0 0
056 2 1 1.15566e+09 1.1559e+09 1.15692e+09 1.16369e+09 1 0
057 2 1 1.17341e+09 1.17366e+09 1.17468e+09 1.17479e+09 1 0
058 2 0 1.18284e+09 1.18309e+09 1.18411e+09 1.1868e+09 1 1
059 1 1 1.18939e+09 1.18965e+09 1.19067e+09 1.19326e+09 0 1
060 2 1 1.22413e+09 1.22439e+09 1.22541e+09 1.22551e+09 0 0
061 2 1 1.24044e+09 1.2407e+09 1.24172e+09 1.24232e+09 1 0
062 2 0 1.2539e+09 1.25415e+09 1.25517e+09 1.25793e+09 1 1
063 2 1 1.27044e+09 1.27069e+09 1.27171e+09 1.27222e+09 0 0
064 2 1 1.27983e+09 1.28008e+09 1.2811e+09 1.28269e+09 1 0
065 2 1 1.29684e+09 1.29709e+09 1.29811e+09 1.29848e+09 1 0
066 2 1 1.30616e+09 1.3064e+09 1.30742e+09 1.30882e+09 1 0
067 2 0 1.32274e+09 1.323e+09 1.32402e+09 1.32699e+09 0 1
068 1 1 1.35016e+09 1.35042e+09 1.35144e+09 1.35356e+09 0 1
069 1 1 1.36584e+09 1.36609e+09 1.36711e+09 1.36748e+09 0 1
070 2 1 1.37051e+09 1.37077e+09 1.37179e+09 1.37195e+09 0 0
071 2 0 1.39159e+09 1.39185e+09 1.39287e+09 1.3942e+09 1 1
072 2 1 1.39726e+09 1.39752e+09 1.39854e+09 1.39919e+09 0 0
073 2 1 1.41172e+09 1.41198e+09 1.413e+09 1.41478e+09 1 0
074 2 1 1.42357e+09 1.42383e+09 1.42485e+09 1.42555e+09 1 0
075 2 0 1.43696e+09 1.43721e+09 1.43823e+09 1.43967e+09 1 1
076 1 1 1.45424e+09 1.45449e+09 1.45551e+09 1.45746e+09 0 1
077 2 1 1.47081e+09 1.47107e+09 1.47208e+09 1.47242e+09 0 0
078 2 1 1.48512e+09 1.48538e+09 1.4864e+09 1.48677e+09 1 0
079 2 1 1.50956e+09 1.50982e+09 1.51084e+09 1.51221e+09 1 0
080 2 1 1.52403e+09 1.52428e+09 1.5253e+09 1.52742e+09 1 0
081 2 1 1.5366e+09 1.53686e+09 1.53788e+09 1.53804e+09 0 0
082 2 0 1.5458e+09 1.54606e+09 1.54708e+09 1.54862e+09 0 1
083 1 1 1.56741e+09 1.56767e+09 1.56869e+09 1.56982e+09 0 1
084 2 1 1.57279e+09 1.57306e+09 1.57408e+09 1.57588e+09 0 0
085 2 0 1.58828e+09 1.58853e+09 1.58955e+09 1.5896e+09 1 1
086 1 1 1.60764e+09 1.60791e+09 1.60893e+09 1.61018e+09 0 1
087 1 1 1.62489e+09 1.62514e+09 1.62616e+09 1.62755e+09 0 1
088 1 1 1.64455e+09 1.64481e+09 1.64583e+09 1.64618e+09 0 1
089 2 1 1.68654e+09 1.6868e+09 1.68782e+09 1.68815e+09 0 0
090 2 0 1.71274e+09 1.71299e+09 1.71401e+09 1.71421e+09 1 1
091 2 1 1.71686e+09 1.71712e+09 1.71814e+09 1.71817e+09 0 0
092 2 1 1.7337e+09 1.73396e+09 1.73498e+09 1.73709e+09 1 0
093 2 1 1.74952e+09 1.74977e+09 1.75079e+09 1.75171e+09 1 0
094 2 0 1.75987e+09 1.76012e+09 1.76114e+09 1.76144e+09 1 1
095 1 1 1.76427e+09 1.76453e+09 1.76555e+09 1.76606e+09 0 1
096 2 0 1.78214e+09 1.7824e+09 1.78342e+09 1.78357e+09 0 1
097 2 1 1.78852e+09 1.78878e+09 1.7898e+09 1.78984e+09 0 0
098 2 0 1.80016e+09 1.80041e+09 1.80143e+09 1.80294e+09 1 1
099 1 1 1.829e+09 1.82925e+09 1.83027e+09 1.83262e+09 0 1
100 1 1 1.83681e+09 1.83707e+09 1.83809e+09 1.8395e+09 0 1
101 2 1 1.84824e+09 1.8485e+09 1.84952e+09 1.84956e+09 0 0
102 2 1 1.85864e+09 1.85889e+09 1.85991e+09 1.86231e+09 1 0
103 2 1 1.87856e+09 1.87881e+09 1.87983e+09 1.87991e+09 1 0
104 2 0 1.90083e+09 1.90109e+09 1.9021e+09 1.90545e+09 1 1
105 2 0 1.9241e+09 1.92437e+09 1.92539e+09 1.92548e+09 0 1
106 1 1 1.9472e+09 1.94745e+09 1.94847e+09 1.94853e+09 0 1
107 1 1 1.95424e+09 1.9545e+09 1.95552e+09 1.95596e+09 0 1
108 2 0 1.97789e+09 1.97816e+09 1.97918e+09 1.98083e+09 0 1
109 2 0 2.00438e+09 2.00463e+09 2.00565e+09 2.00694e+09 0 1
110 1 1 2.02746e+09 2.02772e+09 2.02874e+09 2.02913e+09 0 1
111 2 1 2.03946e+09 2.03971e+09 2.04073e+09 2.04179e+09 0 0
112 2 1 2.05235e+09 2.05261e+09 2.05363e+09 2.05823e+09 1 0
113 2 1 2.06805e+09 2.06831e+09 2.06932e+09 2.07153e+09 1 0
114 2 1 2.08145e+09 2.0817e+09 2.08272e+09 2.08426e+09 1 0
115 1 1 2.0919e+09 2.09216e+09 2.09317e+09 2.09386e+09 0 1
116 1 0 2.11143e+09 2.11168e+09 2.1127e+09 2.11359e+09 0 0
117 1 1 2.12422e+09 2.12449e+09 2.1255e+09 2.12752e+09 1 1
118 2 1 2.1304e+09 2.13066e+09 2.13168e+09 2.133e+09 0 0
119 2 1 2.14966e+09 2.14992e+09 2.15094e+09 2.15334e+09 1 0
120 2 1 2.16079e+09 2.16104e+09 2.16206e+09 2.16384e+09 1 0
121 2 1 2.17223e+09 2.17248e+09 2.1735e+09 2.17383e+09 1 0
122 1 1 2.18288e+09 2.18313e+09 2.18415e+09 2.18631e+09 0 1
123 2 1 2.19396e+09 2.19422e+09 2.19524e+09 2.19545e+09 0 0
124 2 1 2.21145e+09 2.21169e+09 2.21271e+09 2.21337e+09 1 0
125 2 1 2.22255e+09 2.22281e+09 2.22383e+09 2.22385e+09 1 0
126 2 1 2.23135e+09 2.2316e+09 2.23262e+09 2.23314e+09 1 0
127 1 1 2.2465e+09 2.24677e+09 2.24779e+09 2.25125e+09 0 1
128 2 1 2.26612e+09 2.26638e+09 2.2674e+09 2.26785e+09 0 0
129 2 1 2.27931e+09 2.27957e+09 2.28059e+09 2.28281e+09 1 0
130 2 0 2.3051e+09 2.30536e+09 2.30638e+09 2.30956e+09 1 1
131 1 1 2.31373e+09 2.31398e+09 2.315e+09 2.32005e+09 0 1
132 1 1 2.34098e+09 2.34123e+09 2.34225e+09 2.34413e+09 0 1
133 2 0 2.351e+09 2.35126e+09 2.35228e+09 2.35308e+09 0 1
134 1 1 2.3655e+09 2.36576e+09 2.36678e+09 2.36694e+09 0 1
135 1 1 2.37197e+09 2.37223e+09 2.37325e+09 2.37439e+09 0 1
136 1 1 2.39349e+09 2.39376e+09 2.39478e+09 2.39701e+09 0 1
137 2 0 2.42937e+09 2.42962e+09 2.43064e+09 2.43343e+09 0 1
138 1 1 2.45098e+09 2.45123e+09 2.45225e+09 2.4523e+09 0 1
139 2 1 2.46456e+09 2.46481e+09 2.46583e+09 2.46714e+09 0 0
140 2 0 2.48949e+09 2.48973e+09 2.49075e+09 2.49287e+09 1 1
141 2 1 2.49555e+09 2.49582e+09 2.49684e+09 2.49721e+09 0 0
142 2 0 2.51316e+09 2.51343e+09 2.51445e+09 2.51481e+09 1 1
143 2 0 2.52823e+09 2.52848e+09 2.5295e+09 2.53257e+09 0 1
144 1 1 2.53511e+09 2.53536e+09 2.53638e+09 2.54202e+09 0 1
145 1 1 2.54461e+09 2.54487e+09 2.54589e+09 2.54605e+09 0 1
146 2 1 2.54916e+09 2.54942e+09 2.55044e+09 2.55139e+09 0 0
147 2 1 2.55948e+09 2.55974e+09 2.56075e+09 2.56378e+09 1 0
148 2 1 2.571e+09 2.57126e+09 2.57228e+09 2.57581e+09 1 0
149 2 1 2.58481e+09 2.58506e+09 2.58608e+09 2.59413e+09 1 0
150 1 1 2.60577e+09 2.60603e+09 2.60704e+09 2.60716e+09 0 1
151 2 1 2.62351e+09 2.62377e+09 2.62479e+09 2.62482e+09 0 0
152 2 1 2.63665e+09 2.63691e+09 2.63793e+09 2.63806e+09 1 0
153 2 1 2.66105e+09 2.6613e+09 2.66232e+09 2.66293e+09 1 0
154 2 0 2.67832e+09 2.67857e+09 2.67958e+09 2.67978e+09 1 1
155 1 1 2.69374e+09 2.69399e+09 2.69501e+09 2.70335e+09 0 1
156 1 1 2.70686e+09 2.70712e+09 2.70814e+09 2.71081e+09 0 1
157 2 1 2.71357e+09 2.71384e+09 2.71486e+09 2.71693e+09 0 0
158 2 0 2.72703e+09 2.72728e+09 2.7283e+09 2.73036e+09 1 1
159 1 1 2.74435e+09 2.74461e+09 2.74563e+09 2.7468e+09 0 1
160 1 1 2.74939e+09 2.74965e+09 2.75067e+09 2.75204e+09 0 1
161 2 1 2.77798e+09 2.77825e+09 2.77927e+09 2.77995e+09 0 0
162 2 1 2.78728e+09 2.78753e+09 2.78855e+09 2.78884e+09 1 0
163 2 1 2.79619e+09 2.79645e+09 2.79747e+09 2.79818e+09 1 0
164 2 1 2.80777e+09 2.80802e+09 2.80904e+09 2.81003e+09 1 0
165 2 1 2.82072e+09 2.82098e+09 2.822e+09 2.8221e+09 0 0
166 1 0 2.83017e+09 2.83044e+09 2.83146e+09 2.83999e+09 0 0
167 1 1 2.85358e+09 2.85384e+09 2.85486e+09 2.85524e+09 0 1
168 1 1 2.86187e+09 2.86212e+09 2.86314e+09 2.86315e+09 0 1
169 1 1 2.86719e+09 2.86743e+09 2.86845e+09 2.86849e+09 0 1
170 1 1 2.88162e+09 2.88188e+09 2.8829e+09 2.88465e+09 0 1
171 1 0 2.88753e+09 2.88778e+09 2.88879e+09 2.88898e+09 0 0
172 1 1 2.90293e+09 2.90319e+09 2.90421e+09 2.90671e+09 1 1
173 2 1 2.9111e+09 2.91135e+09 2.91237e+09 2.91288e+09 0 0
174 2 0 2.93076e+09 2.931e+09 2.93202e+09 2.9322e+09 1 1
175 1 1 2.94425e+09 2.94449e+09 2.94551e+09 2.94561e+09 0 1
176 1 1 2.95696e+09 2.95721e+09 2.95823e+09 2.95825e+09 0 1
177 1 1 2.97213e+09 2.97239e+09 2.97341e+09 2.97377e+09 0 1
178 1 1 2.97677e+09 2.97703e+09 2.97804e+09 2.98455e+09 0 1
179 1 1 2.9873e+09 2.98756e+09 2.98858e+09 2.99056e+09 0 1
180 1 1 3.00325e+09 3.0035e+09 3.00452e+09 3.00462e+09 0 1
181 2 1 3.02814e+09 3.02838e+09 3.0294e+09 3.02957e+09 0 0
182 2 1 3.03751e+09 3.03776e+09 3.03878e+09 3.04354e+09 1 0
183 2 1 3.05213e+09 3.05239e+09 3.05341e+09 3.05577e+09 1 0
184 2 0 3.06544e+09 3.06569e+09 3.06671e+09 3.06694e+09 1 1
185 2 1 3.07034e+09 3.07059e+09 3.07161e+09 3.07401e+09 0 0
186 2 1 3.08689e+09 3.08714e+09 3.08816e+09 3.08821e+09 1 0
187 2 1 3.09575e+09 3.09599e+09 3.09701e+09 3.09713e+09 1 0
188 2 1 3.10454e+09 3.1048e+09 3.10582e+09 3.10593e+09 1 0
189 2 1 3.1139e+09 3.11416e+09 3.11518e+09 3.11576e+09 0 0
190 1 1 3.12737e+09 3.12762e+09 3.12864e+09 3.13091e+09 0 1
191 2 1 3.13869e+09 3.13894e+09 3.13996e+09 3.14059e+09 0 0
192 2 1 3.14849e+09 3.14874e+09 3.14976e+09 3.1503e+09 1 0
193 2 1 3.16104e+09 3.16129e+09 3.16231e+09 3.16332e+09 1 0
194 2 1 3.17583e+09 3.17608e+09 3.1771e+09 3.18057e+09 1 0
195 1 0 3.19053e+09 3.19079e+09 3.19181e+09 3.20446e+09 0 0
196 2 0 3.21275e+09 3.21302e+09 3.21404e+09 3.21438e+09 0 1
197 1 0 3.22068e+09 3.22093e+09 3.22195e+09 3.22319e+09 0 0
198 1 1 3.23404e+09 3.23429e+09 3.23531e+09 3.23611e+09 1 1
199 1 1 3.25382e+09 3.25407e+09 3.25509e+09 3.2551e+09 0 1
200 2 1 3.26733e+09 3.26758e+09 3.2686e+09 3.26873e+09 0 0
201 2 1 3.28399e+09 3.28423e+09 3.28525e+09 3.2854e+09 1 0
202 2 0 3.29495e+09 3.29521e+09 3.29623e+09 3.30043e+09 1 1
203 2 0 3.30324e+09 3.3035e+09 3.30452e+09 3.30458e+09 0 1
204 1 0 3.32377e+09 3.32402e+09 3.32504e+09 3.32521e+09 0 0
205 1 1 3.33468e+09 3.33493e+09 3.33595e+09 3.3361e+09 1 1
206 1 0 3.35915e+09 3.3594e+09 3.36042e+09 3.36158e+09 0 0
207 1 1 3.36977e+09 3.37002e+09 3.37104e+09 3.37107e+09 1 1
208 2 1 3.37443e+09 3.37468e+09 3.3757e+09 3.37711e+09 0 0
209 2 0 3.38689e+09 3.38714e+09 3.38816e+09 3.38841e+09 1 1
210 1 0 3.40275e+09 3.403e+09 3.40402e+09 3.40411e+09 0 0
211 1 1 3.41141e+09 3.41168e+09 3.4127e+09 3.41877e+09 1 1
212 2 1 3.42347e+09 3.42371e+09 3.42473e+09 3.42743e+09 0 0
213 2 0 3.4388e+09 3.43905e+09 3.44007e+09 3.44276e+09 1 1
214 2 1 3.45993e+09 3.46018e+09 3.4612e+09 3.46136e+09 0 0
215 2 1 3.47008e+09 3.47033e+09 3.47135e+09 3.4845e+09 1 0
216 2 1 3.49175e+09 3.492e+09 3.49301e+09 3.49956e+09 1 0
217 2 1 3.51173e+09 3.51198e+09 3.513e+09 3.51716e+09 1 0
218 1 1 3.52463e+09 3.52489e+09 3.52591e+09 3.5274e+09 0 1
219 1 1 3.53025e+09 3.53049e+09 3.53151e+09 3.53445e+09 0 1
220 2 1 3.53755e+09 3.5378e+09 3.53882e+09 3.54089e+09 0 0
221 2 1 3.55723e+09 3.55748e+09 3.5585e+09 3.55861e+09 1 0
222 2 1 3.56602e+09 3.56627e+09 3.56729e+09 3.56803e+09 1 0
223 2 1 3.57775e+09 3.578e+09 3.57902e+09 3.58337e+09 1 0
224 1 0 3.5945e+09 3.59475e+09 3.59577e+09 3.59582e+09 0 0
225 2 0 3.60639e+09 3.60664e+09 3.60766e+09 3.60933e+09 0 1
226 2 1 3.62424e+09 3.62449e+09 3.62551e+09 3.6257e+09 0 0
227 2 1 3.6331e+09 3.63336e+09 3.63438e+09 3.63453e+09 1 0
228 2 1 3.64192e+09 3.64217e+09 3.64319e+09 3.64662e+09 1 0
229 2 1 3.65581e+09 3.65606e+09 3.65708e+09 3.65812e+09 1 0
230 2 0 3.66552e+09 3.66578e+09 3.6668e+09 3.66727e+09 0 1
231 2 0 3.67426e+09 3.67451e+09 3.67553e+09 3.67566e+09 0 1
232 2 1 3.67858e+09 3.67883e+09 3.67985e+09 3.67987e+09 0 0
233 2 1 3.68819e+09 3.68844e+09 3.68946e+09 3.69089e+09 1 0
234 2 1 3.70445e+09 3.7047e+09 3.70572e+09 3.70668e+09 1 0
235 2 1 3.71397e+09 3.71421e+09 3.71523e+09 3.71553e+09 1 0
236 2 1 3.72517e+09 3.72542e+09 3.72644e+09 3.72675e+09 0 0
237 2 1 3.73425e+09 3.73449e+09 3.73551e+09 3.7407e+09 0 0
238 2 1 3.7478e+09 3.74805e+09 3.74907e+09 3.75054e+09 0 0
239 1 1 3.75782e+09 3.75808e+09 3.7591e+09 3.7593e+09 0 1
240 1 1 3.76206e+09 3.76231e+09 3.76333e+09 3.76431e+09 0 1
241 2 1 3.767e+09 3.76725e+09 3.76827e+09 3.76972e+09 0 0
242 2 0 3.78018e+09 3.78043e+09 3.78145e+09 3.78153e+09 1 1
243 2 1 3.79333e+09 3.79359e+09 3.79461e+09 3.79484e+09 0 0
244 2 1 3.80453e+09 3.80479e+09 3.80581e+09 3.80583e+09 1 0
245 2 1 3.81336e+09 3.81361e+09 3.81463e+09 3.81545e+09 1 0
246 2 1 3.82419e+09 3.82444e+09 3.82546e+09 3.82644e+09 1 0
247 1 1 3.8337e+09 3.83395e+09 3.83497e+09 3.83891e+09 0 1
248 1 1 3.8416e+09 3.84184e+09 3.84286e+09 3.84348e+09 0 1
249 1 1 3.85439e+09 3.85465e+09 3.85567e+09 3.86214e+09 0 1
250 2 1 3.87165e+09 3.87189e+09 3.87291e+09 3.87373e+09 0 0
251 2 1 3.88451e+09 3.88477e+09 3.88579e+09 3.88785e+09 1 0
252 2 1 3.89662e+09 3.89686e+09 3.89788e+09 3.90244e+09 1 0
253 2 0 3.90978e+09 3.91005e+09 3.91106e+09 3.91284e+09 1 1
254 1 1 3.92085e+09 3.9211e+09 3.92212e+09 3.92213e+09 0 1
255 2 1 3.92903e+09 3.92927e+09 3.93029e+09 3.93058e+09 0 0
256 2 0 3.94543e+09 3.94568e+09 3.9467e+09 3.94734e+09 1 1
257 2 0 3.95907e+09 3.95932e+09 3.96034e+09 3.96049e+09 0 1
258 1 1 3.96668e+09 3.96693e+09 3.96795e+09 3.96824e+09 0 1
259 2 1 3.97205e+09 3.97231e+09 3.97333e+09 3.97358e+09 0 0
260 2 1 3.98304e+09 3.98329e+09 3.98431e+09 3.98443e+09 1 0
261 2 1 4.0013e+09 4.00155e+09 4.00257e+09 4.00346e+09 1 0
262 2 1 4.01076e+09 4.01102e+09 4.01204e+09 4.01285e+09 1 0
263 1 1 4.02089e+09 4.02114e+09 4.02216e+09 4.02259e+09 0 1
264 2 1 4.04008e+09 4.04033e+09 4.04135e+09 4.04138e+09 0 0
265 2 1 4.05251e+09 4.05277e+09 4.05379e+09 4.06176e+09 1 0
266 2 1 4.07005e+09 4.0703e+09 4.07132e+09 4.07134e+09 1 0
267 2 1 4.07998e+09 4.08023e+09 4.08125e+09 4.08335e+09 1 0
268 2 1 4.0933e+09 4.09356e+09 4.09458e+09 4.09865e+09 0 0
269 2 0 4.10775e+09 4.108e+09 4.10902e+09 4.1125e+09 0 1
270 1 0 4.11635e+09 4.11661e+09 4.11763e+09 4.11917e+09 0 0
271 1 1 4.13257e+09 4.13283e+09 4.13385e+09 4.13614e+09 1 1
272 2 1 4.14291e+09 4.14316e+09 4.14417e+09 4.14518e+09 0 0
273 2 1 4.15315e+09 4.1534e+09 4.15442e+09 4.15451e+09 1 0
274 2 0 4.1618e+09 4.16205e+09 4.16307e+09 4.16741e+09 1 1
275 1 1 4.16998e+09 4.17024e+09 4.17126e+09 4.17607e+09 0 1
276 1 1 4.19065e+09 4.19091e+09 4.19193e+09 4.19307e+09 0 1
277 1 0 4.198e+09 4.19826e+09 4.19928e+09 4.19999e+09 0 0
278 1 1 4.20869e+09 4.20894e+09 4.20996e+09 4.2115e+09 1 1
279 2 1 4.22309e+09 4.22335e+09 4.22437e+09 4.22442e+09 0 0
280 2 1 4.23588e+09 4.23613e+09 4.23715e+09 4.23757e+09 1 0
281 2 1 4.24912e+09 4.24938e+09 4.25039e+09 4.25618e+09 1 0
282 2 1 4.26626e+09 4.26652e+09 4.26754e+09 4.26826e+09 1 0
283 1 1 4.2762e+09 4.27646e+09 4.27747e+09 4.27911e+09 0 1
284 1 0 4.28553e+09 4.28578e+09 4.2868e+09 4.28684e+09 0 0
285 1 1 1.22779e+06 1.47835e+06 2.49751e+06 4.3645e+06 1 1
286 2 1 2.76613e+07 2.79153e+07 2.89344e+07 2.97643e+07 0 0
287 2 1 3.81543e+07 3.84119e+07 3.94311e+07 3.96787e+07 1 0
288 2 0 4.67774e+07 4.70276e+07 4.80468e+07 4.81151e+07 1 1
289 2 1 5.85032e+07 5.87549e+07 5.9774e+07 6.0903e+07 0 0
290 2 0 7.41008e+07 7.43649e+07 7.53841e+07 7.85003e+07 1 1
291 2 1 8.86938e+07 8.8943e+07 8.99622e+07 9.00014e+07 0 0
292 2 0 9.96721e+07 9.99209e+07 1.0094e+08 1.34648e+08 1 1
293 1 0 1.41382e+08 1.41633e+08 1.42652e+08 1.74244e+08 0 0
294 1 0 1.83451e+08 1.83702e+08 1.84721e+08 1.84741e+08 1 0
295 1 1 1.92217e+08 1.92459e+08 1.93478e+08 1.989e+08 1 1
296 2 1 2.03289e+08 2.03548e+08 2.04567e+08 2.09395e+08 0 0
297 2 0 2.16697e+08 2.16952e+08 2.17972e+08 2.32164e+08 1 1
298 2 0 2.35183e+08 2.35436e+08 2.36455e+08 2.37561e+08 0 1
299 1 1 2.40358e+08 2.40604e+08 2.41623e+08 2.44365e+08 0 1
300 2 1 2.54686e+08 2.54935e+08 2.55954e+08 2.59616e+08 0 0
301 2 1 2.66708e+08 2.6696e+08 2.6798e+08 2.82725e+08 1 0
302 2 1 2.93699e+08 2.93947e+08 2.94967e+08 2.98725e+08 1 0
303 2 0 3.08196e+08 3.08447e+08 3.09466e+08 3.1773e+08 1 1
304 1 1 3.2375e+08 3.24009e+08 3.25028e+08 3.33172e+08 0 1
305 2 0 3.39557e+08 3.39822e+08 3.40841e+08 3.53482e+08 0 1
306 2 1 3.61514e+08 3.61767e+08 3.62786e+08 3.65139e+08 0 0
307 2 1 3.72552e+08 3.72797e+08 3.73816e+08 3.80104e+08 1 0
308 2 0 3.89301e+08 3.89556e+08 3.90576e+08 3.96915e+08 1 1
309 2 1 4.01202e+08 4.01461e+08 4.0248e+08 4.09688e+08 0 0
310 2 1 4.17115e+08 4.17364e+08 4.18383e+08 4.22926e+08 1 0
311 2 0 4.30114e+08 4.30372e+08 4.31391e+08 4.38264e+08 1 1
312 1 0 4.41735e+08 4.41986e+08 4.43005e+08 4.50878e+08 0 0
313 1 0 4.57969e+08 4.58219e+08 4.59238e+08 4.66351e+08 1 0
314 1 1 4.73453e+08 4.73705e+08 4.74724e+08 4.7536e+08 1 1
315 2 0 4.79857e+08 4.8011e+08 4.81129e+08 4.90953e+08 0 1
316 1 0 4.95076e+08 4.95329e+08 4.96348e+08 5.16491e+08 0 0
317 1 0 5.23885e+08 5.24134e+08 5.25154e+08 5.3341e+08 1 0
318 1 1 5.4309e+08 5.43346e+08 5.44365e+08 5.47536e+08 1 1
319 1 1 5.51798e+08 5.52043e+08 5.53062e+08 5.54853e+08 0 1
320 1 1 5.60353e+08 5.606e+08 5.61619e+08 5.67734e+08 0 1
321 1 1 5.71322e+08 5.71572e+08 5.72591e+08 5.75946e+08 0 1
322 2 1 5.79841e+08 5.80091e+08 5.81111e+08 5.91744e+08 0 0
323 2 1 5.98916e+08 5.99159e+08 6.00178e+08 6.04861e+08 1 0
324 2 0 6.1198e+08 6.12234e+08 6.13253e+08 6.13348e+08 1 1
325 1 0 6.16487e+08 6.16737e+08 6.17757e+08 6.22937e+08 0 0
326 1 0 6.30229e+08 6.3048e+08 6.31499e+08 6.31649e+08 1 0
327 1 0 6.38824e+08 6.39075e+08 6.40094e+08 6.42782e+08 1 0
328 1 1 6.50009e+08 6.50268e+08 6.51287e+08 6.54596e+08 1 1
329 1 0 6.57938e+08 6.5818e+08 6.59199e+08 6.62628e+08 0 0
330 1 1 6.69752e+08 6.69995e+08 6.71015e+08 6.77233e+08 1 1
331 1 1 6.8076e+08 6.81011e+08 6.8203e+08 6.88597e+08 0 1
332 1 1 6.91773e+08 6.92027e+08 6.93046e+08 6.98351e+08 0 1
333 2 1 7.0276e+08 7.03013e+08 7.04032e+08 7.10584e+08 0 0
334 2 0 7.20334e+08 7.20585e+08 7.21604e+08 7.26989e+08 1 1
335 2 0 7.30404e+08 7.30654e+08 7.31673e+08 7.39179e+08 0 1
336 1 0 7.41881e+08 7.42131e+08 7.4315e+08 7.44526e+08 0 0
337 1 0 7.53435e+08 7.53685e+08 7.54704e+08 7.60293e+08 1 0
338 1 1 7.69421e+08 7.69681e+08 7.707e+08 7.76704e+08 1 1
339 2 1 7.79627e+08 7.79879e+08 7.80898e+08 7.8382e+08 0 0
340 2 1 7.91294e+08 7.91551e+08 7.9257e+08 7.93115e+08 1 0
341 2 1 8.00633e+08 8.00884e+08 8.01903e+08 8.04564e+08 1 0
342 2 0 8.13673e+08 8.13929e+08 8.14949e+08 8.16727e+08 1 1
343 1 0 8.19696e+08 8.19948e+08 8.20967e+08 8.21411e+08 0 0
344 1 1 8.30049e+08 8.30293e+08 8.31312e+08 8.31874e+08 1 1
345 1 1 8.34504e+08 8.3476e+08 8.35779e+08 8.35948e+08 0 1
346 1 0 8.40146e+08 8.40395e+08 8.41414e+08 8.45565e+08 0 0
347 1 0 8.52602e+08 8.52857e+08 8.53876e+08 8.53921e+08 1 0
348 1 0 8.6387e+08 8.64136e+08 8.65155e+08 8.69758e+08 1 0
349 1 0 8.76835e+08 8.7708e+08 8.78099e+08 8.78126e+08 1 0
350 1 1 8.85583e+08 8.85849e+08 8.86869e+08 8.86908e+08 0 1
351 2 1 8.8989e+08 8.90144e+08 8.91163e+08 8.94237e+08 0 0
352 2 1 9.02932e+08 9.03175e+08 9.04194e+08 9.08091e+08 1 0
353 2 0 9.15219e+08 9.15475e+08 9.16494e+08 9.22682e+08 1 1
354 2 0 9.28384e+08 9.28642e+08 9.29661e+08 9.32629e+08 0 1
355 2 0 9.356e+08 9.35868e+08 9.36887e+08 9.39383e+08 0 1
356 1 0 9.42566e+08 9.42809e+08 9.43828e+08 9.46934e+08 0 0
357 1 0 9.54778e+08 9.55022e+08 9.56041e+08 9.56547e+08 1 0
358 1 0 9.64461e+08 9.64711e+08 9.65731e+08 9.65745e+08 1 0
359 1 0 9.73005e+08 9.73269e+08 9.74288e+08 9.74949e+08 1 0
360 2 0 9.8206e+08 9.82309e+08 9.83328e+08 9.84e+08 0 1
361 1 0 9.86657e+08 9.86912e+08 9.87932e+08 9.91563e+08 0 0
362 1 0 9.99065e+08 9.99322e+08 1.00034e+09 1.00674e+09 1 0
363 1 1 1.01608e+09 1.01633e+09 1.01735e+09 1.03619e+09 1 1
364 2 1 1.04115e+09 1.0414e+09 1.04242e+09 1.04647e+09 0 0
365 2 1 1.05392e+09 1.05417e+09 1.05519e+09 1.05963e+09 1 0
366 2 1 1.06886e+09 1.06912e+09 1.07014e+09 1.07863e+09 1 0
367 2 1 1.08758e+09 1.08784e+09 1.08886e+09 1.09119e+09 1 0
368 1 1 1.09857e+09 1.09881e+09 1.09983e+09 1.09984e+09 0 1
369 1 0 1.10277e+09 1.10302e+09 1.10404e+09 1.10886e+09 0 0
370 1 0 1.11619e+09 1.11645e+09 1.11746e+09 1.11832e+09 1 0
371 1 0 1.12583e+09 1.12609e+09 1.12711e+09 1.12996e+09 1 0
372 1 0 1.1379e+09 1.13814e+09 1.13916e+09 1.14626e+09 1 0
373 2 0 1.15359e+09 1.15384e+09 1.15486e+09 1.16045e+09 0 1
374 2 0 1.16647e+09 1.16673e+09 1.16775e+09 1.1904e+09 0 1
375 2 0 1.19309e+09 1.19334e+09 1.19436e+09 1.20014e+09 0 1
376 1 1 1.20312e+09 1.20337e+09 1.20439e+09 1.20896e+09 0 1
377 1 1 1.21221e+09 1.21246e+09 1.21348e+09 1.21515e+09 0 1
378 2 1 1.22264e+09 1.22289e+09 1.2239e+09 1.23104e+09 0 0
379 2 0 1.24114e+09 1.24139e+09 1.24241e+09 1.24694e+09 1 1
380 2 0 1.24959e+09 1.24985e+09 1.25087e+09 1.25596e+09 0 1
381 2 0 1.25905e+09 1.2593e+09 1.26032e+09 1.26818e+09 0 1
382 2 0 1.27249e+09 1.27275e+09 1.27377e+09 1.28059e+09 0 1
383 2 0 1.28357e+09 1.28382e+09 1.28484e+09 1.28868e+09 0 1
384 2 0 1.29161e+09 1.29187e+09 1.29289e+09 1.29961e+09 0 1
385 2 0 1.30257e+09 1.30282e+09 1.30384e+09 1.30591e+09 0 1
386 1 0 1.31195e+09 1.31221e+09 1.31323e+09 1.3194e+09 0 0
387 1 0 1.32843e+09 1.32868e+09 1.3297e+09 1.33288e+09 1 0
388 1 0 1.34011e+09 1.34036e+09 1.34138e+09 1.34298e+09 1 0
389 1 0 1.35041e+09 1.35067e+09 1.35169e+09 1.35463e+09 1 0
390 1 0 1.36174e+09 1.36199e+09 1.36301e+09 1.36538e+09 0 0
391 1 1 1.37439e+09 1.37464e+09 1.37566e+09 1.3867e+09 0 1
392 1 1 1.39057e+09 1.39083e+09 1.39185e+09 1.41131e+09 0 1
393 1 0 1.41383e+09 1.4141e+09 1.41512e+09 1.41955e+09 0 0
394 1 0 1.42677e+09 1.42702e+09 1.42804e+09 1.43248e+09 1 0
395 1 1 1.43998e+09 1.44023e+09 1.44125e+09 1.44129e+09 1 1
396 2 0 1.44423e+09 1.4445e+09 1.44552e+09 1.44935e+09 0 1
397 2 0 1.45346e+09 1.45371e+09 1.45473e+09 1.46004e+09 0 1
398 2 0 1.46394e+09 1.4642e+09 1.46522e+09 1.4796e+09 0 1
399 1 0 1.48245e+09 1.48271e+09 1.48373e+09 1.48955e+09 0 0
400 1 0 1.49667e+09 1.49692e+09 1.49794e+09 1.50577e+09 1 0
401 1 0 1.51455e+09 1.51481e+09 1.51583e+09 1.5203e+09 1 0
402 1 1 1.52737e+09 1.52763e+09 1.52865e+09 1.52978e+09 1 1
403 1 1 1.53367e+09 1.53393e+09 1.53495e+09 1.53893e+09 0 1
404 2 0 1.54172e+09 1.54197e+09 1.54299e+09 1.54386e+09 0 1
405 2 0 1.54668e+09 1.54695e+09 1.54797e+09 1.5516e+09 0 1
406 1 1 1.55801e+09 1.55827e+09 1.55929e+09 1.5644e+09 0 1
407 1 0 1.56933e+09 1.56958e+09 1.5706e+09 1.57871e+09 0 0
408 1 0 1.58713e+09 1.58738e+09 1.5884e+09 1.5886e+09 1 0
409 1 1 1.59568e+09 1.59593e+09 1.59695e+09 1.60205e+09 1 1
410 2 1 1.60478e+09 1.60504e+09 1.60606e+09 1.60687e+09 0 0
411 2 0 1.61406e+09 1.61432e+09 1.61534e+09 1.61911e+09 1 1
412 2 0 1.6223e+09 1.62256e+09 1.62358e+09 1.62732e+09 0 1
413 2 0 1.63062e+09 1.63088e+09 1.6319e+09 1.63458e+09 0 1
414 2 0 1.63797e+09 1.63823e+09 1.63925e+09 1.64348e+09 0 1
415 2 0 1.64866e+09 1.64892e+09 1.64994e+09 1.65528e+09 0 1
416 2 0 1.66129e+09 1.66154e+09 1.66256e+09 1.66715e+09 0 1
417 2 0 1.67016e+09 1.67042e+09 1.67144e+09 1.67863e+09 0 1
418 2 0 1.68127e+09 1.68152e+09 1.68254e+09 1.68672e+09 0 1
419 2 1 1.68954e+09 1.68978e+09 1.6908e+09 1.69115e+09 0 0
420 2 0 1.69831e+09 1.69856e+09 1.69958e+09 1.69963e+09 1 1
421 1 0 1.70274e+09 1.70299e+09 1.70401e+09 1.70962e+09 0 0
422 1 0 1.71711e+09 1.71736e+09 1.71838e+09 1.7208e+09 1 0
423 1 0 1.72802e+09 1.72828e+09 1.7293e+09 1.73018e+09 1 0
424 1 0 1.73748e+09 1.73774e+09 1.73876e+09 1.74412e+09 1 0
425 2 0 1.75126e+09 1.75151e+09 1.75253e+09 1.75423e+09 0 1
426 1 0 1.7568e+09 1.75707e+09 1.75808e+09 1.76471e+09 0 0
427 1 0 1.77185e+09 1.77209e+09 1.77311e+09 1.77453e+09 1 0
428 1 0 1.78181e+09 1.78207e+09 1.78309e+09 1.78513e+09 1 0
429 1 0 1.79261e+09 1.79286e+09 1.79388e+09 1.80006e+09 1 0
430 2 0 1.80729e+09 1.80754e+09 1.80856e+09 1.8158e+09 0 1
431 1 0 1.8193e+09 1.81956e+09 1.82058e+09 1.82573e+09 0 0
432 1 1 1.83594e+09 1.83619e+09 1.83721e+09 1.84521e+09 1 1
433 1 0 1.85126e+09 1.85151e+09 1.85253e+09 1.86104e+09 0 0
434 1 0 1.86815e+09 1.86839e+09 1.86941e+09 1.87211e+09 1 0
435 1 0 1.87956e+09 1.87982e+09 1.88084e+09 1.88624e+09 1 0
436 1 0 1.89355e+09 1.89381e+09 1.89483e+09 1.90511e+09 1 0
437 1 0 1.91237e+09 1.91263e+09 1.91365e+09 1.9176e+09 0 0
438 2 0 1.92674e+09 1.927e+09 1.92802e+09 1.92872e+09 0 1
439 2 0 1.93156e+09 1.93181e+09 1.93282e+09 1.93771e+09 0 1
440 2 0 1.94025e+09 1.94051e+09 1.94153e+09 1.94157e+09 0 1
441 2 0 1.94411e+09 1.94437e+09 1.94539e+09 1.94557e+09 0 1
442 1 0 1.94838e+09 1.94862e+09 1.94964e+09 1.9544e+09 0 0
443 1 0 1.96173e+09 1.96198e+09 1.963e+09 1.97344e+09 1 0
444 1 0 1.98058e+09 1.98084e+09 1.98186e+09 1.989e+09 1 0
445 1 0 1.99604e+09 1.9963e+09 1.99732e+09 2.01498e+09 1 0
446 1 0 2.02212e+09 2.02237e+09 2.02339e+09 2.02962e+09 0 0
447 1 0 2.03855e+09 2.0388e+09 2.03982e+09 2.04138e+09 0 0
448 1 0 2.04956e+09 2.0498e+09 2.05082e+09 2.05529e+09 0 0
449 1 0 2.06262e+09 2.06288e+09 2.0639e+09 2.06781e+09 0 0
450 1 0 2.07493e+09 2.07519e+09 2.07621e+09 2.0889e+09 0 0
451 1 0 2.09619e+09 2.09643e+09 2.09745e+09 2.11069e+09 0 0
452 1 0 2.11794e+09 2.1182e+09 2.11922e+09 2.12393e+09 0 0
453 2 0 2.13143e+09 2.13169e+09 2.13271e+09 2.13732e+09 0 1
454 1 0 2.14113e+09 2.14138e+09 2.1424e+09 2.15272e+09 0 0
455 1 0 2.15981e+09 2.16006e+09 2.16108e+09 2.17568e+09 1 0
456 1 0 2.18278e+09 2.18302e+09 2.18404e+09 2.19916e+09 1 0
457 1 0 2.21038e+09 2.21064e+09 2.21165e+09 2.21704e+09 1 0
458 1 0 2.22436e+09 2.22461e+09 2.22563e+09 2.22721e+09 0 0
459 1 0 2.23538e+09 2.23562e+09 2.23664e+09 2.23993e+09 0 0
460 1 0 2.24738e+09 2.24763e+09 2.24865e+09 2.25177e+09 0 0
461 1 0 2.25917e+09 2.25943e+09 2.26045e+09 2.2787e+09 0 0
462 1 1 2.28592e+09 2.2862e+09 2.28722e+09 2.28858e+09 0 1
463 1 0 2.29152e+09 2.29178e+09 2.29279e+09 2.29725e+09 0 0
464 1 0 2.30448e+09 2.30473e+09 2.30575e+09 2.30928e+09 1 0
465 1 1 2.31663e+09 2.31688e+09 2.3179e+09 2.32368e+09 1 1
466 2 1 2.32942e+09 2.32967e+09 2.33069e+09 2.33832e+09 0 0
467 2 1 2.34553e+09 2.34579e+09 2.34681e+09 2.34839e+09 1 0
468 2 0 2.35571e+09 2.35598e+09 2.357e+09 2.36364e+09 1 1
469 1 0 2.36776e+09 2.36801e+09 2.36903e+09 2.36922e+09 0 0
470 1 0 2.37914e+09 2.3794e+09 2.38042e+09 2.38708e+09 1 0
471 1 0 2.39656e+09 2.39681e+09 2.39783e+09 2.4045e+09 1 0
472 1 1 2.41155e+09 2.4118e+09 2.41282e+09 2.41491e+09 1 1
473 2 0 2.41778e+09 2.41805e+09 2.41907e+09 2.4291e+09 0 1
474 2 1 2.43261e+09 2.43286e+09 2.43388e+09 2.45041e+09 0 0
475 2 0 2.45929e+09 2.45954e+09 2.46055e+09 2.59575e+09 1 1
476 1 1 2.59873e+09 2.59898e+09 2.6e+09 2.60326e+09 0 1
