trial trialType response stillTime stimOnset stimOffset respTime correctionTrial correct
001 2 1 9.23854e+06 9.5573e+06 1.05765e+07 1.09954e+07 0 0
002 2 0 2.60352e+07 2.63058e+07 2.7325e+07 2.74107e+07 1 1
003 1 0 3.11143e+07 3.13997e+07 3.24189e+07 3.24646e+07 0 0
004 1 1 4.43515e+07 4.46039e+07 4.5623e+07 4.75363e+07 1 1
005 1 1 7.7355e+07 7.76006e+07 7.86197e+07 7.95426e+07 0 1
006 1 0 8.82985e+07 8.85506e+07 8.95697e+07 8.99377e+07 0 0
007 1 1 9.76743e+07 9.79341e+07 9.89533e+07 9.89594e+07 1 1
008 1 1 1.11663e+08 1.11918e+08 1.12937e+08 1.13281e+08 0 1
009 2 0 1.3104e+08 1.31288e+08 1.32307e+08 1.33953e+08 0 1
010 2 0 1.37425e+08 1.37681e+08 1.387e+08 1.39442e+08 0 1
011 1 0 1.49535e+08 1.49792e+08 1.50812e+08 1.5178e+08 0 0
012 1 1 1.6233e+08 1.62588e+08 1.63607e+08 1.65598e+08 1 1
013 1 1 1.90028e+08 1.90296e+08 1.91315e+08 1.96122e+08 0 1
014 2 1 1.99508e+08 1.99761e+08 2.0078e+08 2.00858e+08 0 0
015 2 1 2.12731e+08 2.1298e+08 2.14e+08 2.14791e+08 1 0
016 2 0 2.23598e+08 2.23851e+08 2.2487e+08 2.26627e+08 1 1
017 1 1 2.35397e+08 2.35655e+08 2.36675e+08 2.38789e+08 0 1
018 2 0 2.46757e+08 2.47014e+08 2.48034e+08 2.49169e+08 0 1
019 2 0 2.52038e+08 2.52302e+08 2.53321e+08 2.5478e+08 0 1
020 1 1 2.57418e+08 2.57674e+08 2.58693e+08 2.61618e+08 0 1
021 2 1 2.69074e+08 2.6932e+08 2.7034e+08 2.71235e+08 0 0
022 2 1 2.8049e+08 2.80741e+08 2.8176e+08 2.82854e+08 1 0
023 2 1 2.90105e+08 2.90363e+08 2.91382e+08 2.93592e+08 1 0
024 2 1 3.03262e+08 3.03527e+08 3.04546e+08 3.04793e+08 1 0
025 1 1 3.15264e+08 3.15522e+08 3.16542e+08 3.19172e+08 0 1
026 2 1 3.28849e+08 3.29108e+08 3.30127e+08 3.30178e+08 0 0
027 2 0 3.38799e+08 3.39066e+08 3.40085e+08 3.41306e+08 1 1
028 1 1 3.44496e+08 3.44754e+08 3.45773e+08 3.48147e+08 0 1
029 1 1 3.64432e+08 3.6469e+08 3.65709e+08 3.68793e+08 0 1
030 2 1 3.75825e+08 3.76076e+08 3.77095e+08 3.77185e+08 0 0
031 2 1 3.85801e+08 3.86056e+08 3.87075e+08 3.87089e+08 1 0
032 2 0 4.00815e+08 4.01071e+08 4.0209e+08 4.0463e+08 1 1
033 2 0 4.1039e+08 4.10657e+08 4.11676e+08 4.11874e+08 0 1
034 2 1 4.14637e+08 4.14882e+08 4.15901e+08 4.15989e+08 0 0
035 2 1 4.23339e+08 4.23587e+08 4.24606e+08 4.26815e+08 1 0
036 2 0 4.38177e+08 4.3843e+08 4.39449e+08 4.39574e+08 1 1
037 2 0 4.48081e+08 4.48338e+08 4.49357e+08 4.52533e+08 0 1
038 2 0 4.55907e+08 4.56157e+08 4.57176e+08 4.59582e+08 0 1
039 2 0 4.62573e+08 4.62818e+08 4.63837e+08 4.64246e+08 0 1
040 2 0 4.70773e+08 4.7102e+08 4.72039e+08 4.72352e+08 0 1
041 2 1 4.76733e+08 4.76999e+08 4.78018e+08 4.78259e+08 0 0
042 2 0 4.8939e+08 4.89639e+08 4.90658e+08 4.90846e+08 1 1
043 1 1 4.93807e+08 4.94053e+08 4.95072e+08 4.95213e+08 0 1
044 1 0 5.03509e+08 5.03772e+08 5.04791e+08 5.07006e+08 0 0
045 1 1 5.15127e+08 5.15387e+08 5.16406e+08 5.17171e+08 1 1
046 2 0 5.22895e+08 5.23154e+08 5.24173e+08 5.24343e+08 0 1
047 1 1 5.29544e+08 5.298e+08 5.30819e+08 5.31036e+08 0 1
048 2 0 5.34993e+08 5.35239e+08 5.36258e+08 5.37666e+08 0 1
049 2 0 5.40422e+08 5.40681e+08 5.417e+08 5.42548e+08 0 1
050 2 0 5.45364e+08 5.45623e+08 5.46642e+08 5.47624e+08 0 1
051 2 1 5.51515e+08 5.51776e+08 5.52795e+08 5.52839e+08 0 0
052 2 0 5.64098e+08 5.64353e+08 5.65372e+08 5.67132e+08 1 1
053 2 1 5.69927e+08 5.70188e+08 5.71207e+08 5.71493e+08 0 0
054 2 1 5.80257e+08 5.80502e+08 5.81521e+08 5.81621e+08 1 0
055 2 1 5.93438e+08 5.93691e+08 5.9471e+08 5.95153e+08 1 0
056 2 1 6.04962e+08 6.05227e+08 6.06246e+08 6.06513e+08 1 0
057 1 1 6.13741e+08 6.13996e+08 6.15015e+08 6.17441e+08 0 1
058 1 1 6.20364e+08 6.20626e+08 6.21645e+08 6.21653e+08 0 1
059 1 0 6.25991e+08 6.26243e+08 6.27262e+08 6.28657e+08 0 0
060 1 0 6.36097e+08 6.36358e+08 6.37377e+08 6.40362e+08 1 0
061 1 1 6.53066e+08 6.53341e+08 6.5436e+08 6.56032e+08 1 1
062 1 0 6.59371e+08 6.59636e+08 6.60655e+08 6.63296e+08 0 0
063 1 1 6.71095e+08 6.71359e+08 6.72378e+08 6.72911e+08 1 1
064 1 1 6.75585e+08 6.75845e+08 6.76864e+08 6.77205e+08 0 1
065 2 0 6.8114e+08 6.81399e+08 6.82419e+08 6.82526e+08 0 1
066 2 1 6.87792e+08 6.88038e+08 6.89057e+08 6.90269e+08 0 0
067 2 0 6.99336e+08 6.996e+08 7.00619e+08 7.01162e+08 1 1
068 1 1 7.04069e+08 7.04326e+08 7.05346e+08 7.05473e+08 0 1
069 1 1 7.08895e+08 7.0915e+08 7.10169e+08 7.12531e+08 0 1
070 2 0 7.15969e+08 7.16232e+08 7.17251e+08 7.17493e+08 0 1
071 2 1 7.20728e+08 7.20977e+08 7.21996e+08 7.22173e+08 0 0
072 2 0 7.29818e+08 7.30081e+08 7.31101e+08 7.31618e+08 1 1
073 2 0 7.3432e+08 7.34571e+08 7.3559e+08 7.35868e+08 0 1
074 1 1 7.41274e+08 7.4153e+08 7.42549e+08 7.45196e+08 0 1
075 2 1 7.4924e+08 7.49508e+08 7.50527e+08 7.51413e+08 0 0
076 2 1 7.6063e+08 7.60887e+08 7.61906e+08 7.64976e+08 1 0
077 2 1 7.7509e+08 7.75346e+08 7.76365e+08 7.76641e+08 1 0
078 2 0 7.88032e+08 7.88285e+08 7.89305e+08 7.90438e+08 1 1
079 2 1 7.9616e+08 7.96406e+08 7.97425e+08 7.97591e+08 0 0
080 2 1 8.06987e+08 8.07248e+08 8.08268e+08 8.08587e+08 1 0
081 2 1 8.15741e+08 8.16003e+08 8.17022e+08 8.20019e+08 1 0
082 2 1 8.29291e+08 8.29542e+08 8.30562e+08 8.30675e+08 1 0
083 2 1 8.4258e+08 8.42844e+08 8.43863e+08 8.44094e+08 0 0
084 2 1 8.55805e+08 8.56066e+08 8.57085e+08 8.58074e+08 0 0
085 2 1 8.68617e+08 8.68882e+08 8.69901e+08 8.70613e+08 0 0
086 2 0 8.78305e+08 8.78563e+08 8.79582e+08 8.819e+08 0 1
087 2 1 8.84681e+08 8.84931e+08 8.8595e+08 8.86287e+08 0 0
088 2 1 8.99768e+08 9.00014e+08 9.01034e+08 9.01917e+08 1 0
089 2 0 9.09466e+08 9.09721e+08 9.1074e+08 9.1506e+08 1 1
090 1 1 9.18081e+08 9.18325e+08 9.19344e+08 9.19948e+08 0 1
091 1 0 9.22607e+08 9.22856e+08 9.23875e+08 9.24951e+08 0 0
092 1 0 9.36366e+08 9.36622e+08 9.37641e+08 9.3913e+08 1 0
093 1 0 9.46172e+08 9.46428e+08 9.47447e+08 9.47663e+08 1 0
094 1 0 9.56945e+08 9.57198e+08 9.58217e+08 9.60443e+08 1 0
095 2 1 9.69802e+08 9.70055e+08 9.71074e+08 9.73017e+08 0 0
096 1 1 9.80408e+08 9.80655e+08 9.81674e+08 9.83542e+08 0 1
097 1 1 9.89255e+08 9.89498e+08 9.90517e+08 9.90958e+08 0 1
098 1 1 9.93776e+08 9.94032e+08 9.95051e+08 9.95127e+08 0 1
099 2 1 1.00196e+09 1.00222e+09 1.00324e+09 1.0035e+09 0 0
100 2 1 1.01068e+09 1.01094e+09 1.01196e+09 1.01204e+09 1 0
101 2 1 1.01957e+09 1.01983e+09 1.02085e+09 1.02299e+09 1 0
102 2 1 1.03073e+09 1.03099e+09 1.03201e+09 1.03385e+09 1 0
103 1 1 1.04133e+09 1.04159e+09 1.04261e+09 1.04414e+09 0 1
104 2 1 1.05071e+09 1.05096e+09 1.05198e+09 1.05216e+09 0 0
105 2 0 1.06244e+09 1.0627e+09 1.06372e+09 1.06555e+09 1 1
106 1 1 1.06839e+09 1.06864e+09 1.06966e+09 1.07256e+09 0 1
107 1 1 1.07626e+09 1.0765e+09 1.07752e+09 1.08188e+09 0 1
108 1 0 1.08475e+09 1.085e+09 1.08602e+09 1.09655e+09 0 0
109 1 1 1.10608e+09 1.10634e+09 1.10736e+09 1.10754e+09 1 1
110 2 1 1.11322e+09 1.11348e+09 1.1145e+09 1.11484e+09 0 0
111 2 0 1.12199e+09 1.12224e+09 1.12326e+09 1.12362e+09 1 1
112 2 1 1.12631e+09 1.12657e+09 1.12759e+09 1.12762e+09 0 0
113 2 1 1.13604e+09 1.13628e+09 1.1373e+09 1.13736e+09 1 0
114 2 1 1.14675e+09 1.14701e+09 1.14803e+09 1.15012e+09 1 0
115 2 1 1.15727e+09 1.15753e+09 1.15855e+09 1.15939e+09 1 0
116 1 1 1.16792e+09 1.16818e+09 1.1692e+09 1.17005e+09 0 1
117 2 1 1.17412e+09 1.17437e+09 1.17539e+09 1.17699e+09 0 0
118 2 1 1.18509e+09 1.18535e+09 1.18637e+09 1.18644e+09 1 0
119 2 0 1.19394e+09 1.1942e+09 1.19522e+09 1.19604e+09 1 1
120 1 0 1.19893e+09 1.19918e+09 1.2002e+09 1.20119e+09 0 0
121 1 1 1.21063e+09 1.21088e+09 1.2119e+09 1.21246e+09 1 1
122 1 1 1.2151e+09 1.21535e+09 1.21637e+09 1.21659e+09 0 1
123 2 1 1.22048e+09 1.22074e+09 1.22175e+09 1.2222e+09 0 0
124 2 1 1.22925e+09 1.2295e+09 1.23052e+09 1.23065e+09 1 0
125 2 0 1.23959e+09 1.23984e+09 1.24086e+09 1.24346e+09 1 1
126 1 1 1.24848e+09 1.24873e+09 1.24975e+09 1.26056e+09 0 1
127 1 1 1.26314e+09 1.26339e+09 1.26441e+09 1.26547e+09 0 1
128 1 0 1.26797e+09 1.26821e+09 1.26923e+09 1.26948e+09 0 0
129 1 1 1.27651e+09 1.27675e+09 1.27777e+09 1.28101e+09 1 1
130 2 1 1.28407e+09 1.28432e+09 1.28534e+09 1.28683e+09 0 0
131 2 1 1.29517e+09 1.29541e+09 1.29643e+09 1.30832e+09 1 0
132 2 0 1.31573e+09 1.31598e+09 1.317e+09 1.31801e+09 1 1
133 1 1 1.32102e+09 1.32128e+09 1.3223e+09 1.32378e+09 0 1
134 1 1 1.32798e+09 1.32823e+09 1.32925e+09 1.33194e+09 0 1
135 2 0 1.33468e+09 1.33493e+09 1.33595e+09 1.34076e+09 0 1
136 2 0 1.34355e+09 1.3438e+09 1.34482e+09 1.34713e+09 0 1
137 1 1 1.3498e+09 1.35006e+09 1.35108e+09 1.35591e+09 0 1
138 2 0 1.36457e+09 1.36483e+09 1.36585e+09 1.368e+09 0 1
139 1 0 1.37127e+09 1.37153e+09 1.37255e+09 1.37949e+09 0 0
140 1 0 1.38693e+09 1.38718e+09 1.3882e+09 1.38911e+09 1 0
141 1 0 1.39624e+09 1.39649e+09 1.39751e+09 1.40683e+09 1 0
142 1 0 1.4142e+09 1.41445e+09 1.41547e+09 1.41642e+09 1 0
143 1 0 1.42375e+09 1.42401e+09 1.42503e+09 1.4251e+09 0 0
144 1 1 1.43236e+09 1.43262e+09 1.43364e+09 1.44354e+09 0 1
145 2 0 1.44614e+09 1.44639e+09 1.44741e+09 1.46253e+09 0 1
