trial trialType response stillTime stimOnset stimOffset respTime correctionTrial correct
001 2 0 7.90632e+06 8.21694e+06 9.23609e+06 9.44813e+06 0 1
002 1 0 2.2953e+07 2.32297e+07 2.42489e+07 2.78267e+07 0 0
003 1 0 3.74405e+07 3.77234e+07 3.87426e+07 3.94638e+07 1 0
004 1 0 4.75925e+07 4.78509e+07 4.88701e+07 4.90932e+07 1 0
005 1 0 5.82318e+07 5.84841e+07 5.95032e+07 6.02738e+07 1 0
006 2 0 6.91999e+07 6.94455e+07 7.04647e+07 7.21809e+07 0 1
007 1 0 7.47756e+07 7.50389e+07 7.60581e+07 7.60826e+07 0 0
008 1 0 8.74302e+07 8.76851e+07 8.87042e+07 9.02402e+07 1 0
009 1 1 9.94837e+07 9.97458e+07 1.00765e+08 1.0163e+08 1 1
010 1 1 1.04401e+08 1.04662e+08 1.05682e+08 1.06016e+08 0 1
011 2 1 1.10645e+08 1.10894e+08 1.11913e+08 1.12584e+08 0 0
012 2 0 1.23966e+08 1.24222e+08 1.25241e+08 1.26122e+08 1 1
013 1 1 1.3376e+08 1.34016e+08 1.35036e+08 1.35216e+08 0 1
014 1 0 1.44619e+08 1.44869e+08 1.45888e+08 1.45897e+08 0 0
015 1 0 1.55718e+08 1.55962e+08 1.56981e+08 1.58224e+08 1 0
016 1 1 1.66871e+08 1.67124e+08 1.68144e+08 1.68456e+08 1 1
017 2 0 1.80821e+08 1.81081e+08 1.821e+08 1.83131e+08 0 1
018 2 1 1.86866e+08 1.87118e+08 1.88137e+08 1.88822e+08 0 0
019 2 0 2.0111e+08 2.01374e+08 2.02393e+08 2.03018e+08 1 1
020 2 0 2.12219e+08 2.12471e+08 2.1349e+08 2.13976e+08 0 1
021 2 0 2.27786e+08 2.28037e+08 2.29056e+08 2.29258e+08 0 1
022 2 0 2.31964e+08 2.32221e+08 2.33241e+08 2.33566e+08 0 1
023 2 0 2.46697e+08 2.46959e+08 2.47978e+08 2.48934e+08 0 1
024 1 1 2.51637e+08 2.51892e+08 2.52911e+08 2.52945e+08 0 1
025 1 1 2.60248e+08 2.60499e+08 2.61518e+08 2.6167e+08 0 1
026 2 0 2.87259e+08 2.87509e+08 2.88528e+08 2.89531e+08 0 1
027 2 0 2.92163e+08 2.92415e+08 2.93434e+08 2.93677e+08 0 1
028 2 1 2.97047e+08 2.97299e+08 2.98319e+08 2.98434e+08 0 0
029 2 0 3.17449e+08 3.17712e+08 3.18731e+08 3.205e+08 1 1
030 2 1 3.2629e+08 3.26555e+08 3.27575e+08 3.28366e+08 0 0
031 2 1 3.51564e+08 3.5183e+08 3.5285e+08 3.53644e+08 1 0
032 2 0 3.65806e+08 3.6606e+08 3.67079e+08 3.6805e+08 1 1
033 2 0 3.7056e+08 3.70825e+08 3.71844e+08 3.73278e+08 0 1
034 1 0 3.82538e+08 3.82795e+08 3.83815e+08 3.85341e+08 0 0
035 1 0 3.93362e+08 3.93624e+08 3.94644e+08 3.94657e+08 1 0
036 1 1 4.03109e+08 4.03365e+08 4.04384e+08 4.04593e+08 1 1
037 1 1 4.16468e+08 4.16722e+08 4.17741e+08 4.17857e+08 0 1
038 2 0 4.28085e+08 4.28332e+08 4.29351e+08 4.29738e+08 0 1
039 1 1 4.3987e+08 4.40127e+08 4.41146e+08 4.41503e+08 0 1
040 2 0 4.64136e+08 4.64402e+08 4.65421e+08 4.6682e+08 0 1
041 2 1 4.90063e+08 4.90308e+08 4.91327e+08 4.91907e+08 0 0
042 2 0 5.00385e+08 5.00645e+08 5.01664e+08 5.01908e+08 1 1
043 1 1 5.18107e+08 5.18356e+08 5.19376e+08 5.19793e+08 0 1
044 1 0 5.3922e+08 5.39473e+08 5.40492e+08 5.41555e+08 0 0
045 1 1 5.547e+08 5.54958e+08 5.55977e+08 5.56426e+08 1 1
046 1 1 5.66904e+08 5.67163e+08 5.68182e+08 5.68577e+08 0 1
047 1 1 5.75314e+08 5.75575e+08 5.76594e+08 5.76643e+08 0 1
048 1 1 5.82402e+08 5.82668e+08 5.83687e+08 5.8405e+08 0 1
049 1 1 5.89828e+08 5.90075e+08 5.91094e+08 5.91175e+08 0 1
050 1 1 5.98793e+08 5.99041e+08 6.0006e+08 6.01085e+08 0 1
051 1 1 6.03674e+08 6.03928e+08 6.04947e+08 6.05031e+08 0 1
052 1 1 6.15421e+08 6.15679e+08 6.16698e+08 6.16769e+08 0 1
053 2 1 6.19539e+08 6.19792e+08 6.20811e+08 6.20913e+08 0 0
054 2 1 6.30072e+08 6.30332e+08 6.31351e+08 6.31848e+08 1 0
055 2 1 6.43992e+08 6.44243e+08 6.45262e+08 6.4532e+08 1 0
056 2 0 6.64067e+08 6.64329e+08 6.65348e+08 6.67234e+08 1 1
057 2 1 6.69932e+08 6.70195e+08 6.71215e+08 6.71229e+08 0 0
058 2 0 6.82814e+08 6.83059e+08 6.84078e+08 6.84161e+08 1 1
059 2 1 6.91176e+08 6.91426e+08 6.92445e+08 6.92958e+08 0 0
060 2 0 7.01884e+08 7.02137e+08 7.03156e+08 7.03825e+08 1 1
061 2 0 7.11776e+08 7.1202e+08 7.13039e+08 7.14136e+08 0 1
062 1 1 7.1688e+08 7.17124e+08 7.18143e+08 7.18307e+08 0 1
063 1 1 7.21408e+08 7.2166e+08 7.22679e+08 7.23123e+08 0 1
064 2 1 7.25711e+08 7.25958e+08 7.26977e+08 7.31748e+08 0 0
065 2 1 7.406e+08 7.4086e+08 7.41879e+08 7.42433e+08 1 0
066 2 0 7.5119e+08 7.51456e+08 7.52475e+08 7.53686e+08 1 1
067 1 0 7.5674e+08 7.56992e+08 7.58011e+08 7.58403e+08 0 0
068 1 1 7.65982e+08 7.66233e+08 7.67252e+08 7.67516e+08 1 1
069 1 1 7.70215e+08 7.70479e+08 7.71498e+08 7.72294e+08 0 1
070 1 1 7.83999e+08 7.84253e+08 7.85272e+08 7.85284e+08 0 1
071 1 0 7.91634e+08 7.91892e+08 7.92912e+08 7.93071e+08 0 0
072 1 0 8.02331e+08 8.0259e+08 8.03609e+08 8.03615e+08 1 0
073 1 1 8.12032e+08 8.12283e+08 8.13302e+08 8.13386e+08 1 1
074 2 1 8.1597e+08 8.16229e+08 8.17248e+08 8.17526e+08 0 0
075 2 1 8.27502e+08 8.27753e+08 8.28772e+08 8.29159e+08 1 0
076 2 1 8.36745e+08 8.37003e+08 8.38022e+08 8.38053e+08 1 0
077 2 0 8.47761e+08 8.48009e+08 8.49028e+08 8.49046e+08 1 1
078 2 1 8.51574e+08 8.51829e+08 8.52848e+08 8.52999e+08 0 0
079 2 0 8.67934e+08 8.68185e+08 8.69204e+08 8.71568e+08 1 1
080 2 0 8.74212e+08 8.74472e+08 8.75491e+08 8.76684e+08 0 1
081 2 1 8.85203e+08 8.85451e+08 8.8647e+08 8.86565e+08 0 0
082 2 1 8.96251e+08 8.96502e+08 8.97521e+08 8.97914e+08 1 0
083 2 1 9.05082e+08 9.05339e+08 9.06358e+08 9.0657e+08 1 0
084 2 0 9.14177e+08 9.1443e+08 9.15449e+08 9.16724e+08 1 1
085 2 0 9.19263e+08 9.19527e+08 9.20546e+08 9.20752e+08 0 1
086 1 1 9.23435e+08 9.23688e+08 9.24707e+08 9.24784e+08 0 1
087 1 1 9.30682e+08 9.30934e+08 9.31953e+08 9.32291e+08 0 1
088 1 0 9.44429e+08 9.4469e+08 9.45709e+08 9.46661e+08 0 0
089 1 1 9.59225e+08 9.59479e+08 9.60498e+08 9.61869e+08 1 1
090 2 1 9.68881e+08 9.6914e+08 9.70159e+08 9.70595e+08 0 0
091 2 0 9.78605e+08 9.78855e+08 9.79874e+08 9.80085e+08 1 1
092 1 1 9.84385e+08 9.84647e+08 9.85666e+08 9.85731e+08 0 1
093 1 1 9.88939e+08 9.89186e+08 9.90205e+08 9.90219e+08 0 1
094 2 1 9.9689e+08 9.97133e+08 9.98152e+08 9.98494e+08 0 0
095 2 1 1.00579e+09 1.00604e+09 1.00706e+09 1.00708e+09 1 0
096 2 0 1.01541e+09 1.01566e+09 1.01668e+09 1.01903e+09 1 1
097 1 1 1.02173e+09 1.02198e+09 1.023e+09 1.02342e+09 0 1
098 1 1 1.02847e+09 1.02873e+09 1.02974e+09 1.03005e+09 0 1
099 1 1 1.03297e+09 1.03323e+09 1.03425e+09 1.03443e+09 0 1
100 2 0 1.03751e+09 1.03777e+09 1.03879e+09 1.03933e+09 0 1
101 1 0 1.045e+09 1.04526e+09 1.04628e+09 1.04654e+09 0 0
102 1 1 1.0552e+09 1.05546e+09 1.05648e+09 1.05661e+09 1 1
103 2 0 1.0639e+09 1.06415e+09 1.06517e+09 1.0653e+09 0 1
104 2 1 1.07116e+09 1.07141e+09 1.07243e+09 1.07245e+09 0 0
105 2 1 1.07962e+09 1.07987e+09 1.08089e+09 1.08106e+09 1 0
106 2 0 1.0994e+09 1.09966e+09 1.10068e+09 1.10235e+09 1 1
107 1 1 1.10501e+09 1.10527e+09 1.10629e+09 1.10631e+09 0 1
108 2 1 1.11388e+09 1.11413e+09 1.11515e+09 1.11518e+09 0 0
109 2 0 1.12938e+09 1.12964e+09 1.13065e+09 1.13224e+09 1 1
110 2 1 1.14133e+09 1.14159e+09 1.14261e+09 1.14274e+09 0 0
111 2 1 1.15071e+09 1.15096e+09 1.15198e+09 1.15207e+09 1 0
112 2 1 1.16046e+09 1.16072e+09 1.16174e+09 1.1619e+09 1 0
113 2 0 1.17286e+09 1.17312e+09 1.17414e+09 1.17511e+09 1 1
114 1 1 1.17778e+09 1.17803e+09 1.17905e+09 1.17932e+09 0 1
115 1 1 1.18195e+09 1.1822e+09 1.18322e+09 1.18336e+09 0 1
116 1 1 1.18684e+09 1.1871e+09 1.18812e+09 1.18816e+09 0 1
117 2 1 1.194e+09 1.19425e+09 1.19527e+09 1.19528e+09 0 0
118 2 0 1.2076e+09 1.20785e+09 1.20887e+09 1.20892e+09 1 1
119 2 0 1.21654e+09 1.21681e+09 1.21783e+09 1.21786e+09 0 1
120 2 0 1.22559e+09 1.22585e+09 1.22687e+09 1.22706e+09 0 1
121 2 0 1.24057e+09 1.24084e+09 1.24186e+09 1.24188e+09 0 1
122 1 1 1.24443e+09 1.24469e+09 1.24571e+09 1.2462e+09 0 1
123 2 1 1.253e+09 1.25325e+09 1.25427e+09 1.25429e+09 0 0
124 2 1 1.26365e+09 1.26391e+09 1.26493e+09 1.26585e+09 1 0
125 2 0 1.27566e+09 1.27592e+09 1.27694e+09 1.27867e+09 1 1
126 1 1 1.28162e+09 1.28188e+09 1.2829e+09 1.28291e+09 0 1
127 2 1 1.28771e+09 1.28795e+09 1.28897e+09 1.28903e+09 0 0
128 2 0 1.29679e+09 1.29704e+09 1.29805e+09 1.29823e+09 1 1
129 1 1 1.30071e+09 1.30096e+09 1.30198e+09 1.30224e+09 0 1
130 2 1 1.30539e+09 1.30564e+09 1.30666e+09 1.30707e+09 0 0
131 2 1 1.31582e+09 1.31606e+09 1.31708e+09 1.31713e+09 1 0
132 2 0 1.32581e+09 1.32606e+09 1.32708e+09 1.32926e+09 1 1
133 1 1 1.33182e+09 1.33207e+09 1.33309e+09 1.33312e+09 0 1
134 1 1 1.34225e+09 1.3425e+09 1.34352e+09 1.34354e+09 0 1
135 1 0 1.34883e+09 1.34907e+09 1.35009e+09 1.35165e+09 0 0
136 1 1 1.35963e+09 1.35988e+09 1.3609e+09 1.36207e+09 1 1
137 1 1 1.36721e+09 1.36747e+09 1.36849e+09 1.36854e+09 0 1
138 1 1 1.37371e+09 1.37399e+09 1.37501e+09 1.37525e+09 0 1
139 2 1 1.37791e+09 1.37817e+09 1.37919e+09 1.38026e+09 0 0
140 2 1 1.38769e+09 1.38795e+09 1.38896e+09 1.38933e+09 1 0
141 2 1 1.39842e+09 1.39867e+09 1.39969e+09 1.39986e+09 1 0
142 2 1 1.40723e+09 1.40748e+09 1.4085e+09 1.41184e+09 1 0
143 2 1 1.41917e+09 1.41943e+09 1.42044e+09 1.42066e+09 0 0
144 1 0 1.43015e+09 1.4304e+09 1.43142e+09 1.43144e+09 0 0
145 2 1 1.43864e+09 1.43889e+09 1.43991e+09 1.43996e+09 0 0
146 1 0 1.44866e+09 1.44891e+09 1.44993e+09 1.45035e+09 0 0
147 1 1 1.45757e+09 1.45782e+09 1.45884e+09 1.45899e+09 0 1
148 2 1 1.46645e+09 1.46669e+09 1.46771e+09 1.46784e+09 0 0
149 2 0 1.47887e+09 1.47913e+09 1.48015e+09 1.48077e+09 1 1
150 2 1 1.48575e+09 1.48599e+09 1.48701e+09 1.48709e+09 0 0
151 2 1 1.49484e+09 1.4951e+09 1.49611e+09 1.49619e+09 1 0
152 2 1 1.50487e+09 1.50512e+09 1.50614e+09 1.50668e+09 1 0
153 2 1 1.51381e+09 1.51406e+09 1.51508e+09 1.51511e+09 1 0
154 2 0 1.52251e+09 1.52276e+09 1.52378e+09 1.52631e+09 0 1
155 2 0 1.53832e+09 1.53858e+09 1.5396e+09 1.54234e+09 0 1
156 2 0 1.55603e+09 1.55629e+09 1.5573e+09 1.55738e+09 0 1
157 1 1 1.56016e+09 1.56041e+09 1.56143e+09 1.56153e+09 0 1
158 2 1 1.56949e+09 1.56975e+09 1.57076e+09 1.57122e+09 0 0
159 2 0 1.58268e+09 1.58293e+09 1.58395e+09 1.58409e+09 1 1
160 1 1 1.58672e+09 1.58697e+09 1.58799e+09 1.58807e+09 0 1
161 1 1 1.59354e+09 1.5938e+09 1.59482e+09 1.59492e+09 0 1
162 1 1 1.59841e+09 1.59866e+09 1.59968e+09 1.59975e+09 0 1
163 1 1 1.60336e+09 1.60361e+09 1.60463e+09 1.60609e+09 0 1
164 2 1 1.61482e+09 1.61508e+09 1.6161e+09 1.61612e+09 0 0
165 2 1 1.62574e+09 1.62598e+09 1.627e+09 1.62805e+09 1 0
166 2 0 1.63658e+09 1.63683e+09 1.63785e+09 1.63824e+09 1 1
167 1 1 1.64363e+09 1.64388e+09 1.6449e+09 1.64514e+09 0 1
168 1 0 1.65361e+09 1.65388e+09 1.6549e+09 1.65492e+09 0 0
169 1 1 1.66317e+09 1.66342e+09 1.66444e+09 1.66491e+09 1 1
170 1 1 1.66744e+09 1.66769e+09 1.6687e+09 1.66887e+09 0 1
171 1 1 1.67159e+09 1.67185e+09 1.67286e+09 1.67288e+09 0 1
172 2 1 1.67977e+09 1.68003e+09 1.68105e+09 1.68126e+09 0 0
173 2 1 1.69081e+09 1.69107e+09 1.69209e+09 1.69211e+09 1 0
174 2 1 1.69938e+09 1.69963e+09 1.70065e+09 1.70107e+09 1 0
175 2 0 1.70916e+09 1.7094e+09 1.71042e+09 1.71077e+09 1 1
176 2 0 1.71838e+09 1.71863e+09 1.71965e+09 1.71984e+09 0 1
177 2 1 1.72917e+09 1.72942e+09 1.73043e+09 1.73068e+09 0 0
178 2 1 1.74434e+09 1.7446e+09 1.74562e+09 1.74573e+09 1 0
179 2 1 1.75288e+09 1.75314e+09 1.75416e+09 1.75717e+09 1 0
180 2 1 1.76572e+09 1.76597e+09 1.76699e+09 1.76723e+09 1 0
181 1 1 1.77488e+09 1.77513e+09 1.77615e+09 1.77618e+09 0 1
182 2 1 1.78539e+09 1.78564e+09 1.78666e+09 1.78731e+09 0 0
183 2 0 1.79461e+09 1.79487e+09 1.79589e+09 1.79597e+09 1 1
184 1 1 1.79912e+09 1.79938e+09 1.8004e+09 1.80043e+09 0 1
185 1 1 1.80806e+09 1.80832e+09 1.80934e+09 1.8094e+09 0 1
186 2 1 1.81611e+09 1.81638e+09 1.8174e+09 1.81742e+09 0 0
187 2 1 1.82495e+09 1.82522e+09 1.82624e+09 1.82636e+09 1 0
188 2 0 1.85042e+09 1.85068e+09 1.8517e+09 1.852e+09 1 1
189 1 1 1.85461e+09 1.85487e+09 1.85589e+09 1.856e+09 0 1
190 1 0 1.86502e+09 1.86528e+09 1.8663e+09 1.86994e+09 0 0
191 1 1 1.87879e+09 1.87905e+09 1.88007e+09 1.88104e+09 1 1
192 1 1 1.88703e+09 1.88728e+09 1.8883e+09 1.89363e+09 0 1
193 1 1 1.89648e+09 1.89673e+09 1.89775e+09 1.90025e+09 0 1
194 2 0 1.90851e+09 1.90877e+09 1.90979e+09 1.91032e+09 0 1
195 2 1 1.91877e+09 1.91902e+09 1.92004e+09 1.92032e+09 0 0
196 2 0 1.92739e+09 1.92765e+09 1.92867e+09 1.92888e+09 1 1
197 1 1 1.93335e+09 1.9336e+09 1.93462e+09 1.93543e+09 0 1
198 1 1 1.93795e+09 1.93821e+09 1.93923e+09 1.94027e+09 0 1
199 1 1 1.94296e+09 1.94321e+09 1.94423e+09 1.94544e+09 0 1
200 2 1 1.95198e+09 1.95223e+09 1.95325e+09 1.95434e+09 0 0
201 2 1 1.96351e+09 1.96377e+09 1.96479e+09 1.96483e+09 1 0
202 2 0 1.97291e+09 1.97317e+09 1.97419e+09 1.97626e+09 1 1
203 2 0 1.98958e+09 1.98983e+09 1.99085e+09 1.99321e+09 0 1
204 1 0 2.00423e+09 2.00449e+09 2.00551e+09 2.00562e+09 0 0
205 1 0 2.01655e+09 2.01681e+09 2.01783e+09 2.018e+09 1 0
206 1 0 2.03033e+09 2.03059e+09 2.03161e+09 2.03243e+09 1 0
207 1 0 2.04012e+09 2.04038e+09 2.0414e+09 2.04216e+09 1 0
208 1 0 2.04929e+09 2.04955e+09 2.05057e+09 2.0522e+09 0 0
209 1 1 2.05986e+09 2.06011e+09 2.06113e+09 2.06171e+09 0 1
210 1 1 2.06925e+09 2.0695e+09 2.07052e+09 2.07056e+09 0 1
211 2 1 2.07983e+09 2.08007e+09 2.08109e+09 2.08113e+09 0 0
212 2 1 2.08821e+09 2.08848e+09 2.0895e+09 2.08972e+09 1 0
213 2 0 2.10067e+09 2.10093e+09 2.10195e+09 2.10197e+09 1 1
214 1 1 2.10575e+09 2.106e+09 2.10702e+09 2.10745e+09 0 1
215 2 0 2.11012e+09 2.11037e+09 2.11139e+09 2.11161e+09 0 1
216 1 1 2.11431e+09 2.11455e+09 2.11557e+09 2.11571e+09 0 1
217 2 1 2.12466e+09 2.12491e+09 2.12593e+09 2.12598e+09 0 0
218 2 0 2.1357e+09 2.13595e+09 2.13697e+09 2.13832e+09 1 1
219 2 0 2.14938e+09 2.14963e+09 2.15065e+09 2.1508e+09 0 1
220 2 0 2.15341e+09 2.15367e+09 2.15468e+09 2.15567e+09 0 1
221 2 0 2.1665e+09 2.16677e+09 2.16778e+09 2.16964e+09 0 1
222 2 0 2.18017e+09 2.18043e+09 2.18145e+09 2.18283e+09 0 1
223 1 1 2.18581e+09 2.18608e+09 2.1871e+09 2.18751e+09 0 1
224 2 0 2.20325e+09 2.20352e+09 2.20454e+09 2.20545e+09 0 1
225 2 1 2.20946e+09 2.20972e+09 2.21074e+09 2.2112e+09 0 0
226 2 0 2.22253e+09 2.22278e+09 2.2238e+09 2.22388e+09 1 1
227 2 0 2.22749e+09 2.22774e+09 2.22876e+09 2.23096e+09 0 1
228 2 0 2.24233e+09 2.24258e+09 2.2436e+09 2.2446e+09 0 1
229 2 0 2.24715e+09 2.2474e+09 2.24842e+09 2.25031e+09 0 1
230 2 1 2.25346e+09 2.25371e+09 2.25473e+09 2.25677e+09 0 0
231 2 1 2.26836e+09 2.26861e+09 2.26963e+09 2.2698e+09 1 0
232 2 0 2.2769e+09 2.27717e+09 2.27818e+09 2.28009e+09 1 1
233 2 1 2.29279e+09 2.29305e+09 2.29407e+09 2.2941e+09 0 0
234 2 1 2.30786e+09 2.30811e+09 2.30913e+09 2.30923e+09 1 0
235 2 1 2.31832e+09 2.31857e+09 2.31959e+09 2.31972e+09 1 0
236 2 1 2.32889e+09 2.32913e+09 2.33015e+09 2.33017e+09 1 0
237 2 1 2.34334e+09 2.3436e+09 2.34462e+09 2.34495e+09 0 0
238 2 0 2.35387e+09 2.35413e+09 2.35514e+09 2.35565e+09 0 1
239 2 0 2.36135e+09 2.3616e+09 2.36262e+09 2.36278e+09 0 1
240 1 1 2.36847e+09 2.36873e+09 2.36974e+09 2.37003e+09 0 1
241 2 0 2.37347e+09 2.37373e+09 2.37475e+09 2.37486e+09 0 1
242 1 0 2.38532e+09 2.38558e+09 2.3866e+09 2.38731e+09 0 0
243 1 0 2.39624e+09 2.3965e+09 2.39752e+09 2.39769e+09 1 0
244 1 0 2.40539e+09 2.40565e+09 2.40667e+09 2.40778e+09 1 0
245 1 0 2.41747e+09 2.41772e+09 2.41874e+09 2.41881e+09 1 0
246 1 0 2.42609e+09 2.42634e+09 2.42736e+09 2.42982e+09 0 0
247 1 0 2.43981e+09 2.44005e+09 2.44107e+09 2.44128e+09 0 0
248 2 0 2.45141e+09 2.45166e+09 2.45268e+09 2.45371e+09 0 1
249 2 0 2.46409e+09 2.46435e+09 2.46537e+09 2.4656e+09 0 1
250 1 1 2.46843e+09 2.46868e+09 2.46969e+09 2.46978e+09 0 1
251 2 1 2.48191e+09 2.48217e+09 2.48319e+09 2.48327e+09 0 0
252 2 0 2.49828e+09 2.49853e+09 2.49955e+09 2.50166e+09 1 1
253 2 0 2.51947e+09 2.51973e+09 2.52075e+09 2.52348e+09 0 1
254 2 1 2.5297e+09 2.52995e+09 2.53097e+09 2.5316e+09 0 0
255 2 1 2.54239e+09 2.54265e+09 2.54367e+09 2.54385e+09 1 0
256 2 0 2.55225e+09 2.55249e+09 2.55351e+09 2.55549e+09 1 1
257 2 1 2.56154e+09 2.56179e+09 2.56281e+09 2.56285e+09 0 0
258 2 0 2.57517e+09 2.57543e+09 2.57645e+09 2.57687e+09 1 1
259 1 1 2.58079e+09 2.58104e+09 2.58206e+09 2.58254e+09 0 1
260 1 1 2.58765e+09 2.58791e+09 2.58893e+09 2.58908e+09 0 1
261 1 1 2.5944e+09 2.59465e+09 2.59567e+09 2.59568e+09 0 1
262 1 1 2.60025e+09 2.60051e+09 2.60152e+09 2.6017e+09 0 1
263 1 1 2.60442e+09 2.60466e+09 2.60568e+09 2.60783e+09 0 1
264 1 1 2.61201e+09 2.61227e+09 2.61329e+09 2.61414e+09 0 1
265 1 1 2.61733e+09 2.61759e+09 2.61861e+09 2.61878e+09 0 1
266 2 1 2.62803e+09 2.62828e+09 2.6293e+09 2.62963e+09 0 0
267 2 0 2.63837e+09 2.63862e+09 2.63964e+09 2.64276e+09 1 1
268 2 1 2.64708e+09 2.64734e+09 2.64836e+09 2.64881e+09 0 0
269 2 0 2.66656e+09 2.66682e+09 2.66784e+09 2.66797e+09 1 1
270 2 0 2.68216e+09 2.68241e+09 2.68343e+09 2.68349e+09 0 1
271 1 0 2.69897e+09 2.69922e+09 2.70024e+09 2.70059e+09 0 0
272 1 1 2.71332e+09 2.71357e+09 2.71459e+09 2.71486e+09 1 1
273 1 0 2.72465e+09 2.72491e+09 2.72593e+09 2.72682e+09 0 0
274 1 0 2.73751e+09 2.73777e+09 2.73879e+09 2.73893e+09 1 0
275 1 1 2.74636e+09 2.74663e+09 2.74765e+09 2.7477e+09 1 1
276 1 1 2.7541e+09 2.75435e+09 2.75537e+09 2.75543e+09 0 1
277 2 1 2.76692e+09 2.76718e+09 2.7682e+09 2.76871e+09 0 0
278 2 1 2.77595e+09 2.7762e+09 2.77722e+09 2.77725e+09 1 0
279 2 0 2.7847e+09 2.78495e+09 2.78597e+09 2.78685e+09 1 1
280 2 0 2.78967e+09 2.78993e+09 2.79095e+09 2.79101e+09 0 1
281 1 1 2.7943e+09 2.79456e+09 2.79558e+09 2.7956e+09 0 1
282 1 1 2.80558e+09 2.80584e+09 2.80685e+09 2.80721e+09 0 1
283 2 1 2.8101e+09 2.81037e+09 2.81139e+09 2.8121e+09 0 0
284 2 0 2.82219e+09 2.82245e+09 2.82347e+09 2.82349e+09 1 1
285 1 1 2.82673e+09 2.82698e+09 2.828e+09 2.82833e+09 0 1
286 2 1 2.83259e+09 2.83285e+09 2.83387e+09 2.83405e+09 0 0
287 2 1 2.85333e+09 2.85359e+09 2.85461e+09 2.85524e+09 1 0
288 2 0 2.86298e+09 2.86323e+09 2.86425e+09 2.86439e+09 1 1
289 1 0 2.88329e+09 2.88354e+09 2.88456e+09 2.88497e+09 0 0
290 1 1 2.89938e+09 2.89963e+09 2.90065e+09 2.90098e+09 1 1
291 2 1 2.90725e+09 2.9075e+09 2.90852e+09 2.90862e+09 0 0
292 2 0 2.91766e+09 2.91791e+09 2.91893e+09 2.91933e+09 1 1
293 2 1 2.92723e+09 2.92749e+09 2.92851e+09 2.92876e+09 0 0
294 2 1 2.93821e+09 2.93847e+09 2.93949e+09 2.93949e+09 1 0
295 2 0 2.94953e+09 2.94978e+09 2.9508e+09 2.95316e+09 1 1
296 1 1 2.95961e+09 2.95987e+09 2.96088e+09 2.9609e+09 0 1
297 1 1 2.96693e+09 2.96718e+09 2.9682e+09 2.96851e+09 0 1
298 1 1 2.97466e+09 2.97491e+09 2.97593e+09 2.97596e+09 0 1
299 2 0 2.98117e+09 2.98141e+09 2.98243e+09 2.98271e+09 0 1
300 2 1 2.98541e+09 2.98567e+09 2.98669e+09 2.9883e+09 0 0
301 2 0 2.99539e+09 2.99564e+09 2.99666e+09 2.99803e+09 1 1
302 1 1 3.00283e+09 3.00308e+09 3.0041e+09 3.00472e+09 0 1
303 2 0 3.01226e+09 3.01251e+09 3.01353e+09 3.01429e+09 0 1
304 1 0 3.021e+09 3.02126e+09 3.02228e+09 3.02272e+09 0 0
305 1 1 3.03047e+09 3.03072e+09 3.03173e+09 3.03175e+09 1 1
306 2 1 3.03472e+09 3.03497e+09 3.03599e+09 3.03627e+09 0 0
307 2 0 3.04464e+09 3.04488e+09 3.0459e+09 3.046e+09 1 1
308 2 1 3.04878e+09 3.04904e+09 3.05006e+09 3.05013e+09 0 0
309 2 0 3.05735e+09 3.05762e+09 3.05864e+09 3.05877e+09 1 1
310 2 1 3.06169e+09 3.06194e+09 3.06295e+09 3.063e+09 0 0
311 2 0 3.07318e+09 3.07345e+09 3.07447e+09 3.07454e+09 1 1
312 2 1 3.07761e+09 3.07786e+09 3.07888e+09 3.079e+09 0 0
313 2 0 3.08658e+09 3.08682e+09 3.08784e+09 3.0892e+09 1 1
314 1 1 3.09281e+09 3.09306e+09 3.09408e+09 3.09426e+09 0 1
315 2 1 3.10006e+09 3.10031e+09 3.10133e+09 3.10177e+09 0 0
316 2 0 3.1142e+09 3.11446e+09 3.11548e+09 3.11615e+09 1 1
317 1 1 3.11966e+09 3.1199e+09 3.12092e+09 3.12125e+09 0 1
318 2 1 3.12495e+09 3.12521e+09 3.12623e+09 3.12741e+09 0 0
319 2 1 3.1358e+09 3.13605e+09 3.13707e+09 3.13714e+09 1 0
320 2 0 3.14532e+09 3.14556e+09 3.14658e+09 3.14678e+09 1 1
321 1 1 3.1517e+09 3.15195e+09 3.15297e+09 3.15298e+09 0 1
322 1 1 3.16034e+09 3.16058e+09 3.1616e+09 3.16191e+09 0 1
323 2 1 3.16497e+09 3.16522e+09 3.16624e+09 3.16698e+09 0 0
324 2 0 3.17411e+09 3.17437e+09 3.17539e+09 3.17562e+09 1 1
325 1 1 3.17866e+09 3.17891e+09 3.17993e+09 3.17996e+09 0 1
326 1 0 3.19137e+09 3.19162e+09 3.19264e+09 3.1927e+09 0 0
327 1 1 3.19987e+09 3.20012e+09 3.20114e+09 3.20153e+09 1 1
328 2 1 3.2055e+09 3.20575e+09 3.20677e+09 3.20687e+09 0 0
329 2 1 3.21393e+09 3.21419e+09 3.2152e+09 3.21524e+09 1 0
330 2 1 3.22734e+09 3.2276e+09 3.22862e+09 3.22871e+09 1 0
331 2 1 3.23604e+09 3.2363e+09 3.23732e+09 3.23872e+09 1 0
332 2 0 3.2473e+09 3.24755e+09 3.24857e+09 3.25059e+09 0 1
333 1 0 3.25726e+09 3.25752e+09 3.25854e+09 3.25879e+09 0 0
334 1 0 3.27076e+09 3.27101e+09 3.27203e+09 3.27255e+09 1 0
335 1 0 3.27994e+09 3.28019e+09 3.28121e+09 3.28144e+09 1 0
336 1 0 3.29052e+09 3.29077e+09 3.29179e+09 3.2922e+09 1 0
337 2 0 3.29954e+09 3.2998e+09 3.30082e+09 3.30562e+09 0 1
338 1 1 3.3117e+09 3.31196e+09 3.31298e+09 3.31306e+09 0 1
339 1 0 3.3247e+09 3.32496e+09 3.32598e+09 3.32602e+09 0 0
340 1 0 3.3335e+09 3.33377e+09 3.33479e+09 3.3351e+09 1 0
341 1 0 3.34262e+09 3.34287e+09 3.34389e+09 3.3441e+09 1 0
342 1 0 3.35378e+09 3.35405e+09 3.35507e+09 3.35546e+09 1 0
343 1 1 3.36712e+09 3.36738e+09 3.3684e+09 3.36842e+09 0 1
344 2 1 3.37102e+09 3.37127e+09 3.37229e+09 3.3727e+09 0 0
345 2 0 3.3819e+09 3.38215e+09 3.38317e+09 3.38504e+09 1 1
346 2 0 3.38781e+09 3.38806e+09 3.38908e+09 3.3892e+09 0 1
347 2 1 3.39277e+09 3.39301e+09 3.39403e+09 3.39429e+09 0 0
348 2 0 3.40348e+09 3.40373e+09 3.40475e+09 3.40601e+09 1 1
349 1 1 3.41616e+09 3.41643e+09 3.41745e+09 3.42013e+09 0 1
350 2 1 3.423e+09 3.42325e+09 3.42427e+09 3.42451e+09 0 0
351 2 0 3.43291e+09 3.43316e+09 3.43418e+09 3.43508e+09 1 1
352 2 0 3.44043e+09 3.44069e+09 3.44171e+09 3.44281e+09 0 1
353 1 1 3.44543e+09 3.44569e+09 3.44671e+09 3.44708e+09 0 1
354 1 1 3.4515e+09 3.45176e+09 3.45277e+09 3.45284e+09 0 1
355 2 1 3.45628e+09 3.45654e+09 3.45756e+09 3.45808e+09 0 0
356 2 0 3.46563e+09 3.46589e+09 3.46691e+09 3.46771e+09 1 1
357 1 1 3.4706e+09 3.47086e+09 3.47187e+09 3.47195e+09 0 1
358 1 1 3.47456e+09 3.47481e+09 3.47582e+09 3.47653e+09 0 1
359 2 1 3.48197e+09 3.48222e+09 3.48324e+09 3.48339e+09 0 0
360 2 1 3.4949e+09 3.49515e+09 3.49617e+09 3.49624e+09 1 0
361 2 0 3.50639e+09 3.50665e+09 3.50767e+09 3.51233e+09 1 1
362 2 0 3.51589e+09 3.51615e+09 3.51717e+09 3.51728e+09 0 1
363 2 1 3.52135e+09 3.52159e+09 3.52261e+09 3.52265e+09 0 0
364 2 0 3.53242e+09 3.53267e+09 3.53369e+09 3.5339e+09 1 1
365 2 1 3.54445e+09 3.5447e+09 3.54572e+09 3.54573e+09 0 0
366 2 1 3.55637e+09 3.55662e+09 3.55764e+09 3.55774e+09 1 0
367 2 0 3.56802e+09 3.56826e+09 3.56928e+09 3.56946e+09 1 1
368 1 0 3.57775e+09 3.57801e+09 3.57903e+09 3.58203e+09 0 0
369 1 0 3.58946e+09 3.58971e+09 3.59073e+09 3.59096e+09 1 0
370 1 0 3.59983e+09 3.60009e+09 3.60111e+09 3.60126e+09 1 0
371 1 1 3.60877e+09 3.60902e+09 3.61004e+09 3.61052e+09 1 1
372 2 0 3.61527e+09 3.61554e+09 3.61656e+09 3.61673e+09 0 1
373 1 0 3.62257e+09 3.62282e+09 3.62384e+09 3.62405e+09 0 0
374 1 0 3.63493e+09 3.63518e+09 3.6362e+09 3.6366e+09 1 0
375 1 1 3.64566e+09 3.64592e+09 3.64693e+09 3.64697e+09 1 1
376 1 0 3.65359e+09 3.65384e+09 3.65486e+09 3.65492e+09 0 0
377 1 0 3.6636e+09 3.66386e+09 3.66488e+09 3.66579e+09 1 0
378 1 0 3.67489e+09 3.67514e+09 3.67616e+09 3.67641e+09 1 0
379 1 0 3.68533e+09 3.68558e+09 3.6866e+09 3.68743e+09 1 0
380 1 0 3.69465e+09 3.6949e+09 3.69592e+09 3.69657e+09 0 0
381 1 0 3.70546e+09 3.70571e+09 3.70672e+09 3.70806e+09 0 0
382 2 0 3.71633e+09 3.71659e+09 3.71761e+09 3.74815e+09 0 1
383 1 0 3.75447e+09 3.75472e+09 3.75574e+09 3.75819e+09 0 0
384 1 1 3.76632e+09 3.76657e+09 3.76759e+09 3.77255e+09 1 1
385 1 1 3.77551e+09 3.77577e+09 3.77679e+09 3.7774e+09 0 1
386 1 1 3.78379e+09 3.78404e+09 3.78506e+09 3.78527e+09 0 1
387 2 1 3.7929e+09 3.79315e+09 3.79417e+09 3.79421e+09 0 0
388 2 0 3.80218e+09 3.80243e+09 3.80345e+09 3.80436e+09 1 1
389 1 1 3.80729e+09 3.80754e+09 3.80856e+09 3.80858e+09 0 1
390 2 1 3.81114e+09 3.81139e+09 3.81241e+09 3.81272e+09 0 0
391 2 1 3.82001e+09 3.82026e+09 3.82128e+09 3.82461e+09 1 0
392 2 0 3.83189e+09 3.83215e+09 3.83317e+09 3.83378e+09 1 1
393 1 1 3.83631e+09 3.83657e+09 3.83759e+09 3.83769e+09 0 1
394 2 1 3.84039e+09 3.84064e+09 3.84166e+09 3.8417e+09 0 0
395 2 1 3.85057e+09 3.85082e+09 3.85184e+09 3.85196e+09 1 0
396 2 1 3.8622e+09 3.86245e+09 3.86347e+09 3.86654e+09 1 0
397 2 0 3.87384e+09 3.87409e+09 3.87511e+09 3.87755e+09 1 1
398 2 0 3.88366e+09 3.88391e+09 3.88493e+09 3.885e+09 0 1
399 2 1 3.88785e+09 3.88809e+09 3.88911e+09 3.88924e+09 0 0
400 2 0 3.89898e+09 3.89923e+09 3.90025e+09 3.90097e+09 1 1
401 2 1 3.90465e+09 3.90491e+09 3.90593e+09 3.9066e+09 0 0
402 2 0 3.91579e+09 3.91603e+09 3.91705e+09 3.91743e+09 1 1
403 1 1 3.92224e+09 3.92249e+09 3.92351e+09 3.92361e+09 0 1
404 2 1 3.92807e+09 3.92832e+09 3.92933e+09 3.92952e+09 0 0
405 2 0 3.93813e+09 3.93837e+09 3.93939e+09 3.9423e+09 1 1
406 1 1 3.94521e+09 3.94547e+09 3.94649e+09 3.94684e+09 0 1
407 2 0 3.95399e+09 3.95423e+09 3.95525e+09 3.9554e+09 0 1
408 2 1 3.95888e+09 3.95913e+09 3.96015e+09 3.96019e+09 0 0
409 2 0 3.97336e+09 3.97361e+09 3.97463e+09 3.97465e+09 1 1
410 2 1 3.97741e+09 3.97766e+09 3.97868e+09 3.97871e+09 0 0
411 2 0 3.98662e+09 3.98687e+09 3.98789e+09 3.98799e+09 1 1
412 1 1 3.99642e+09 3.99667e+09 3.99769e+09 3.99805e+09 0 1
413 1 1 4.00082e+09 4.00108e+09 4.0021e+09 4.00233e+09 0 1
414 1 1 4.00979e+09 4.01004e+09 4.01106e+09 4.01115e+09 0 1
415 1 1 4.01439e+09 4.01463e+09 4.01565e+09 4.01581e+09 0 1
416 2 0 4.0237e+09 4.02395e+09 4.02497e+09 4.02504e+09 0 1
417 1 1 4.02822e+09 4.02848e+09 4.02949e+09 4.02975e+09 0 1
418 1 1 4.03247e+09 4.03272e+09 4.03374e+09 4.03375e+09 0 1
419 1 1 4.04647e+09 4.04673e+09 4.04775e+09 4.04814e+09 0 1
420 2 1 4.05078e+09 4.05103e+09 4.05205e+09 4.05251e+09 0 0
421 2 0 4.05978e+09 4.06002e+09 4.06104e+09 4.06366e+09 1 1
422 2 1 4.0705e+09 4.07076e+09 4.07178e+09 4.07189e+09 0 0
423 2 0 4.08133e+09 4.08159e+09 4.08261e+09 4.08267e+09 1 1
424 1 1 4.08547e+09 4.08571e+09 4.08673e+09 4.08696e+09 0 1
425 2 1 4.09788e+09 4.09813e+09 4.09915e+09 4.0993e+09 0 0
426 2 0 4.10913e+09 4.10937e+09 4.11039e+09 4.1107e+09 1 1
427 2 1 4.11332e+09 4.11358e+09 4.1146e+09 4.11535e+09 0 0
428 2 1 4.12429e+09 4.12453e+09 4.12555e+09 4.12578e+09 1 0
429 2 1 4.135e+09 4.13525e+09 4.13627e+09 4.13635e+09 1 0
430 2 1 4.14454e+09 4.14479e+09 4.14581e+09 4.14627e+09 1 0
431 1 1 4.15339e+09 4.15364e+09 4.15466e+09 4.15481e+09 0 1
432 2 1 4.15764e+09 4.15789e+09 4.15891e+09 4.15904e+09 0 0
433 2 1 4.16796e+09 4.16822e+09 4.16924e+09 4.17274e+09 1 0
434 2 0 4.18069e+09 4.18095e+09 4.18197e+09 4.18255e+09 1 1
435 1 1 4.18726e+09 4.18751e+09 4.18853e+09 4.1886e+09 0 1
436 1 1 4.19141e+09 4.19165e+09 4.19267e+09 4.19271e+09 0 1
437 2 1 4.19587e+09 4.19612e+09 4.19714e+09 4.19717e+09 0 0
438 2 1 4.207e+09 4.20726e+09 4.20828e+09 4.21282e+09 1 0
439 2 1 4.22016e+09 4.22041e+09 4.22143e+09 4.2316e+09 1 0
440 2 0 4.23867e+09 4.23893e+09 4.23995e+09 5.16988e+06 1 1
441 1 0 1.06916e+07 1.09358e+07 1.19549e+07 2.08003e+07 0 0
442 1 1 3.07548e+07 3.10077e+07 3.20268e+07 1.15433e+08 1 1
443 2 1 1.20067e+08 1.20309e+08 1.21328e+08 1.21869e+08 0 0
444 2 0 1.30164e+08 1.30424e+08 1.31443e+08 1.64905e+08 1 1
445 2 0 1.67452e+08 1.67707e+08 1.68727e+08 1.84761e+08 0 1
446 1 0 1.90618e+08 1.90875e+08 1.91894e+08 1.92028e+08 0 0
447 1 1 1.99391e+08 1.99649e+08 2.00668e+08 2.40597e+08 1 1
448 2 0 2.47027e+08 2.47287e+08 2.48306e+08 2.78986e+08 0 1
449 1 0 2.82373e+08 2.8263e+08 2.83649e+08 2.92942e+08 0 0
450 1 0 2.99977e+08 3.00221e+08 3.0124e+08 3.15674e+08 1 0
451 1 1 3.2405e+08 3.24298e+08 3.25317e+08 3.48502e+08 1 1
452 2 0 3.51306e+08 3.51564e+08 3.52583e+08 4.27314e+08 0 1
453 1 0 4.30298e+08 4.30552e+08 4.31571e+08 4.38705e+08 0 0
454 1 0 4.48012e+08 4.48269e+08 4.49288e+08 4.65689e+08 1 0
455 1 0 4.72773e+08 4.73026e+08 4.74045e+08 5.87834e+08 1 0
456 1 0 5.94928e+08 5.9517e+08 5.96189e+08 7.12323e+08 1 0
457 1 0 7.24146e+08 7.2439e+08 7.25409e+08 7.32777e+08 0 0
458 1 0 7.40111e+08 7.40376e+08 7.41395e+08 7.41708e+08 0 0
459 1 0 7.49191e+08 7.49443e+08 7.50462e+08 7.51558e+08 0 0
460 2 1 7.59001e+08 7.59251e+08 7.6027e+08 7.67462e+08 0 0
461 2 0 7.74857e+08 7.75119e+08 7.76138e+08 8.11018e+08 0 1
462 2 0 8.16726e+08 8.1697e+08 8.1799e+08 8.8639e+08 0 1
463 1 0 8.89686e+08 8.8993e+08 8.90949e+08 8.93516e+08 0 0
464 1 1 9.00742e+08 9.00997e+08 9.02016e+08 9.05361e+08 1 1
465 2 1 9.0819e+08 9.08443e+08 9.09463e+08 9.99575e+08 0 0
466 2 0 1.00674e+09 1.00699e+09 1.00801e+09 1.01366e+09 1 1
467 2 1 1.01636e+09 1.01662e+09 1.01764e+09 1.03743e+09 0 0
468 2 1 1.04732e+09 1.04757e+09 1.04859e+09 1.09697e+09 1 0
469 2 1 1.10719e+09 1.10744e+09 1.10846e+09 1.11022e+09 1 0
470 2 1 1.11738e+09 1.11763e+09 1.11865e+09 1.28571e+09 1 0
471 2 1 1.29294e+09 1.2932e+09 1.29422e+09 1.30306e+09 0 0
472 2 0 1.31017e+09 1.31043e+09 1.31145e+09 1.32093e+09 0 1
473 2 0 1.32381e+09 1.32407e+09 1.32509e+09 1.33597e+09 0 1
474 1 0 1.33885e+09 1.3391e+09 1.34012e+09 1.34164e+09 0 0
475 1 0 1.349e+09 1.34925e+09 1.35026e+09 1.35424e+09 1 0
476 1 0 1.36175e+09 1.36201e+09 1.36303e+09 1.39601e+09 1 0
477 1 0 1.40399e+09 1.40424e+09 1.40526e+09 1.40778e+09 1 0
478 1 0 1.41523e+09 1.41549e+09 1.41651e+09 1.41849e+09 0 0
479 2 0 1.4258e+09 1.42606e+09 1.42708e+09 1.44003e+09 0 1
480 2 0 1.44399e+09 1.44425e+09 1.44526e+09 1.46284e+09 0 1
481 1 1 1.4701e+09 1.47035e+09 1.47137e+09 1.49742e+09 0 1
482 1 1 1.50388e+09 1.50414e+09 1.50516e+09 1.52593e+09 0 1
483 2 0 1.52879e+09 1.52905e+09 1.53007e+09 1.59721e+09 0 1
484 1 1 1.60136e+09 1.60161e+09 1.60263e+09 1.63835e+09 0 1
485 2 0 1.64258e+09 1.64283e+09 1.64385e+09 1.65379e+09 0 1
486 1 0 1.65652e+09 1.65678e+09 1.65779e+09 1.66263e+09 0 0
487 1 0 1.67124e+09 1.67151e+09 1.67253e+09 1.69386e+09 1 0
488 1 0 1.70271e+09 1.70296e+09 1.70398e+09 1.73686e+09 1 0
489 1 0 1.7442e+09 1.74445e+09 1.74547e+09 1.75788e+09 1 0
490 2 0 1.76609e+09 1.76635e+09 1.76737e+09 1.79774e+09 0 1
491 1 0 1.80138e+09 1.80163e+09 1.80265e+09 1.8174e+09 0 0
492 1 1 1.82452e+09 1.82478e+09 1.8258e+09 1.82581e+09 1 1
493 2 1 1.83107e+09 1.83132e+09 1.83233e+09 1.91066e+09 0 0
