trial trialType response stillTime stimOnset stimOffset respTime correctionTrial correct
001 2 0 7.67182e+06 7.96795e+06 8.9871e+06 9.00664e+06 0 1
002 1 0 5.27391e+07 5.30177e+07 5.40368e+07 5.50465e+07 0 0
003 1 1 6.3701e+07 6.39799e+07 6.4999e+07 6.50086e+07 1 1
004 2 0 6.77591e+07 6.80106e+07 6.90297e+07 7.13503e+07 0 1
005 1 1 8.59689e+07 8.62275e+07 8.72467e+07 8.73315e+07 0 1
006 1 1 1.04956e+08 1.05202e+08 1.06221e+08 1.06235e+08 0 1
007 2 1 1.10652e+08 1.10899e+08 1.11919e+08 1.12177e+08 0 0
008 2 1 1.22711e+08 1.22969e+08 1.23988e+08 1.24483e+08 1 0
009 2 0 1.34855e+08 1.35113e+08 1.36132e+08 1.38126e+08 1 1
010 2 0 1.42001e+08 1.42261e+08 1.4328e+08 1.44928e+08 0 1
011 2 1 1.64049e+08 1.643e+08 1.6532e+08 1.65343e+08 0 0
012 2 1 1.72535e+08 1.72787e+08 1.73806e+08 1.73815e+08 1 0
013 2 1 1.87397e+08 1.8764e+08 1.88659e+08 1.88684e+08 1 0
014 2 1 1.98738e+08 1.98992e+08 2.00011e+08 2.00084e+08 1 0
015 2 1 2.08115e+08 2.08378e+08 2.09398e+08 2.09412e+08 0 0
016 2 0 2.16496e+08 2.16752e+08 2.17772e+08 2.17783e+08 0 1
017 1 1 2.24458e+08 2.24715e+08 2.25734e+08 2.2663e+08 0 1
018 2 1 2.32851e+08 2.33103e+08 2.34122e+08 2.34156e+08 0 0
019 2 0 2.41538e+08 2.418e+08 2.42819e+08 2.43865e+08 1 1
020 2 0 2.49671e+08 2.49916e+08 2.50935e+08 2.51369e+08 0 1
021 1 1 2.56801e+08 2.57055e+08 2.58074e+08 2.58186e+08 0 1
022 1 1 2.60907e+08 2.61165e+08 2.62184e+08 2.63733e+08 0 1
023 2 0 2.67527e+08 2.67782e+08 2.68801e+08 2.69154e+08 0 1
024 1 1 2.74978e+08 2.75225e+08 2.76244e+08 2.7646e+08 0 1
025 1 1 2.88304e+08 2.8856e+08 2.89579e+08 2.89776e+08 0 1
026 2 0 3.00751e+08 3.01017e+08 3.02036e+08 3.03382e+08 0 1
027 2 1 3.0924e+08 3.095e+08 3.10519e+08 3.12105e+08 0 0
028 2 1 3.19925e+08 3.20181e+08 3.212e+08 3.21287e+08 1 0
029 2 1 3.3244e+08 3.32698e+08 3.33717e+08 3.33739e+08 1 0
030 2 0 3.48627e+08 3.48879e+08 3.49898e+08 3.51112e+08 1 1
031 2 0 3.56765e+08 3.57019e+08 3.58038e+08 3.60033e+08 0 1
032 2 1 3.73625e+08 3.73886e+08 3.74905e+08 3.7542e+08 0 0
033 2 1 3.84441e+08 3.847e+08 3.85719e+08 3.85934e+08 1 0
034 2 1 3.94419e+08 3.94689e+08 3.95708e+08 3.96969e+08 1 0
035 2 1 4.16022e+08 4.16267e+08 4.17286e+08 4.17671e+08 1 0
036 2 1 4.24893e+08 4.25143e+08 4.26162e+08 4.26203e+08 0 0
037 1 0 4.35126e+08 4.35389e+08 4.36408e+08 4.38172e+08 0 0
038 2 1 4.4935e+08 4.49594e+08 4.50613e+08 4.52053e+08 0 0
039 1 0 4.60363e+08 4.60624e+08 4.61643e+08 4.62727e+08 0 0
040 1 0 4.70175e+08 4.70436e+08 4.71455e+08 4.73334e+08 0 0
041 1 1 4.81318e+08 4.81566e+08 4.82585e+08 4.87003e+08 0 1
042 1 1 4.94239e+08 4.94492e+08 4.95511e+08 4.99174e+08 0 1
043 1 1 5.02241e+08 5.02492e+08 5.03511e+08 5.03535e+08 0 1
044 2 1 5.08178e+08 5.08431e+08 5.0945e+08 5.09817e+08 0 0
045 2 0 5.19083e+08 5.19346e+08 5.20365e+08 5.20383e+08 1 1
046 2 1 5.23117e+08 5.2337e+08 5.24389e+08 5.24457e+08 0 0
047 2 1 5.34156e+08 5.34404e+08 5.35423e+08 5.36952e+08 1 0
048 2 1 5.4433e+08 5.44574e+08 5.45593e+08 5.46143e+08 1 0
049 2 1 5.55698e+08 5.55943e+08 5.56962e+08 5.57076e+08 1 0
050 2 0 5.67469e+08 5.67733e+08 5.68752e+08 5.69271e+08 0 1
051 2 1 5.75007e+08 5.75253e+08 5.76272e+08 5.76296e+08 0 0
052 2 1 5.83797e+08 5.84064e+08 5.85083e+08 5.85124e+08 1 0
053 2 0 5.9861e+08 5.98866e+08 5.99885e+08 6.00475e+08 1 1
054 1 0 6.03909e+08 6.04172e+08 6.05191e+08 6.05383e+08 0 0
055 1 0 6.12587e+08 6.12846e+08 6.13866e+08 6.14076e+08 1 0
056 1 0 6.23787e+08 6.24043e+08 6.25062e+08 6.27578e+08 1 0
057 1 0 6.37274e+08 6.37527e+08 6.38546e+08 6.40036e+08 1 0
058 2 0 6.48472e+08 6.48723e+08 6.49742e+08 6.50071e+08 0 1
059 2 1 6.53319e+08 6.53581e+08 6.546e+08 6.54926e+08 0 0
060 2 1 6.62358e+08 6.62607e+08 6.63626e+08 6.65772e+08 1 0
061 2 0 6.75222e+08 6.75481e+08 6.765e+08 6.76601e+08 1 1
062 2 1 6.80776e+08 6.81023e+08 6.82043e+08 6.82504e+08 0 0
063 2 1 6.90729e+08 6.90987e+08 6.92006e+08 6.94615e+08 1 0
064 2 0 7.01672e+08 7.01918e+08 7.02937e+08 7.03819e+08 1 1
065 1 1 7.09526e+08 7.09776e+08 7.10795e+08 7.10877e+08 0 1
066 1 1 7.13699e+08 7.13958e+08 7.14977e+08 7.15047e+08 0 1
067 1 1 7.18024e+08 7.18274e+08 7.19293e+08 7.20355e+08 0 1
068 1 1 7.23345e+08 7.23594e+08 7.24613e+08 7.26138e+08 0 1
069 2 1 7.28831e+08 7.29076e+08 7.30096e+08 7.31191e+08 0 0
070 2 1 7.44261e+08 7.44505e+08 7.45524e+08 7.50601e+08 1 0
071 2 1 7.57942e+08 7.58187e+08 7.59207e+08 7.63044e+08 1 0
072 2 1 7.70563e+08 7.7081e+08 7.71829e+08 7.75581e+08 1 0
073 2 1 7.85238e+08 7.85483e+08 7.86502e+08 7.88897e+08 0 0
074 2 1 7.95999e+08 7.96255e+08 7.97274e+08 7.98192e+08 0 0
075 1 1 8.07486e+08 8.07731e+08 8.0875e+08 8.11157e+08 0 1
076 2 0 8.14068e+08 8.14322e+08 8.15341e+08 8.21535e+08 0 1
077 2 1 8.24314e+08 8.24567e+08 8.25586e+08 8.26522e+08 0 0
078 2 0 8.34777e+08 8.35031e+08 8.3605e+08 8.36113e+08 1 1
079 2 1 8.39028e+08 8.39287e+08 8.40306e+08 8.41255e+08 0 0
080 2 1 8.48465e+08 8.4872e+08 8.49739e+08 8.50035e+08 1 0
081 2 0 8.57191e+08 8.57436e+08 8.58455e+08 8.58759e+08 1 1
082 2 1 8.61339e+08 8.616e+08 8.62619e+08 8.63098e+08 0 0
083 2 0 8.75827e+08 8.76086e+08 8.77105e+08 8.77634e+08 1 1
084 1 0 8.80783e+08 8.81041e+08 8.8206e+08 8.82154e+08 0 0
085 1 0 8.90195e+08 8.90446e+08 8.91466e+08 8.91696e+08 1 0
086 1 1 8.98918e+08 8.99181e+08 9.002e+08 9.00337e+08 1 1
087 1 0 9.03023e+08 9.03279e+08 9.04298e+08 9.05876e+08 0 0
088 1 0 9.15101e+08 9.15363e+08 9.16382e+08 9.18036e+08 1 0
089 1 0 9.31995e+08 9.32256e+08 9.33275e+08 9.35205e+08 1 0
090 1 1 9.55902e+08 9.5615e+08 9.57169e+08 9.57346e+08 1 1
091 1 1 9.6001e+08 9.60269e+08 9.61288e+08 9.62852e+08 0 1
092 2 1 9.67895e+08 9.68139e+08 9.69158e+08 9.69351e+08 0 0
093 2 0 9.78046e+08 9.78303e+08 9.79322e+08 9.7967e+08 1 1
094 1 1 9.92331e+08 9.92579e+08 9.93598e+08 9.93704e+08 0 1
095 2 0 9.96437e+08 9.96687e+08 9.97706e+08 9.99219e+08 0 1
096 1 1 1.00175e+09 1.002e+09 1.00302e+09 1.00372e+09 0 1
097 1 1 1.02506e+09 1.02531e+09 1.02633e+09 1.02639e+09 0 1
098 1 1 1.02921e+09 1.02947e+09 1.03049e+09 1.03053e+09 0 1
099 2 0 1.0593e+09 1.05955e+09 1.06057e+09 1.06334e+09 0 1
100 2 1 1.06791e+09 1.06817e+09 1.06919e+09 1.07059e+09 0 0
101 2 0 1.07763e+09 1.07789e+09 1.07891e+09 1.08199e+09 1 1
102 2 1 1.08487e+09 1.08513e+09 1.08614e+09 1.08619e+09 0 0
103 2 0 1.0936e+09 1.09384e+09 1.09486e+09 1.09629e+09 1 1
104 2 0 1.10198e+09 1.10223e+09 1.10325e+09 1.10492e+09 0 1
105 2 0 1.10784e+09 1.1081e+09 1.10912e+09 1.11009e+09 0 1
106 2 1 1.1173e+09 1.11755e+09 1.11857e+09 1.12017e+09 0 0
107 2 0 1.12738e+09 1.12763e+09 1.12865e+09 1.13123e+09 1 1
108 1 0 1.13804e+09 1.1383e+09 1.13932e+09 1.1396e+09 0 0
109 1 1 1.14693e+09 1.14719e+09 1.14821e+09 1.15511e+09 1 1
110 1 1 1.1595e+09 1.15977e+09 1.16078e+09 1.16288e+09 0 1
111 1 1 1.16549e+09 1.16574e+09 1.16676e+09 1.16714e+09 0 1
112 2 1 1.16985e+09 1.1701e+09 1.17112e+09 1.17115e+09 0 0
113 2 0 1.17997e+09 1.18022e+09 1.18124e+09 1.18218e+09 1 1
114 1 1 1.18484e+09 1.18509e+09 1.18611e+09 1.1862e+09 0 1
115 1 1 1.18884e+09 1.18908e+09 1.1901e+09 1.19011e+09 0 1
116 2 1 1.19289e+09 1.19314e+09 1.19416e+09 1.19465e+09 0 0
117 2 1 1.2063e+09 1.20655e+09 1.20757e+09 1.20993e+09 1 0
118 2 1 1.21758e+09 1.21784e+09 1.21885e+09 1.21916e+09 1 0
119 2 1 1.22917e+09 1.22944e+09 1.23046e+09 1.23092e+09 1 0
120 2 0 1.24195e+09 1.24221e+09 1.24322e+09 1.24342e+09 0 1
121 2 1 1.24742e+09 1.24767e+09 1.24869e+09 1.24989e+09 0 0
122 2 1 1.25699e+09 1.25723e+09 1.25825e+09 1.25898e+09 1 0
123 2 1 1.26889e+09 1.26914e+09 1.27016e+09 1.27232e+09 1 0
124 2 1 1.27936e+09 1.27962e+09 1.28064e+09 1.28077e+09 1 0
125 2 0 1.28928e+09 1.28953e+09 1.29055e+09 1.2923e+09 0 1
126 1 1 1.29532e+09 1.29558e+09 1.2966e+09 1.29702e+09 0 1
127 2 1 1.30611e+09 1.30638e+09 1.3074e+09 1.30754e+09 0 0
128 2 0 1.31642e+09 1.31666e+09 1.31768e+09 1.31912e+09 1 1
129 1 1 1.32233e+09 1.3226e+09 1.32362e+09 1.3237e+09 0 1
130 1 1 1.32781e+09 1.32807e+09 1.32909e+09 1.32934e+09 0 1
131 2 1 1.33572e+09 1.33597e+09 1.33699e+09 1.33722e+09 0 0
132 2 1 1.34752e+09 1.34778e+09 1.3488e+09 1.34917e+09 1 0
133 2 0 1.35628e+09 1.35655e+09 1.35757e+09 1.35939e+09 1 1
134 2 1 1.36642e+09 1.36669e+09 1.3677e+09 1.36918e+09 0 0
135 2 1 1.37735e+09 1.3776e+09 1.37862e+09 1.37939e+09 1 0
136 2 1 1.38673e+09 1.38699e+09 1.38801e+09 1.38846e+09 1 0
137 2 1 1.39568e+09 1.39593e+09 1.39695e+09 1.39913e+09 1 0
138 2 1 1.40813e+09 1.40839e+09 1.40941e+09 1.41092e+09 0 0
139 1 1 1.4201e+09 1.42037e+09 1.42138e+09 1.42182e+09 0 1
140 1 1 1.4247e+09 1.42496e+09 1.42598e+09 1.42963e+09 0 1
141 1 1 1.4322e+09 1.43245e+09 1.43347e+09 1.43369e+09 0 1
142 1 1 1.43956e+09 1.43982e+09 1.44083e+09 1.44218e+09 0 1
143 2 1 1.4449e+09 1.44516e+09 1.44618e+09 1.44652e+09 0 0
144 2 0 1.45556e+09 1.4558e+09 1.45682e+09 1.45791e+09 1 1
145 2 1 1.46097e+09 1.46123e+09 1.46225e+09 1.46357e+09 0 0
146 2 1 1.47331e+09 1.47356e+09 1.47457e+09 1.48302e+09 1 0
147 2 0 1.49067e+09 1.49092e+09 1.49194e+09 1.4939e+09 1 1
148 1 1 1.49657e+09 1.49682e+09 1.49784e+09 1.49785e+09 0 1
149 1 1 1.50071e+09 1.50095e+09 1.50197e+09 1.50198e+09 0 1
150 1 1 1.50644e+09 1.50669e+09 1.50771e+09 1.50794e+09 0 1
151 1 1 1.51092e+09 1.51118e+09 1.5122e+09 1.51228e+09 0 1
152 1 1 1.51487e+09 1.51512e+09 1.51614e+09 1.5162e+09 0 1
153 2 1 1.51877e+09 1.51903e+09 1.52005e+09 1.52012e+09 0 0
154 2 1 1.52746e+09 1.52771e+09 1.52873e+09 1.53026e+09 1 0
155 2 1 1.53775e+09 1.53801e+09 1.53903e+09 1.54003e+09 1 0
156 2 0 1.54729e+09 1.54754e+09 1.54856e+09 1.54928e+09 1 1
157 1 1 1.55205e+09 1.5523e+09 1.55332e+09 1.55519e+09 0 1
158 1 1 1.55792e+09 1.55819e+09 1.55921e+09 1.55926e+09 0 1
159 1 1 1.56492e+09 1.56518e+09 1.5662e+09 1.56627e+09 0 1
160 1 1 1.56888e+09 1.56914e+09 1.57015e+09 1.57049e+09 0 1
161 1 1 1.57722e+09 1.57748e+09 1.5785e+09 1.57853e+09 0 1
162 1 1 1.58135e+09 1.58161e+09 1.58262e+09 1.58282e+09 0 1
163 2 0 1.59027e+09 1.59052e+09 1.59154e+09 1.59185e+09 0 1
164 2 1 1.59461e+09 1.59487e+09 1.59589e+09 1.59591e+09 0 0
165 2 1 1.60568e+09 1.60594e+09 1.60695e+09 1.60718e+09 1 0
166 2 0 1.61604e+09 1.61628e+09 1.6173e+09 1.6194e+09 1 1
167 2 1 1.62213e+09 1.62238e+09 1.6234e+09 1.62348e+09 0 0
168 2 0 1.6309e+09 1.63118e+09 1.6322e+09 1.63514e+09 1 1
169 2 1 1.64256e+09 1.64281e+09 1.64383e+09 1.64509e+09 0 0
170 2 1 1.65344e+09 1.65369e+09 1.65471e+09 1.65583e+09 1 0
171 2 1 1.66349e+09 1.66374e+09 1.66476e+09 1.66532e+09 1 0
172 2 1 1.67275e+09 1.67299e+09 1.67401e+09 1.67426e+09 1 0
173 1 0 1.68524e+09 1.68549e+09 1.68651e+09 1.68824e+09 0 0
174 1 0 1.69556e+09 1.69582e+09 1.69684e+09 1.69721e+09 0 0
175 2 0 1.70664e+09 1.7069e+09 1.70791e+09 1.70905e+09 0 1
176 1 1 1.71163e+09 1.71188e+09 1.7129e+09 1.71292e+09 0 1
177 2 1 1.71548e+09 1.71573e+09 1.71675e+09 1.71702e+09 0 0
178 2 1 1.72664e+09 1.7269e+09 1.72792e+09 1.728e+09 1 0
179 2 0 1.73927e+09 1.73952e+09 1.74054e+09 1.74142e+09 1 1
180 2 1 1.74526e+09 1.74552e+09 1.74654e+09 1.74679e+09 0 0
181 2 0 1.75794e+09 1.75819e+09 1.75921e+09 1.7619e+09 1 1
182 1 1 1.7646e+09 1.76486e+09 1.76588e+09 1.7664e+09 0 1
183 1 1 1.77338e+09 1.77362e+09 1.77464e+09 1.77465e+09 0 1
184 1 1 1.77761e+09 1.77787e+09 1.77889e+09 1.77895e+09 0 1
185 2 1 1.78216e+09 1.78242e+09 1.78344e+09 1.78352e+09 0 0
186 2 1 1.79166e+09 1.79193e+09 1.79295e+09 1.79299e+09 1 0
187 2 1 1.80324e+09 1.8035e+09 1.80452e+09 1.80454e+09 1 0
188 2 0 1.81267e+09 1.81292e+09 1.81394e+09 1.81397e+09 1 1
189 2 1 1.81662e+09 1.81687e+09 1.81789e+09 1.81791e+09 0 0
190 2 1 1.82877e+09 1.82902e+09 1.83004e+09 1.8301e+09 1 0
191 2 0 1.83909e+09 1.83935e+09 1.84037e+09 1.84054e+09 1 1
192 1 1 1.84352e+09 1.84377e+09 1.84479e+09 1.8448e+09 0 1
193 2 1 1.84753e+09 1.84779e+09 1.84881e+09 1.84896e+09 0 0
194 2 1 1.85924e+09 1.8595e+09 1.86052e+09 1.86073e+09 1 0
195 2 1 1.86941e+09 1.86967e+09 1.87069e+09 1.87243e+09 1 0
196 2 0 1.8806e+09 1.88086e+09 1.88188e+09 1.88189e+09 1 1
197 2 1 1.88736e+09 1.88762e+09 1.88864e+09 1.89001e+09 0 0
198 2 1 1.89722e+09 1.89747e+09 1.89849e+09 1.89853e+09 1 0
199 2 0 1.90768e+09 1.90793e+09 1.90895e+09 1.91165e+09 1 1
200 2 1 1.91714e+09 1.9174e+09 1.91841e+09 1.91989e+09 0 0
201 2 1 1.92957e+09 1.92982e+09 1.93084e+09 1.93111e+09 1 0
202 2 1 1.93844e+09 1.9387e+09 1.93972e+09 1.94242e+09 1 0
203 2 0 1.94978e+09 1.95003e+09 1.95105e+09 1.95123e+09 1 1
204 2 1 1.9575e+09 1.95775e+09 1.95877e+09 1.95931e+09 0 0
205 2 0 1.96803e+09 1.96828e+09 1.9693e+09 1.9694e+09 1 1
206 1 1 1.97775e+09 1.97801e+09 1.97903e+09 1.97912e+09 0 1
207 1 1 1.99063e+09 1.99088e+09 1.9919e+09 1.99192e+09 0 1
208 1 1 1.99558e+09 1.99584e+09 1.99686e+09 1.99731e+09 0 1
209 2 1 1.99998e+09 2.00025e+09 2.00126e+09 2.00145e+09 0 0
210 2 1 2.01346e+09 2.01372e+09 2.01473e+09 2.01747e+09 1 0
211 2 0 2.02537e+09 2.02562e+09 2.02664e+09 2.02675e+09 1 1
212 2 0 2.03404e+09 2.0343e+09 2.03532e+09 2.03533e+09 0 1
213 1 1 2.03813e+09 2.03839e+09 2.03941e+09 2.04038e+09 0 1
214 2 0 2.04793e+09 2.04818e+09 2.0492e+09 2.05042e+09 0 1
215 1 1 2.05707e+09 2.05732e+09 2.05834e+09 2.05836e+09 0 1
216 2 1 2.06387e+09 2.06413e+09 2.06515e+09 2.06567e+09 0 0
217 2 1 2.07781e+09 2.07807e+09 2.07909e+09 2.08109e+09 1 0
218 2 0 2.08988e+09 2.09013e+09 2.09115e+09 2.09118e+09 1 1
219 1 1 2.10629e+09 2.10655e+09 2.10757e+09 2.10758e+09 0 1
220 2 1 2.11753e+09 2.11778e+09 2.1188e+09 2.11881e+09 0 0
221 2 1 2.12675e+09 2.12702e+09 2.12804e+09 2.12849e+09 1 0
222 2 1 2.13881e+09 2.13906e+09 2.14008e+09 2.14197e+09 1 0
223 2 1 2.15163e+09 2.15189e+09 2.15291e+09 2.15309e+09 1 0
224 1 0 2.16428e+09 2.16454e+09 2.16556e+09 2.16761e+09 0 0
225 2 1 2.17509e+09 2.17534e+09 2.17636e+09 2.17637e+09 0 0
226 1 1 2.18785e+09 2.18812e+09 2.18914e+09 2.1892e+09 0 1
227 2 1 2.19788e+09 2.19813e+09 2.19915e+09 2.19943e+09 0 0
228 2 1 2.20759e+09 2.20784e+09 2.20886e+09 2.20903e+09 1 0
229 2 0 2.21612e+09 2.21637e+09 2.21739e+09 2.21885e+09 1 1
230 1 1 2.2249e+09 2.22516e+09 2.22618e+09 2.22622e+09 0 1
231 1 1 2.23705e+09 2.23731e+09 2.23833e+09 2.23845e+09 0 1
232 2 1 2.24214e+09 2.24239e+09 2.24341e+09 2.24424e+09 0 0
233 2 1 2.25136e+09 2.25162e+09 2.25264e+09 2.25358e+09 1 0
234 2 1 2.26111e+09 2.26137e+09 2.26239e+09 2.26294e+09 1 0
235 2 0 2.27121e+09 2.27147e+09 2.27249e+09 2.27378e+09 1 1
236 1 1 2.28587e+09 2.28614e+09 2.28716e+09 2.2874e+09 0 1
237 2 1 2.29681e+09 2.29707e+09 2.29809e+09 2.29811e+09 0 0
238 2 0 2.30624e+09 2.30649e+09 2.30751e+09 2.30894e+09 1 1
239 2 1 2.31162e+09 2.31187e+09 2.31289e+09 2.31346e+09 0 0
240 2 1 2.32098e+09 2.32123e+09 2.32225e+09 2.32233e+09 1 0
241 2 0 2.3329e+09 2.33315e+09 2.33417e+09 2.33599e+09 1 1
242 2 0 2.3589e+09 2.35916e+09 2.36018e+09 2.36204e+09 0 1
243 1 1 2.37288e+09 2.37314e+09 2.37416e+09 2.37418e+09 0 1
244 1 1 2.38206e+09 2.38232e+09 2.38333e+09 2.38344e+09 0 1
245 1 1 2.39591e+09 2.39617e+09 2.39719e+09 2.3972e+09 0 1
246 1 1 2.39972e+09 2.39998e+09 2.401e+09 2.40163e+09 0 1
247 1 1 2.40431e+09 2.40456e+09 2.40558e+09 2.40559e+09 0 1
248 2 1 2.40958e+09 2.40984e+09 2.41085e+09 2.41089e+09 0 0
249 2 1 2.41816e+09 2.41841e+09 2.41943e+09 2.41945e+09 1 0
250 2 0 2.4306e+09 2.43086e+09 2.43188e+09 2.43193e+09 1 1
251 2 1 2.43922e+09 2.43948e+09 2.4405e+09 2.44057e+09 0 0
252 2 1 2.44912e+09 2.44937e+09 2.45038e+09 2.45041e+09 1 0
253 2 1 2.45776e+09 2.45802e+09 2.45903e+09 2.45923e+09 1 0
254 2 0 2.47977e+09 2.48003e+09 2.48105e+09 2.48301e+09 1 1
255 2 1 2.49222e+09 2.49248e+09 2.4935e+09 2.49434e+09 0 0
256 2 1 2.51316e+09 2.5134e+09 2.51442e+09 2.51443e+09 1 0
257 2 0 2.52302e+09 2.52328e+09 2.5243e+09 2.52436e+09 1 1
258 1 1 2.5335e+09 2.53375e+09 2.53477e+09 2.53486e+09 0 1
259 1 1 2.54164e+09 2.54189e+09 2.54291e+09 2.54307e+09 0 1
260 1 1 2.549e+09 2.54925e+09 2.55027e+09 2.55053e+09 0 1
261 1 1 2.55345e+09 2.55371e+09 2.55473e+09 2.55501e+09 0 1
262 1 1 2.56181e+09 2.56206e+09 2.56308e+09 2.56312e+09 0 1
263 1 1 2.56794e+09 2.56819e+09 2.56921e+09 2.56938e+09 0 1
264 1 1 2.57771e+09 2.57796e+09 2.57897e+09 2.57899e+09 0 1
265 2 1 2.58618e+09 2.58643e+09 2.58745e+09 2.58825e+09 0 0
266 2 0 2.59582e+09 2.59608e+09 2.5971e+09 2.5973e+09 1 1
267 2 0 2.60481e+09 2.60507e+09 2.60609e+09 2.60672e+09 0 1
268 2 1 2.61903e+09 2.6193e+09 2.62031e+09 2.62035e+09 0 0
269 2 0 2.63054e+09 2.6308e+09 2.63182e+09 2.63393e+09 1 1
270 1 1 2.6409e+09 2.64116e+09 2.64218e+09 2.6423e+09 0 1
271 2 1 2.64512e+09 2.64538e+09 2.6464e+09 2.64658e+09 0 0
272 2 0 2.65774e+09 2.658e+09 2.65902e+09 2.66077e+09 1 1
273 2 1 2.66501e+09 2.66527e+09 2.66628e+09 2.66635e+09 0 0
274 2 1 2.6743e+09 2.67455e+09 2.67557e+09 2.67581e+09 1 0
275 2 0 2.68391e+09 2.68416e+09 2.68518e+09 2.68787e+09 1 1
276 1 1 2.69178e+09 2.69205e+09 2.69307e+09 2.69309e+09 0 1
277 1 1 2.69947e+09 2.69972e+09 2.70074e+09 2.70083e+09 0 1
278 1 1 2.70354e+09 2.70381e+09 2.70483e+09 2.7049e+09 0 1
279 1 1 2.71519e+09 2.71544e+09 2.71646e+09 2.71679e+09 0 1
280 1 1 2.72352e+09 2.72378e+09 2.72479e+09 2.72485e+09 0 1
281 2 1 2.73042e+09 2.73068e+09 2.7317e+09 2.73173e+09 0 0
282 2 1 2.73991e+09 2.74017e+09 2.74119e+09 2.74415e+09 1 0
283 2 1 2.7522e+09 2.75245e+09 2.75347e+09 2.75385e+09 1 0
284 2 1 2.7632e+09 2.76346e+09 2.76448e+09 2.76449e+09 1 0
285 2 0 2.7742e+09 2.77446e+09 2.77548e+09 2.77552e+09 0 1
286 1 0 2.78115e+09 2.78141e+09 2.78243e+09 2.78386e+09 0 0
287 1 1 2.79115e+09 2.79139e+09 2.79241e+09 2.79243e+09 1 1
288 2 1 2.79563e+09 2.79588e+09 2.7969e+09 2.79695e+09 0 0
289 2 1 2.80438e+09 2.80463e+09 2.80565e+09 2.8059e+09 1 0
290 2 1 2.81514e+09 2.81541e+09 2.81643e+09 2.81672e+09 1 0
291 2 0 2.83079e+09 2.83106e+09 2.83208e+09 2.83493e+09 1 1
292 2 0 2.84008e+09 2.84034e+09 2.84136e+09 2.84286e+09 0 1
293 1 1 2.84834e+09 2.84859e+09 2.84961e+09 2.84987e+09 0 1
294 2 1 2.85711e+09 2.85736e+09 2.85838e+09 2.85839e+09 0 0
295 2 1 2.86927e+09 2.86952e+09 2.87054e+09 2.87103e+09 1 0
296 2 0 2.88063e+09 2.88088e+09 2.8819e+09 2.88244e+09 1 1
297 1 1 2.88524e+09 2.8855e+09 2.88652e+09 2.88668e+09 0 1
298 1 1 2.89297e+09 2.89323e+09 2.89425e+09 2.89463e+09 0 1
299 1 1 2.89897e+09 2.89922e+09 2.90024e+09 2.9004e+09 0 1
300 2 0 2.90688e+09 2.90713e+09 2.90815e+09 2.90817e+09 0 1
301 1 1 2.91077e+09 2.91102e+09 2.91204e+09 2.91206e+09 0 1
302 1 1 2.91947e+09 2.91973e+09 2.92075e+09 2.92084e+09 0 1
303 1 1 2.92606e+09 2.92631e+09 2.92733e+09 2.92735e+09 0 1
304 2 1 2.93443e+09 2.93467e+09 2.93569e+09 2.93576e+09 0 0
305 2 1 2.94598e+09 2.94623e+09 2.94725e+09 2.94727e+09 1 0
306 2 0 2.95495e+09 2.95521e+09 2.95623e+09 2.95803e+09 1 1
307 2 1 2.96494e+09 2.96519e+09 2.96621e+09 2.96627e+09 0 0
308 2 0 2.97522e+09 2.97547e+09 2.97649e+09 2.978e+09 1 1
309 1 1 2.98168e+09 2.98192e+09 2.98294e+09 2.98296e+09 0 1
310 2 1 2.99333e+09 2.99358e+09 2.99459e+09 2.99607e+09 0 0
311 2 1 3.00405e+09 3.00431e+09 3.00533e+09 3.00533e+09 1 0
312 2 0 3.01546e+09 3.01571e+09 3.01673e+09 3.01952e+09 1 1
313 1 1 3.02209e+09 3.02234e+09 3.02336e+09 3.0234e+09 0 1
314 2 1 3.02954e+09 3.02979e+09 3.03081e+09 3.03082e+09 0 0
315 2 1 3.04314e+09 3.0434e+09 3.04442e+09 3.04479e+09 1 0
316 2 0 3.05209e+09 3.05234e+09 3.05336e+09 3.05338e+09 1 1
317 2 1 3.06015e+09 3.06041e+09 3.06143e+09 3.06145e+09 0 0
318 2 1 3.07339e+09 3.07364e+09 3.07466e+09 3.07467e+09 1 0
319 2 0 3.08606e+09 3.08632e+09 3.08734e+09 3.08922e+09 1 1
320 2 1 3.0925e+09 3.09277e+09 3.09379e+09 3.09388e+09 0 0
321 2 1 3.10286e+09 3.10311e+09 3.10413e+09 3.10441e+09 1 0
322 2 0 3.11314e+09 3.11339e+09 3.11441e+09 3.11465e+09 1 1
323 2 1 3.1176e+09 3.11785e+09 3.11887e+09 3.11889e+09 0 0
324 2 0 3.12601e+09 3.12627e+09 3.12729e+09 3.12815e+09 1 1
325 1 1 3.13088e+09 3.13115e+09 3.13217e+09 3.13232e+09 0 1
326 2 0 3.1387e+09 3.13895e+09 3.13997e+09 3.14017e+09 0 1
327 2 1 3.14624e+09 3.14649e+09 3.14751e+09 3.14765e+09 0 0
328 2 1 3.15487e+09 3.15512e+09 3.15614e+09 3.15619e+09 1 0
329 2 0 3.16537e+09 3.16562e+09 3.16664e+09 3.16766e+09 1 1
330 1 0 3.17571e+09 3.17597e+09 3.17698e+09 3.17735e+09 0 0
331 1 1 3.18619e+09 3.18643e+09 3.18745e+09 3.18782e+09 1 1
332 2 1 3.19428e+09 3.19454e+09 3.19556e+09 3.19558e+09 0 0
333 2 0 3.20359e+09 3.20385e+09 3.20487e+09 3.20631e+09 1 1
334 1 1 3.21204e+09 3.21229e+09 3.2133e+09 3.21333e+09 0 1
335 2 0 3.21903e+09 3.21928e+09 3.2203e+09 3.22169e+09 0 1
336 2 1 3.22886e+09 3.22911e+09 3.23013e+09 3.23015e+09 0 0
337 2 0 3.24093e+09 3.24118e+09 3.2422e+09 3.24376e+09 1 1
338 1 1 3.25308e+09 3.25333e+09 3.25435e+09 3.25436e+09 0 1
339 2 1 3.25731e+09 3.25757e+09 3.25859e+09 3.25907e+09 0 0
340 2 1 3.26884e+09 3.26909e+09 3.27011e+09 3.27023e+09 1 0
341 2 0 3.28032e+09 3.28057e+09 3.28159e+09 3.28366e+09 1 1
342 1 0 3.28645e+09 3.28671e+09 3.28772e+09 3.28991e+09 0 0
343 1 0 3.30247e+09 3.30272e+09 3.30374e+09 3.30396e+09 1 0
344 1 0 3.31116e+09 3.31141e+09 3.31243e+09 3.31251e+09 1 0
345 1 1 3.32091e+09 3.32116e+09 3.32218e+09 3.32457e+09 1 1
346 2 1 3.33194e+09 3.33218e+09 3.3332e+09 3.33321e+09 0 0
347 2 1 3.34025e+09 3.34051e+09 3.34153e+09 3.34332e+09 1 0
348 2 1 3.35599e+09 3.35624e+09 3.35725e+09 3.35739e+09 1 0
349 2 0 3.36485e+09 3.36511e+09 3.36613e+09 3.36655e+09 1 1
350 2 1 3.36945e+09 3.36969e+09 3.37071e+09 3.37076e+09 0 0
351 2 1 3.38366e+09 3.38392e+09 3.38494e+09 3.38506e+09 1 0
352 2 0 3.39314e+09 3.39339e+09 3.3944e+09 3.39456e+09 1 1
353 2 0 3.40108e+09 3.40132e+09 3.40234e+09 3.40246e+09 0 1
354 1 1 3.41835e+09 3.41861e+09 3.41963e+09 3.41972e+09 0 1
355 1 1 3.42849e+09 3.42874e+09 3.42976e+09 3.42977e+09 0 1
356 1 1 3.43694e+09 3.4372e+09 3.43822e+09 3.43822e+09 0 1
357 2 1 3.44559e+09 3.44584e+09 3.44686e+09 3.44765e+09 0 0
358 2 1 3.45901e+09 3.45928e+09 3.4603e+09 3.46032e+09 1 0
359 2 0 3.46783e+09 3.46808e+09 3.4691e+09 3.47037e+09 1 1
360 2 1 3.47291e+09 3.47315e+09 3.47417e+09 3.47439e+09 0 0
361 2 0 3.48414e+09 3.48439e+09 3.4854e+09 3.48781e+09 1 1
362 2 1 3.49056e+09 3.49081e+09 3.49183e+09 3.49317e+09 0 0
363 2 0 3.50783e+09 3.50808e+09 3.5091e+09 3.50947e+09 1 1
364 1 1 3.51213e+09 3.51238e+09 3.5134e+09 3.51382e+09 0 1
365 2 1 3.51677e+09 3.51703e+09 3.51804e+09 3.5181e+09 0 0
366 2 0 3.52763e+09 3.52788e+09 3.5289e+09 3.52891e+09 1 1
367 1 1 3.53168e+09 3.53193e+09 3.53295e+09 3.53301e+09 0 1
368 1 1 3.53968e+09 3.53995e+09 3.54097e+09 3.54153e+09 0 1
369 1 0 3.54885e+09 3.5491e+09 3.55012e+09 3.55014e+09 0 0
370 1 1 3.56073e+09 3.56099e+09 3.56201e+09 3.56208e+09 1 1
371 1 1 3.56507e+09 3.56532e+09 3.56634e+09 3.56637e+09 0 1
372 1 1 3.57202e+09 3.57228e+09 3.5733e+09 3.57339e+09 0 1
373 1 1 3.57617e+09 3.57643e+09 3.57745e+09 3.57749e+09 0 1
374 2 1 3.58702e+09 3.58727e+09 3.58829e+09 3.58835e+09 0 0
375 2 0 3.59575e+09 3.596e+09 3.59702e+09 3.6007e+09 1 1
376 2 1 3.60682e+09 3.60707e+09 3.60809e+09 3.60813e+09 0 0
377 2 1 3.62037e+09 3.62062e+09 3.62164e+09 3.62181e+09 1 0
378 2 1 3.63015e+09 3.6304e+09 3.63142e+09 3.6319e+09 1 0
379 2 0 3.64051e+09 3.64077e+09 3.64179e+09 3.64183e+09 1 1
380 1 1 3.64476e+09 3.64501e+09 3.64603e+09 3.64609e+09 0 1
381 2 0 3.652e+09 3.65225e+09 3.65327e+09 3.65508e+09 0 1
382 1 1 3.66229e+09 3.66254e+09 3.66356e+09 3.66356e+09 0 1
383 1 0 3.67354e+09 3.6738e+09 3.67482e+09 3.67485e+09 0 0
384 1 1 3.68232e+09 3.68258e+09 3.6836e+09 3.68364e+09 1 1
385 2 1 3.68988e+09 3.69013e+09 3.69115e+09 3.69115e+09 0 0
386 2 1 3.69954e+09 3.69979e+09 3.70081e+09 3.70137e+09 1 0
387 2 0 3.71326e+09 3.71352e+09 3.71454e+09 3.71499e+09 1 1
388 2 1 3.71772e+09 3.71798e+09 3.719e+09 3.71912e+09 0 0
389 2 0 3.72714e+09 3.72739e+09 3.72841e+09 3.72852e+09 1 1
390 2 1 3.732e+09 3.73226e+09 3.73327e+09 3.73452e+09 0 0
391 2 1 3.74158e+09 3.74183e+09 3.74285e+09 3.74683e+09 1 0
392 2 0 3.75422e+09 3.75446e+09 3.75548e+09 3.7579e+09 1 1
393 1 1 3.76044e+09 3.76068e+09 3.7617e+09 3.76177e+09 0 1
394 2 0 3.76694e+09 3.7672e+09 3.76821e+09 3.77027e+09 0 1
395 2 1 3.77324e+09 3.77349e+09 3.77451e+09 3.77452e+09 0 0
396 2 1 3.78657e+09 3.78682e+09 3.78784e+09 3.78883e+09 1 0
397 2 0 3.79614e+09 3.79639e+09 3.79741e+09 3.80012e+09 1 1
398 1 1 3.80302e+09 3.80328e+09 3.8043e+09 3.80431e+09 0 1
399 1 1 3.80716e+09 3.80742e+09 3.80844e+09 3.80845e+09 0 1
400 2 1 3.81303e+09 3.81328e+09 3.8143e+09 3.81441e+09 0 0
401 2 0 3.82209e+09 3.82235e+09 3.82337e+09 3.82436e+09 1 1
402 2 1 3.82982e+09 3.83007e+09 3.83109e+09 3.8311e+09 0 0
403 2 0 3.83838e+09 3.83863e+09 3.83965e+09 3.84246e+09 1 1
404 1 1 3.84547e+09 3.84572e+09 3.84674e+09 3.84685e+09 0 1
405 2 1 3.84969e+09 3.84995e+09 3.85097e+09 3.85098e+09 0 0
406 2 0 3.86313e+09 3.86337e+09 3.86439e+09 3.86654e+09 1 1
407 1 1 3.86955e+09 3.86982e+09 3.87084e+09 3.87091e+09 0 1
408 2 1 3.8739e+09 3.87416e+09 3.87518e+09 3.87579e+09 0 0
409 2 1 3.88561e+09 3.88587e+09 3.88689e+09 3.88725e+09 1 0
410 2 0 3.89711e+09 3.89736e+09 3.89838e+09 3.90007e+09 1 1
411 1 1 3.90274e+09 3.90299e+09 3.90401e+09 3.9041e+09 0 1
412 1 1 3.90711e+09 3.90735e+09 3.90837e+09 3.90844e+09 0 1
413 2 1 3.91121e+09 3.91146e+09 3.91248e+09 3.91304e+09 0 0
414 2 1 3.92563e+09 3.92588e+09 3.9269e+09 3.92946e+09 1 0
415 2 1 3.93919e+09 3.93945e+09 3.94047e+09 3.9462e+09 1 0
416 2 1 3.95354e+09 3.95379e+09 3.95481e+09 3.9551e+09 1 0
417 1 1 3.96241e+09 3.96267e+09 3.96369e+09 3.96383e+09 0 1
418 2 1 3.96647e+09 3.96673e+09 3.96775e+09 3.96777e+09 0 0
419 2 0 3.97822e+09 3.97848e+09 3.9795e+09 3.98278e+09 1 1
420 2 1 3.98544e+09 3.98569e+09 3.98671e+09 3.98686e+09 0 0
421 2 0 3.99687e+09 3.99711e+09 3.99813e+09 3.99924e+09 1 1
422 2 1 4.00555e+09 4.00579e+09 4.00681e+09 4.00686e+09 0 0
423 2 1 4.01409e+09 4.01435e+09 4.01537e+09 4.02079e+09 1 0
424 2 0 4.02975e+09 4.03002e+09 4.03103e+09 4.03442e+09 1 1
425 1 1 4.03702e+09 4.03727e+09 4.03829e+09 4.0383e+09 0 1
426 2 1 4.04088e+09 4.04114e+09 4.04216e+09 4.04219e+09 0 0
427 2 0 4.04933e+09 4.04957e+09 4.05059e+09 4.05249e+09 1 1
428 1 1 4.05527e+09 4.05553e+09 4.05655e+09 4.0566e+09 0 1
429 2 0 4.05957e+09 4.05982e+09 4.06084e+09 4.06087e+09 0 1
430 2 1 4.06341e+09 4.06366e+09 4.06468e+09 4.06478e+09 0 0
431 2 1 4.07229e+09 4.07254e+09 4.07356e+09 4.08533e+09 1 0
432 2 1 4.09427e+09 4.09452e+09 4.09553e+09 4.0957e+09 1 0
433 2 0 4.10293e+09 4.10317e+09 4.10419e+09 4.1129e+09 1 1
434 1 1 4.1155e+09 4.11575e+09 4.11677e+09 4.11693e+09 0 1
435 1 1 4.12124e+09 4.12149e+09 4.12251e+09 4.12253e+09 0 1
436 2 1 4.12533e+09 4.12559e+09 4.1266e+09 4.12686e+09 0 0
437 2 0 4.13405e+09 4.1343e+09 4.13532e+09 4.13758e+09 1 1
438 2 1 4.14401e+09 4.14428e+09 4.1453e+09 4.14731e+09 0 0
439 2 0 4.15466e+09 4.15491e+09 4.15593e+09 4.16112e+09 1 1
440 2 0 4.16646e+09 4.1667e+09 4.16772e+09 4.17303e+09 0 1
441 1 0 4.17557e+09 4.17583e+09 4.17685e+09 4.20122e+09 0 0
442 1 0 4.20854e+09 4.20878e+09 4.2098e+09 4.22038e+09 1 0
443 1 1 4.22769e+09 4.22793e+09 4.22895e+09 4.28395e+09 1 1
444 2 1 4.28688e+09 4.28713e+09 4.28814e+09 4.09328e+07 0 0
445 2 1 4.79744e+07 4.8236e+07 4.92552e+07 1.41045e+08 1 0
446 2 1 1.4813e+08 1.48395e+08 1.49414e+08 1.72482e+08 1 0
447 2 0 1.79846e+08 1.801e+08 1.81119e+08 1.86761e+08 1 1
448 2 1 1.89494e+08 1.89739e+08 1.90758e+08 1.98095e+08 0 0
449 2 0 2.05396e+08 2.05662e+08 2.06681e+08 2.12984e+08 1 1
450 1 1 2.15533e+08 2.15786e+08 2.16805e+08 2.19203e+08 0 1
451 1 0 2.21929e+08 2.2218e+08 2.23199e+08 2.23328e+08 0 0
452 1 1 2.30527e+08 2.30787e+08 2.31806e+08 2.78653e+08 1 1
453 1 1 2.81931e+08 2.8219e+08 2.83209e+08 3.12473e+08 0 1
454 2 1 3.16538e+08 3.16783e+08 3.17802e+08 3.19142e+08 0 0
455 2 0 3.2622e+08 3.26476e+08 3.27495e+08 3.34304e+08 1 1
456 2 1 3.37805e+08 3.3806e+08 3.39079e+08 3.40535e+08 0 0
457 2 1 3.48024e+08 3.48273e+08 3.49292e+08 3.98677e+08 1 0
458 2 1 4.05961e+08 4.06215e+08 4.07234e+08 4.15992e+08 1 0
459 2 1 4.23421e+08 4.23665e+08 4.24684e+08 4.92315e+08 1 0
460 1 0 4.99756e+08 5.00008e+08 5.01027e+08 5.03318e+08 0 0
461 2 0 5.10714e+08 5.10976e+08 5.11995e+08 5.82007e+08 0 1
462 2 0 5.8469e+08 5.84944e+08 5.85964e+08 5.86248e+08 0 1
463 2 1 5.89189e+08 5.89449e+08 5.90468e+08 6.27231e+08 0 0
464 2 1 6.34468e+08 6.34746e+08 6.35765e+08 6.65388e+08 1 0
465 2 0 6.74619e+08 6.74869e+08 6.75888e+08 7.2171e+08 1 1
466 1 1 7.25521e+08 7.25767e+08 7.26787e+08 7.7168e+08 0 1
467 2 0 7.76043e+08 7.76293e+08 7.77312e+08 8.08763e+08 0 1
468 2 0 8.12697e+08 8.12942e+08 8.13961e+08 8.49516e+08 0 1
469 2 1 8.52472e+08 8.52717e+08 8.53736e+08 8.79026e+08 0 0
470 2 0 8.86194e+08 8.86451e+08 8.8747e+08 9.32112e+08 1 1
471 2 0 9.35918e+08 9.36179e+08 9.37198e+08 9.82159e+08 0 1
472 1 0 9.85182e+08 9.85434e+08 9.86454e+08 9.94231e+08 0 0
473 1 0 1.00161e+09 1.00186e+09 1.00288e+09 1.06249e+09 1 0
474 1 0 1.06987e+09 1.07013e+09 1.07115e+09 1.08331e+09 1 0
475 1 0 1.09066e+09 1.0909e+09 1.09192e+09 1.09374e+09 1 0
476 1 0 1.10131e+09 1.10156e+09 1.10257e+09 1.15914e+09 0 0
477 2 0 1.16668e+09 1.16694e+09 1.16796e+09 1.22073e+09 0 1
478 1 0 1.22426e+09 1.22452e+09 1.22554e+09 1.54032e+09 0 0
479 1 0 1.54879e+09 1.54904e+09 1.55006e+09 1.5519e+09 1 0
480 1 1 1.55934e+09 1.5596e+09 1.56062e+09 1.56792e+09 1 1
481 1 0 1.57069e+09 1.57093e+09 1.57195e+09 1.59511e+09 0 0
482 1 1 1.60219e+09 1.60245e+09 1.60347e+09 1.8528e+09 1 1
483 2 1 1.85558e+09 1.85583e+09 1.85685e+09 2.17594e+09 0 0
