trial trialType response stillTime stimOnset stimOffset respTime correctionTrial correct
001 2 1 8.74702e+06 9.05795e+06 1.00771e+07 1.02302e+07 0 0
002 2 1 3.22908e+07 3.25687e+07 3.35878e+07 3.47149e+07 1 0
003 2 0 4.7062e+07 4.73334e+07 4.83526e+07 4.89872e+07 1 1
004 1 0 5.95323e+07 5.97851e+07 6.08042e+07 6.1302e+07 0 0
005 1 0 7.92013e+07 7.94518e+07 8.0471e+07 8.19506e+07 1 0
006 1 1 8.92621e+07 8.95155e+07 9.05346e+07 9.06992e+07 1 1
007 1 1 1.00737e+08 1.0098e+08 1.01999e+08 1.02197e+08 0 1
008 1 0 1.05106e+08 1.0537e+08 1.06389e+08 1.07721e+08 0 0
009 1 1 1.24727e+08 1.24988e+08 1.26008e+08 1.26132e+08 1 1
010 1 1 1.34523e+08 1.34774e+08 1.35793e+08 1.36892e+08 0 1
011 2 0 1.42064e+08 1.4233e+08 1.43349e+08 1.44785e+08 0 1
012 2 1 1.55467e+08 1.55721e+08 1.56741e+08 1.58112e+08 0 0
013 2 1 1.83175e+08 1.83426e+08 1.84445e+08 1.85481e+08 1 0
014 2 1 1.96411e+08 1.96662e+08 1.97681e+08 1.97798e+08 1 0
015 2 1 2.061e+08 2.06354e+08 2.07373e+08 2.07415e+08 1 0
016 1 0 2.15215e+08 2.15468e+08 2.16487e+08 2.18282e+08 0 0
017 1 1 2.33751e+08 2.34014e+08 2.35033e+08 2.35103e+08 0 1
018 2 1 2.50712e+08 2.50994e+08 2.52013e+08 2.52112e+08 0 0
019 2 0 2.63595e+08 2.63847e+08 2.64866e+08 2.64885e+08 1 1
020 1 1 2.71221e+08 2.71478e+08 2.72497e+08 2.72599e+08 0 1
021 2 1 2.76246e+08 2.76496e+08 2.77515e+08 2.78487e+08 0 0
022 2 1 2.87001e+08 2.87257e+08 2.88276e+08 2.88461e+08 1 0
023 2 1 2.96785e+08 2.9704e+08 2.9806e+08 2.98813e+08 1 0
024 2 0 3.10595e+08 3.10853e+08 3.11872e+08 3.11948e+08 1 1
025 2 1 3.14907e+08 3.1517e+08 3.1619e+08 3.16197e+08 0 0
026 2 1 3.30385e+08 3.30628e+08 3.31647e+08 3.31663e+08 1 0
027 2 0 3.40719e+08 3.40979e+08 3.41998e+08 3.43637e+08 1 1
028 1 1 3.46445e+08 3.46698e+08 3.47717e+08 3.48613e+08 0 1
029 2 1 3.5147e+08 3.51729e+08 3.52748e+08 3.52845e+08 0 0
030 2 0 3.63032e+08 3.63294e+08 3.64313e+08 3.65887e+08 1 1
031 1 1 3.68525e+08 3.68785e+08 3.69805e+08 3.69882e+08 0 1
032 2 1 3.72862e+08 3.73117e+08 3.74136e+08 3.74169e+08 0 0
033 2 1 3.86217e+08 3.86484e+08 3.87503e+08 3.89073e+08 1 0
034 2 1 3.97871e+08 3.98121e+08 3.9914e+08 3.99499e+08 1 0
035 2 1 4.11065e+08 4.11332e+08 4.12351e+08 4.12472e+08 1 0
036 1 1 4.21931e+08 4.22184e+08 4.23203e+08 4.23617e+08 0 1
037 1 1 4.3059e+08 4.30835e+08 4.31854e+08 4.32012e+08 0 1
038 2 1 4.34642e+08 4.34905e+08 4.35924e+08 4.35951e+08 0 0
039 2 0 4.46462e+08 4.46732e+08 4.47751e+08 4.49475e+08 1 1
040 2 1 4.52381e+08 4.52639e+08 4.53658e+08 4.54693e+08 0 0
041 2 0 4.65133e+08 4.65391e+08 4.6641e+08 4.67383e+08 1 1
042 2 0 4.74102e+08 4.74362e+08 4.75381e+08 4.77354e+08 0 1
043 2 0 4.88784e+08 4.89034e+08 4.90053e+08 4.91959e+08 0 1
044 2 1 4.99053e+08 4.99298e+08 5.00317e+08 5.00332e+08 0 0
045 2 1 5.08851e+08 5.09094e+08 5.10113e+08 5.12333e+08 1 0
046 2 1 5.21728e+08 5.21992e+08 5.23011e+08 5.23094e+08 1 0
047 2 1 5.3035e+08 5.30617e+08 5.31636e+08 5.32001e+08 1 0
048 2 1 5.40749e+08 5.40998e+08 5.42017e+08 5.43019e+08 0 0
049 2 0 5.53107e+08 5.53359e+08 5.54378e+08 5.54494e+08 0 1
050 2 1 5.6251e+08 5.6276e+08 5.6378e+08 5.63787e+08 0 0
051 2 0 5.70826e+08 5.71085e+08 5.72104e+08 5.7334e+08 1 1
052 1 1 5.76056e+08 5.76317e+08 5.77336e+08 5.77618e+08 0 1
053 1 0 5.81194e+08 5.81456e+08 5.82475e+08 5.82564e+08 0 0
054 1 1 5.9622e+08 5.96479e+08 5.97498e+08 5.98209e+08 1 1
055 2 0 6.03239e+08 6.03495e+08 6.04514e+08 6.05896e+08 0 1
056 1 1 6.18151e+08 6.18394e+08 6.19413e+08 6.21293e+08 0 1
057 2 1 6.23882e+08 6.24148e+08 6.25167e+08 6.26499e+08 0 0
058 2 1 6.35176e+08 6.35442e+08 6.36461e+08 6.36744e+08 1 0
059 2 1 6.51353e+08 6.5161e+08 6.52629e+08 6.52656e+08 1 0
060 2 1 6.61693e+08 6.61948e+08 6.62967e+08 6.64442e+08 1 0
061 2 1 6.80924e+08 6.81184e+08 6.82203e+08 6.82214e+08 0 0
062 2 0 6.89476e+08 6.89739e+08 6.90758e+08 6.92911e+08 0 1
063 2 1 6.95513e+08 6.95763e+08 6.96782e+08 6.97274e+08 0 0
064 2 1 7.05521e+08 7.05781e+08 7.068e+08 7.08065e+08 1 0
065 2 0 7.15827e+08 7.16092e+08 7.17111e+08 7.17264e+08 1 1
066 2 1 7.20174e+08 7.20436e+08 7.21455e+08 7.21675e+08 0 0
067 2 1 7.30345e+08 7.30596e+08 7.31615e+08 7.31637e+08 1 0
068 2 0 7.52402e+08 7.52652e+08 7.53672e+08 7.54085e+08 1 1
069 1 0 7.5688e+08 7.57135e+08 7.58154e+08 7.59048e+08 0 0
070 1 1 7.66511e+08 7.66771e+08 7.67791e+08 7.67829e+08 1 1
071 1 1 7.72173e+08 7.72423e+08 7.73442e+08 7.75695e+08 0 1
072 1 1 7.87594e+08 7.87851e+08 7.8887e+08 7.90894e+08 0 1
073 1 0 7.93744e+08 7.94002e+08 7.95022e+08 7.95091e+08 0 0
074 1 1 8.02141e+08 8.02395e+08 8.03414e+08 8.0569e+08 1 1
075 1 1 8.10211e+08 8.10467e+08 8.11486e+08 8.11832e+08 0 1
076 2 1 8.1645e+08 8.16708e+08 8.17727e+08 8.17767e+08 0 0
077 2 1 8.2857e+08 8.2882e+08 8.2984e+08 8.29965e+08 1 0
078 2 1 8.38135e+08 8.38393e+08 8.39412e+08 8.39466e+08 1 0
079 2 1 8.46961e+08 8.47206e+08 8.48225e+08 8.50818e+08 1 0
080 2 0 8.61988e+08 8.62246e+08 8.63265e+08 8.63868e+08 0 1
081 1 1 8.66543e+08 8.66798e+08 8.67817e+08 8.68159e+08 0 1
082 1 0 8.7346e+08 8.73724e+08 8.74743e+08 8.74811e+08 0 0
083 1 1 8.83962e+08 8.84221e+08 8.85241e+08 8.85489e+08 1 1
084 2 1 8.89008e+08 8.8926e+08 8.90279e+08 8.90351e+08 0 0
085 2 1 8.99207e+08 8.99465e+08 9.00484e+08 9.00498e+08 1 0
086 2 1 9.10082e+08 9.10342e+08 9.11361e+08 9.11836e+08 1 0
087 2 1 9.2346e+08 9.23724e+08 9.24743e+08 9.26034e+08 1 0
088 2 1 9.34685e+08 9.34951e+08 9.3597e+08 9.36115e+08 0 0
089 2 0 9.43656e+08 9.43911e+08 9.4493e+08 9.46855e+08 0 1
090 1 1 9.52119e+08 9.5238e+08 9.53399e+08 9.53737e+08 0 1
091 2 1 9.60058e+08 9.60309e+08 9.61328e+08 9.61403e+08 0 0
092 2 0 9.6855e+08 9.68802e+08 9.69821e+08 9.69829e+08 1 1
093 2 0 9.72315e+08 9.72564e+08 9.73584e+08 9.7387e+08 0 1
094 2 1 9.90393e+08 9.90662e+08 9.91681e+08 9.9224e+08 0 0
095 2 1 9.99522e+08 9.99784e+08 1.0008e+09 1.00099e+09 1 0
096 2 0 1.00913e+09 1.00938e+09 1.0104e+09 1.01048e+09 1 1
097 2 1 1.01488e+09 1.01513e+09 1.01615e+09 1.01675e+09 0 0
098 2 1 1.0278e+09 1.02806e+09 1.02908e+09 1.02939e+09 1 0
099 2 0 1.03739e+09 1.03765e+09 1.03867e+09 1.03901e+09 1 1
100 2 1 1.04173e+09 1.04198e+09 1.04299e+09 1.04302e+09 0 0
101 2 0 1.05088e+09 1.05112e+09 1.05214e+09 1.05465e+09 1 1
102 2 1 1.06068e+09 1.06093e+09 1.06195e+09 1.06262e+09 0 0
103 2 0 1.07002e+09 1.07028e+09 1.0713e+09 1.07412e+09 1 1
104 2 1 1.07693e+09 1.07718e+09 1.0782e+09 1.07884e+09 0 0
105 2 0 1.0867e+09 1.08697e+09 1.08799e+09 1.08885e+09 1 1
106 1 0 1.09351e+09 1.09377e+09 1.09479e+09 1.09601e+09 0 0
107 1 0 1.10849e+09 1.10875e+09 1.10977e+09 1.10988e+09 1 0
108 1 0 1.12219e+09 1.12245e+09 1.12347e+09 1.12348e+09 1 0
109 1 1 1.13081e+09 1.13107e+09 1.13209e+09 1.13462e+09 1 1
110 1 1 1.14121e+09 1.14148e+09 1.1425e+09 1.1439e+09 0 1
111 2 1 1.1466e+09 1.14684e+09 1.14786e+09 1.14789e+09 0 0
112 2 1 1.15702e+09 1.15728e+09 1.1583e+09 1.1588e+09 1 0
113 2 1 1.16608e+09 1.16634e+09 1.16736e+09 1.16742e+09 1 0
114 2 1 1.17869e+09 1.17894e+09 1.17996e+09 1.18007e+09 1 0
115 1 1 1.19304e+09 1.1933e+09 1.19432e+09 1.19434e+09 0 1
116 1 1 1.19769e+09 1.19796e+09 1.19898e+09 1.1991e+09 0 1
117 1 0 1.20171e+09 1.20197e+09 1.20299e+09 1.20305e+09 0 0
118 1 1 1.2105e+09 1.21076e+09 1.21178e+09 1.21258e+09 1 1
119 2 1 1.21698e+09 1.21724e+09 1.21826e+09 1.21849e+09 0 0
120 2 1 1.2276e+09 1.22785e+09 1.22887e+09 1.22982e+09 1 0
121 2 0 1.2371e+09 1.23735e+09 1.23837e+09 1.23998e+09 1 1
122 1 1 1.24265e+09 1.2429e+09 1.24392e+09 1.24397e+09 0 1
123 2 0 1.24699e+09 1.24723e+09 1.24825e+09 1.24842e+09 0 1
124 1 1 1.25341e+09 1.25368e+09 1.2547e+09 1.25475e+09 0 1
125 1 1 1.25932e+09 1.25957e+09 1.26059e+09 1.26305e+09 0 1
126 1 1 1.27565e+09 1.27591e+09 1.27693e+09 1.27727e+09 0 1
127 2 1 1.27987e+09 1.28013e+09 1.28115e+09 1.28119e+09 0 0
128 2 0 1.28825e+09 1.28851e+09 1.28953e+09 1.29069e+09 1 1
129 2 1 1.29317e+09 1.29342e+09 1.29444e+09 1.29453e+09 0 0
130 2 1 1.30551e+09 1.30577e+09 1.30679e+09 1.30681e+09 1 0
131 2 0 1.31771e+09 1.31795e+09 1.31897e+09 1.31948e+09 1 1
132 1 1 1.33381e+09 1.33406e+09 1.33508e+09 1.33515e+09 0 1
133 2 1 1.34578e+09 1.34603e+09 1.34705e+09 1.34869e+09 0 0
134 2 1 1.36006e+09 1.36032e+09 1.36134e+09 1.36425e+09 1 0
135 2 0 1.37251e+09 1.37276e+09 1.37378e+09 1.375e+09 1 1
136 1 1 1.37781e+09 1.37806e+09 1.37908e+09 1.37934e+09 0 1
137 1 0 1.38459e+09 1.38484e+09 1.38586e+09 1.38664e+09 0 0
138 1 1 1.39829e+09 1.39853e+09 1.39955e+09 1.40155e+09 1 1
139 2 1 1.40419e+09 1.40446e+09 1.40547e+09 1.40586e+09 0 0
140 2 1 1.41475e+09 1.41501e+09 1.41603e+09 1.41604e+09 1 0
141 2 0 1.42325e+09 1.42351e+09 1.42453e+09 1.42462e+09 1 1
142 1 1 1.43361e+09 1.43387e+09 1.43489e+09 1.43497e+09 0 1
143 1 1 1.44112e+09 1.44137e+09 1.44239e+09 1.44255e+09 0 1
144 1 1 1.44803e+09 1.44829e+09 1.44931e+09 1.44932e+09 0 1
145 2 0 1.4519e+09 1.45216e+09 1.45318e+09 1.45442e+09 0 1
146 1 0 1.45852e+09 1.45878e+09 1.4598e+09 1.45986e+09 0 0
147 1 1 1.46703e+09 1.46728e+09 1.4683e+09 1.46872e+09 1 1
148 1 1 1.47139e+09 1.47164e+09 1.47266e+09 1.47294e+09 0 1
149 2 1 1.47576e+09 1.47601e+09 1.47703e+09 1.4771e+09 0 0
150 2 1 1.48414e+09 1.48439e+09 1.48541e+09 1.48542e+09 1 0
151 2 1 1.49669e+09 1.49694e+09 1.49796e+09 1.49797e+09 1 0
152 2 1 1.50814e+09 1.50838e+09 1.5094e+09 1.50941e+09 1 0
153 2 1 1.51802e+09 1.51828e+09 1.5193e+09 1.51941e+09 0 0
154 1 1 1.52953e+09 1.52979e+09 1.53081e+09 1.53121e+09 0 1
155 2 1 1.5408e+09 1.54106e+09 1.54208e+09 1.54221e+09 0 0
156 2 1 1.55261e+09 1.55286e+09 1.55388e+09 1.55406e+09 1 0
157 2 1 1.56138e+09 1.56163e+09 1.56265e+09 1.56266e+09 1 0
158 2 1 1.57034e+09 1.5706e+09 1.57162e+09 1.57182e+09 1 0
159 1 1 1.59844e+09 1.5987e+09 1.59972e+09 1.60083e+09 0 1
160 1 1 1.60344e+09 1.60369e+09 1.60471e+09 1.60504e+09 0 1
161 1 1 1.60923e+09 1.6095e+09 1.61052e+09 1.61053e+09 0 1
162 2 1 1.61302e+09 1.61326e+09 1.61428e+09 1.61435e+09 0 0
163 2 1 1.6217e+09 1.62194e+09 1.62296e+09 1.62491e+09 1 0
164 2 0 1.63393e+09 1.63419e+09 1.63521e+09 1.63569e+09 1 1
165 2 1 1.63854e+09 1.63879e+09 1.63981e+09 1.64028e+09 0 0
166 2 1 1.64741e+09 1.64766e+09 1.64868e+09 1.64889e+09 1 0
167 2 1 1.65692e+09 1.65717e+09 1.65819e+09 1.65955e+09 1 0
168 2 1 1.66753e+09 1.66779e+09 1.66881e+09 1.67034e+09 1 0
169 1 1 1.67942e+09 1.67968e+09 1.6807e+09 1.68094e+09 0 1
170 2 1 1.68347e+09 1.68373e+09 1.68475e+09 1.68504e+09 0 0
171 2 0 1.6968e+09 1.69707e+09 1.69809e+09 1.70026e+09 1 1
172 1 1 1.70576e+09 1.70601e+09 1.70703e+09 1.70714e+09 0 1
173 1 1 1.71391e+09 1.71417e+09 1.71519e+09 1.71628e+09 0 1
174 1 1 1.72792e+09 1.72817e+09 1.72919e+09 1.73348e+09 0 1
175 2 1 1.7363e+09 1.73655e+09 1.73757e+09 1.73772e+09 0 0
176 2 1 1.74484e+09 1.74509e+09 1.74611e+09 1.74634e+09 1 0
177 2 0 1.75436e+09 1.7546e+09 1.75562e+09 1.75811e+09 1 1
178 1 0 1.76736e+09 1.76761e+09 1.76863e+09 1.76871e+09 0 0
179 1 0 1.77587e+09 1.77612e+09 1.77714e+09 1.77722e+09 1 0
180 1 1 1.78751e+09 1.78777e+09 1.78879e+09 1.78886e+09 1 1
181 2 1 1.79958e+09 1.79983e+09 1.80085e+09 1.80094e+09 0 0
182 2 1 1.8124e+09 1.81266e+09 1.81367e+09 1.81414e+09 1 0
183 2 1 1.82243e+09 1.82269e+09 1.8237e+09 1.82735e+09 1 0
184 2 0 1.83442e+09 1.83467e+09 1.83569e+09 1.84089e+09 1 1
185 1 1 1.84362e+09 1.84388e+09 1.8449e+09 1.84497e+09 0 1
186 1 1 1.84786e+09 1.84811e+09 1.84913e+09 1.84954e+09 0 1
187 2 1 1.86297e+09 1.86323e+09 1.86425e+09 1.86429e+09 0 0
188 2 1 1.87185e+09 1.87211e+09 1.87313e+09 1.87481e+09 1 0
189 2 1 1.88196e+09 1.88221e+09 1.88323e+09 1.88327e+09 1 0
190 2 1 1.89255e+09 1.8928e+09 1.89382e+09 1.89416e+09 1 0
191 1 0 1.90171e+09 1.90197e+09 1.90299e+09 1.9041e+09 0 0
192 2 1 1.91214e+09 1.91238e+09 1.9134e+09 1.91406e+09 0 0
193 1 1 1.9238e+09 1.92406e+09 1.92508e+09 1.92509e+09 0 1
194 2 1 1.93058e+09 1.93083e+09 1.93185e+09 1.93327e+09 0 0
195 2 0 1.94164e+09 1.94189e+09 1.94291e+09 1.94299e+09 1 1
196 1 0 1.95291e+09 1.95316e+09 1.95418e+09 1.95553e+09 0 0
197 1 1 1.96377e+09 1.96402e+09 1.96504e+09 1.96654e+09 1 1
198 2 1 1.97386e+09 1.97412e+09 1.97514e+09 1.97597e+09 0 0
199 2 1 1.98454e+09 1.9848e+09 1.98582e+09 1.98996e+09 1 0
200 2 0 1.99732e+09 1.99758e+09 1.9986e+09 1.99922e+09 1 1
201 2 1 2.00247e+09 2.00272e+09 2.00374e+09 2.00377e+09 0 0
202 2 1 2.01127e+09 2.01152e+09 2.01254e+09 2.01276e+09 1 0
203 2 1 2.02037e+09 2.02062e+09 2.02164e+09 2.02242e+09 1 0
204 2 1 2.03296e+09 2.03321e+09 2.03423e+09 2.03932e+09 1 0
205 2 0 2.04659e+09 2.04685e+09 2.04787e+09 2.04799e+09 0 1
206 1 1 2.05385e+09 2.05409e+09 2.05511e+09 2.0575e+09 0 1
207 2 1 2.06384e+09 2.0641e+09 2.06512e+09 2.06524e+09 0 0
208 2 0 2.07232e+09 2.07257e+09 2.07359e+09 2.07387e+09 1 1
209 2 1 2.0841e+09 2.08437e+09 2.08538e+09 2.08604e+09 0 0
210 2 0 2.09581e+09 2.09607e+09 2.09709e+09 2.09795e+09 1 1
211 2 1 2.10498e+09 2.10523e+09 2.10625e+09 2.10801e+09 0 0
212 2 1 2.11753e+09 2.11779e+09 2.11881e+09 2.11919e+09 1 0
213 2 0 2.1271e+09 2.12737e+09 2.12839e+09 2.13047e+09 1 1
214 2 1 2.13317e+09 2.13341e+09 2.13443e+09 2.13504e+09 0 0
215 2 0 2.14584e+09 2.1461e+09 2.14712e+09 2.14841e+09 1 1
216 2 1 2.15117e+09 2.15142e+09 2.15244e+09 2.15365e+09 0 0
217 2 1 2.16243e+09 2.16269e+09 2.16371e+09 2.1648e+09 1 0
218 2 1 2.17412e+09 2.17438e+09 2.1754e+09 2.17693e+09 1 0
219 2 0 2.1856e+09 2.18586e+09 2.18688e+09 2.18719e+09 1 1
220 1 1 2.18982e+09 2.19008e+09 2.19109e+09 2.19148e+09 0 1
221 1 1 2.20094e+09 2.2012e+09 2.20222e+09 2.20228e+09 0 1
222 1 1 2.20851e+09 2.20877e+09 2.20979e+09 2.21118e+09 0 1
223 1 1 2.22172e+09 2.22196e+09 2.22298e+09 2.22323e+09 0 1
224 2 1 2.22763e+09 2.22789e+09 2.22891e+09 2.22899e+09 0 0
225 2 0 2.23937e+09 2.23963e+09 2.24065e+09 2.2414e+09 1 1
226 1 0 2.25781e+09 2.25807e+09 2.25909e+09 2.26062e+09 0 0
227 1 1 2.2693e+09 2.26956e+09 2.27058e+09 2.27073e+09 1 1
228 2 1 2.27437e+09 2.27463e+09 2.27565e+09 2.27668e+09 0 0
229 2 1 2.28403e+09 2.28428e+09 2.2853e+09 2.28584e+09 1 0
230 2 1 2.29604e+09 2.2963e+09 2.29732e+09 2.29738e+09 1 0
231 2 1 2.30479e+09 2.30504e+09 2.30606e+09 2.30676e+09 1 0
232 2 0 2.3159e+09 2.31616e+09 2.31717e+09 2.31822e+09 0 1
233 1 1 2.32519e+09 2.32546e+09 2.32648e+09 2.32653e+09 0 1
234 1 0 2.33213e+09 2.33239e+09 2.33341e+09 2.33353e+09 0 0
235 1 1 2.34311e+09 2.34336e+09 2.34438e+09 2.34443e+09 1 1
236 2 1 2.35333e+09 2.35359e+09 2.35461e+09 2.35476e+09 0 0
237 2 1 2.36369e+09 2.36394e+09 2.36496e+09 2.36509e+09 1 0
238 2 1 2.37213e+09 2.37238e+09 2.3734e+09 2.37366e+09 1 0
239 2 1 2.38471e+09 2.38496e+09 2.38598e+09 2.38612e+09 1 0
240 1 1 2.39347e+09 2.39373e+09 2.39475e+09 2.39773e+09 0 1
241 2 1 2.40041e+09 2.40067e+09 2.40169e+09 2.40181e+09 0 0
242 2 0 2.42336e+09 2.42362e+09 2.42464e+09 2.42719e+09 1 1
243 1 1 2.43004e+09 2.43031e+09 2.43133e+09 2.43134e+09 0 1
244 1 1 2.43927e+09 2.43953e+09 2.44055e+09 2.44127e+09 0 1
245 1 1 2.44727e+09 2.44753e+09 2.44855e+09 2.45072e+09 0 1
246 2 1 2.45349e+09 2.45375e+09 2.45476e+09 2.45542e+09 0 0
247 2 1 2.4665e+09 2.46674e+09 2.46776e+09 2.46785e+09 1 0
248 2 0 2.47499e+09 2.47525e+09 2.47627e+09 2.47643e+09 1 1
249 1 1 2.48183e+09 2.48208e+09 2.4831e+09 2.48507e+09 0 1
250 2 1 2.48813e+09 2.48838e+09 2.4894e+09 2.48943e+09 0 0
251 2 1 2.49975e+09 2.5e+09 2.50102e+09 2.50159e+09 1 0
252 2 0 2.50992e+09 2.51017e+09 2.51119e+09 2.51209e+09 1 1
253 1 1 2.51804e+09 2.51829e+09 2.51931e+09 2.51941e+09 0 1
254 1 1 2.52855e+09 2.52881e+09 2.52983e+09 2.53001e+09 0 1
255 2 0 2.53464e+09 2.5349e+09 2.53592e+09 2.53593e+09 0 1
256 1 1 2.54059e+09 2.54084e+09 2.54186e+09 2.54352e+09 0 1
257 1 0 2.54873e+09 2.54899e+09 2.55001e+09 2.55012e+09 0 0
258 1 1 2.55739e+09 2.55765e+09 2.55867e+09 2.559e+09 1 1
259 2 1 2.56156e+09 2.56181e+09 2.56283e+09 2.56289e+09 0 0
260 2 1 2.57131e+09 2.57156e+09 2.57258e+09 2.57315e+09 1 0
261 2 0 2.5806e+09 2.58086e+09 2.58188e+09 2.58303e+09 1 1
262 2 0 2.58583e+09 2.58609e+09 2.58711e+09 2.58731e+09 0 1
263 2 1 2.59175e+09 2.592e+09 2.59302e+09 2.59309e+09 0 0
264 2 0 2.60145e+09 2.60171e+09 2.60273e+09 2.60316e+09 1 1
265 2 1 2.60994e+09 2.6102e+09 2.61121e+09 2.61124e+09 0 0
266 2 0 2.61849e+09 2.61874e+09 2.61976e+09 2.62061e+09 1 1
267 1 1 2.62596e+09 2.62623e+09 2.62725e+09 2.62726e+09 0 1
268 1 1 2.63033e+09 2.63057e+09 2.63159e+09 2.6317e+09 0 1
269 1 1 2.63972e+09 2.63998e+09 2.641e+09 2.64102e+09 0 1
270 2 0 2.6503e+09 2.65056e+09 2.65158e+09 2.65162e+09 0 1
271 2 0 2.6553e+09 2.65555e+09 2.65657e+09 2.65835e+09 0 1
272 1 1 2.66085e+09 2.6611e+09 2.66212e+09 2.66223e+09 0 1
273 1 1 2.66492e+09 2.66518e+09 2.6662e+09 2.6663e+09 0 1
274 2 0 2.6702e+09 2.67046e+09 2.67148e+09 2.67367e+09 0 1
275 2 1 2.67652e+09 2.67677e+09 2.67779e+09 2.67883e+09 0 0
276 2 1 2.68596e+09 2.68621e+09 2.68723e+09 2.69001e+09 1 0
277 2 1 2.6972e+09 2.69746e+09 2.69847e+09 2.69849e+09 1 0
278 2 1 2.70698e+09 2.70724e+09 2.70826e+09 2.7086e+09 1 0
279 1 1 2.71981e+09 2.72007e+09 2.72109e+09 2.72164e+09 0 1
280 2 1 2.72707e+09 2.72733e+09 2.72835e+09 2.72866e+09 0 0
281 2 0 2.73758e+09 2.73784e+09 2.73886e+09 2.73893e+09 1 1
282 2 1 2.74736e+09 2.7476e+09 2.74862e+09 2.74863e+09 0 0
283 2 1 2.75576e+09 2.75602e+09 2.75704e+09 2.75831e+09 1 0
284 2 1 2.76569e+09 2.76595e+09 2.76697e+09 2.76788e+09 1 0
285 2 1 2.77776e+09 2.77801e+09 2.77903e+09 2.77934e+09 1 0
286 2 1 2.78682e+09 2.78708e+09 2.7881e+09 2.78811e+09 0 0
287 1 1 2.79546e+09 2.79571e+09 2.79673e+09 2.79702e+09 0 1
288 2 1 2.79959e+09 2.79985e+09 2.80087e+09 2.80513e+09 0 0
289 2 0 2.81255e+09 2.8128e+09 2.81382e+09 2.81587e+09 1 1
290 2 1 2.82026e+09 2.82051e+09 2.82153e+09 2.82278e+09 0 0
291 2 1 2.8321e+09 2.83236e+09 2.83338e+09 2.83658e+09 1 0
292 2 0 2.84375e+09 2.844e+09 2.84502e+09 2.84503e+09 1 1
293 2 1 2.84759e+09 2.84785e+09 2.84887e+09 2.84931e+09 0 0
294 2 1 2.86339e+09 2.86366e+09 2.86467e+09 2.86526e+09 1 0
295 2 1 2.87323e+09 2.87348e+09 2.8745e+09 2.87458e+09 1 0
296 2 1 2.88171e+09 2.88195e+09 2.88297e+09 2.89151e+09 1 0
297 2 0 2.90653e+09 2.90678e+09 2.9078e+09 2.91111e+09 0 1
298 2 1 2.91562e+09 2.91588e+09 2.9169e+09 2.91993e+09 0 0
299 2 0 2.92727e+09 2.92752e+09 2.92854e+09 2.92898e+09 1 1
300 1 0 2.93165e+09 2.93189e+09 2.93291e+09 2.93344e+09 0 0
301 1 0 2.94129e+09 2.94155e+09 2.94256e+09 2.94437e+09 1 0
302 1 0 2.95164e+09 2.9519e+09 2.95292e+09 2.95313e+09 1 0
303 1 1 2.96028e+09 2.96055e+09 2.96156e+09 2.96174e+09 1 1
304 2 1 2.9646e+09 2.96485e+09 2.96587e+09 2.96627e+09 0 0
305 2 1 2.9737e+09 2.97395e+09 2.97497e+09 2.97577e+09 1 0
306 2 0 2.98618e+09 2.98644e+09 2.98746e+09 2.98967e+09 1 1
307 1 0 2.99339e+09 2.99364e+09 2.99466e+09 2.99483e+09 0 0
308 1 0 3.00286e+09 3.00311e+09 3.00413e+09 3.00569e+09 1 0
309 1 0 3.01274e+09 3.013e+09 3.01401e+09 3.01417e+09 1 0
310 1 0 3.02161e+09 3.02186e+09 3.02288e+09 3.02487e+09 1 0
311 2 1 3.03318e+09 3.03343e+09 3.03445e+09 3.04064e+09 0 0
312 1 1 3.05103e+09 3.05129e+09 3.05231e+09 3.05629e+09 0 1
313 1 1 3.05886e+09 3.05912e+09 3.06014e+09 3.0607e+09 0 1
314 1 1 3.06681e+09 3.06707e+09 3.06809e+09 3.06916e+09 0 1
315 2 1 3.07867e+09 3.07892e+09 3.07994e+09 3.07996e+09 0 0
316 2 1 3.09147e+09 3.09172e+09 3.09274e+09 3.09383e+09 1 0
317 2 1 3.10264e+09 3.10289e+09 3.1039e+09 3.10495e+09 1 0
318 2 1 3.11471e+09 3.11497e+09 3.11599e+09 3.1198e+09 1 0
319 1 1 3.12727e+09 3.12752e+09 3.12854e+09 3.12857e+09 0 1
320 1 1 3.13546e+09 3.13571e+09 3.13673e+09 3.13852e+09 0 1
321 2 1 3.143e+09 3.14326e+09 3.14428e+09 3.14438e+09 0 0
322 2 1 3.15597e+09 3.15623e+09 3.15725e+09 3.16119e+09 1 0
323 2 1 3.17107e+09 3.17132e+09 3.17234e+09 3.1804e+09 1 0
324 2 0 3.18825e+09 3.18851e+09 3.18953e+09 3.20053e+09 1 1
325 1 1 3.20558e+09 3.20583e+09 3.20685e+09 3.21209e+09 0 1
326 1 1 3.21486e+09 3.21511e+09 3.21613e+09 3.21621e+09 0 1
327 2 1 3.22167e+09 3.22193e+09 3.22295e+09 3.22431e+09 0 0
328 2 1 3.23233e+09 3.23259e+09 3.23361e+09 3.23584e+09 1 0
329 2 1 3.24291e+09 3.24315e+09 3.24417e+09 3.25377e+09 1 0
330 2 0 3.26089e+09 3.26114e+09 3.26216e+09 3.27293e+09 1 1
331 2 1 3.28026e+09 3.28052e+09 3.28154e+09 3.28291e+09 0 0
332 2 1 3.2903e+09 3.29056e+09 3.29158e+09 3.29164e+09 1 0
333 2 0 3.29942e+09 3.29967e+09 3.30069e+09 3.30272e+09 1 1
334 1 1 3.30932e+09 3.30958e+09 3.3106e+09 3.31255e+09 0 1
335 1 1 3.31993e+09 3.32018e+09 3.3212e+09 3.32213e+09 0 1
336 1 1 3.32483e+09 3.32509e+09 3.32611e+09 3.32616e+09 0 1
337 1 1 3.33503e+09 3.33528e+09 3.3363e+09 3.33633e+09 0 1
338 1 1 3.33928e+09 3.33954e+09 3.34056e+09 3.34057e+09 0 1
339 2 1 3.34353e+09 3.34377e+09 3.34479e+09 3.34493e+09 0 0
340 2 0 3.35748e+09 3.35774e+09 3.35876e+09 3.35948e+09 1 1
341 1 1 3.37028e+09 3.37053e+09 3.37155e+09 3.37161e+09 0 1
342 2 0 3.3753e+09 3.37555e+09 3.37657e+09 3.37675e+09 0 1
343 2 1 3.3837e+09 3.38396e+09 3.38498e+09 3.38501e+09 0 0
344 2 1 3.39318e+09 3.39344e+09 3.39446e+09 3.39596e+09 1 0
345 2 1 3.40714e+09 3.40738e+09 3.4084e+09 3.41615e+09 1 0
346 2 1 3.4262e+09 3.42646e+09 3.42748e+09 3.4288e+09 1 0
347 1 1 3.43589e+09 3.43615e+09 3.43717e+09 3.44775e+09 0 1
348 1 1 3.45324e+09 3.45349e+09 3.45451e+09 3.45452e+09 0 1
349 1 1 3.45748e+09 3.45774e+09 3.45876e+09 3.45887e+09 0 1
350 2 0 3.46404e+09 3.4643e+09 3.46532e+09 3.46664e+09 0 1
351 2 1 3.47144e+09 3.47169e+09 3.47271e+09 3.4733e+09 0 0
352 2 0 3.48044e+09 3.48069e+09 3.48171e+09 3.48364e+09 1 1
353 2 1 3.48624e+09 3.4865e+09 3.48752e+09 3.48752e+09 0 0
354 2 1 3.50096e+09 3.50122e+09 3.50224e+09 3.50516e+09 1 0
355 2 1 3.51255e+09 3.51282e+09 3.51383e+09 3.51392e+09 1 0
356 2 0 3.52311e+09 3.52335e+09 3.52437e+09 3.5273e+09 1 1
357 1 0 3.53046e+09 3.53071e+09 3.53173e+09 3.53191e+09 0 0
358 1 1 3.5408e+09 3.54105e+09 3.54207e+09 3.55038e+09 1 1
359 1 1 3.55331e+09 3.55357e+09 3.55459e+09 3.55507e+09 0 1
360 2 1 3.55759e+09 3.55784e+09 3.55886e+09 3.55887e+09 0 0
361 2 0 3.56778e+09 3.56803e+09 3.56905e+09 3.57108e+09 1 1
362 2 0 3.57414e+09 3.57439e+09 3.57541e+09 3.5755e+09 0 1
363 1 0 3.57844e+09 3.5787e+09 3.57972e+09 3.57982e+09 0 0
364 1 0 3.58951e+09 3.58976e+09 3.59078e+09 3.59293e+09 1 0
365 1 1 3.60038e+09 3.60063e+09 3.60165e+09 3.60399e+09 1 1
366 1 1 3.60696e+09 3.6072e+09 3.60822e+09 3.60836e+09 0 1
367 1 1 3.61582e+09 3.61606e+09 3.61708e+09 3.6182e+09 0 1
368 2 0 3.62539e+09 3.62564e+09 3.62666e+09 3.62726e+09 0 1
369 1 1 3.63719e+09 3.63745e+09 3.63846e+09 3.63948e+09 0 1
370 2 1 3.64325e+09 3.6435e+09 3.64452e+09 3.64517e+09 0 0
371 2 1 3.65269e+09 3.65294e+09 3.65396e+09 3.65475e+09 1 0
372 2 1 3.66189e+09 3.66215e+09 3.66317e+09 3.66548e+09 1 0
373 2 1 3.6739e+09 3.67415e+09 3.67517e+09 3.6816e+09 1 0
374 1 0 3.69027e+09 3.69051e+09 3.69153e+09 3.69635e+09 0 0
375 1 0 3.70361e+09 3.70385e+09 3.70487e+09 3.73342e+09 0 0
376 2 0 3.74097e+09 3.74122e+09 3.74224e+09 3.74237e+09 0 1
377 2 1 3.75472e+09 3.75497e+09 3.75599e+09 3.7573e+09 0 0
378 2 0 3.76477e+09 3.76502e+09 3.76604e+09 3.76905e+09 1 1
379 1 1 3.77332e+09 3.77358e+09 3.7746e+09 3.77506e+09 0 1
380 2 1 3.77772e+09 3.77797e+09 3.77899e+09 3.78391e+09 0 0
381 2 1 3.79142e+09 3.79167e+09 3.79269e+09 3.79695e+09 1 0
382 2 0 3.80408e+09 3.80433e+09 3.80535e+09 3.82686e+09 1 1
383 2 1 3.83223e+09 3.83248e+09 3.8335e+09 3.87883e+09 0 0
384 2 0 3.88628e+09 3.88653e+09 3.88755e+09 3.91073e+09 1 1
385 2 1 3.91424e+09 3.9145e+09 3.91552e+09 3.91649e+09 0 0
386 2 0 3.92376e+09 3.92402e+09 3.92504e+09 3.92638e+09 1 1
387 2 1 3.9337e+09 3.93396e+09 3.93498e+09 3.96472e+09 0 0
388 2 0 3.97196e+09 3.97221e+09 3.97323e+09 4.02055e+09 1 1
389 1 0 4.02972e+09 4.02999e+09 4.03101e+09 4.04252e+09 0 0
390 1 0 4.04957e+09 4.04983e+09 4.05085e+09 4.05472e+09 1 0
391 1 1 4.06179e+09 4.06204e+09 4.06306e+09 4.07183e+09 1 1
392 2 0 4.07793e+09 4.0782e+09 4.07922e+09 4.09904e+09 0 1
393 1 1 4.10257e+09 4.10283e+09 4.10385e+09 4.10704e+09 0 1
394 1 0 4.11201e+09 4.11226e+09 4.11328e+09 4.13583e+09 0 0
395 1 0 4.14332e+09 4.14357e+09 4.14459e+09 4.15123e+09 1 0
396 1 1 4.15953e+09 4.15978e+09 4.1608e+09 4.16247e+09 1 1
397 1 0 4.16679e+09 4.16704e+09 4.16806e+09 4.16838e+09 0 0
398 1 1 4.1758e+09 4.17605e+09 4.17707e+09 4.17934e+09 1 1
399 2 1 4.18218e+09 4.18243e+09 4.18345e+09 4.18686e+09 0 0
400 2 0 4.19397e+09 4.19422e+09 4.19524e+09 4.22338e+09 1 1
401 2 0 4.22925e+09 4.2295e+09 4.23052e+09 4.25649e+09 0 1
402 1 1 4.2596e+09 4.25986e+09 4.26088e+09 4.26302e+09 0 1
403 1 0 4.26834e+09 4.2686e+09 4.26962e+09 4.28154e+09 0 0
404 1 0 4.28885e+09 4.28911e+09 4.29013e+09 4.29488e+09 1 0
405 1 0 7.25198e+06 7.51127e+06 8.53043e+06 9.62034e+06 1 0
406 1 0 1.70332e+07 1.72856e+07 1.83048e+07 2.99189e+07 1 0
407 1 0 3.74897e+07 3.77495e+07 3.87686e+07 4.08483e+07 0 0
408 2 1 4.83943e+07 4.86441e+07 4.96632e+07 6.24487e+07 0 0
409 2 1 6.95818e+07 6.98429e+07 7.08621e+07 1.19688e+08 0 0
410 1 1 1.27e+08 1.2726e+08 1.28279e+08 1.33409e+08 0 1
411 2 1 1.37696e+08 1.37948e+08 1.38967e+08 1.41905e+08 0 0
412 2 0 1.4941e+08 1.49666e+08 1.50685e+08 1.60087e+08 1 1
413 1 1 1.6346e+08 1.63714e+08 1.64734e+08 2.14846e+08 0 1
414 2 0 2.21172e+08 2.21421e+08 2.2244e+08 2.32321e+08 0 1
415 1 0 2.36428e+08 2.36675e+08 2.37694e+08 2.43486e+08 0 0
416 1 0 2.50825e+08 2.51079e+08 2.52099e+08 2.60858e+08 1 0
417 1 0 2.68117e+08 2.68374e+08 2.69393e+08 2.7408e+08 1 0
418 1 0 2.81238e+08 2.81486e+08 2.82505e+08 3.03971e+08 1 0
419 2 0 3.11338e+08 3.11596e+08 3.12615e+08 3.15562e+08 0 1
420 1 0 3.22931e+08 3.23179e+08 3.24199e+08 3.30608e+08 0 0
421 1 0 3.37886e+08 3.38131e+08 3.3915e+08 3.39364e+08 1 0
422 1 1 3.46851e+08 3.47102e+08 3.48121e+08 3.51383e+08 1 1
423 1 1 3.54094e+08 3.54346e+08 3.55365e+08 3.57113e+08 0 1
424 2 1 3.59913e+08 3.60162e+08 3.61181e+08 3.61425e+08 0 0
425 2 0 3.68525e+08 3.6877e+08 3.69789e+08 3.69928e+08 1 1
426 1 0 3.73255e+08 3.73508e+08 3.74527e+08 3.82257e+08 0 0
427 1 0 3.89384e+08 3.89634e+08 3.90653e+08 3.93476e+08 1 0
428 1 0 4.00758e+08 4.01013e+08 4.02032e+08 4.02839e+08 1 0
429 1 0 4.10321e+08 4.10587e+08 4.11606e+08 4.14445e+08 1 0
430 2 0 4.21538e+08 4.21783e+08 4.22802e+08 4.2356e+08 0 1
431 1 0 4.26982e+08 4.27228e+08 4.28248e+08 4.4568e+08 0 0
432 1 0 4.56007e+08 4.56251e+08 4.57271e+08 4.63849e+08 1 0
433 1 1 4.71094e+08 4.71344e+08 4.72363e+08 4.82449e+08 1 1
434 1 0 4.86568e+08 4.86821e+08 4.8784e+08 5.02131e+08 0 0
435 1 1 5.09591e+08 5.09844e+08 5.10863e+08 5.24742e+08 1 1
436 2 0 5.27542e+08 5.27799e+08 5.28818e+08 5.5768e+08 0 1
437 2 0 5.61054e+08 5.61313e+08 5.62333e+08 5.67826e+08 0 1
438 2 0 5.72011e+08 5.72264e+08 5.73283e+08 5.79614e+08 0 1
439 1 0 5.83327e+08 5.83569e+08 5.84589e+08 6.09893e+08 0 0
440 1 0 6.1696e+08 6.17212e+08 6.18231e+08 6.2376e+08 1 0
441 1 0 6.30808e+08 6.31075e+08 6.32094e+08 6.35632e+08 1 0
442 1 1 6.4295e+08 6.43202e+08 6.44221e+08 6.49695e+08 1 1
443 2 0 6.54817e+08 6.55073e+08 6.56092e+08 6.69417e+08 0 1
444 2 0 6.73668e+08 6.7393e+08 6.74949e+08 6.82055e+08 0 1
445 1 0 6.84703e+08 6.84949e+08 6.85969e+08 6.8922e+08 0 0
446 1 0 6.96308e+08 6.96559e+08 6.97578e+08 7.03589e+08 1 0
447 1 0 7.10939e+08 7.1119e+08 7.1221e+08 7.3805e+08 1 0
448 1 0 7.45289e+08 7.45549e+08 7.46568e+08 7.47041e+08 1 0
449 1 0 7.54648e+08 7.54906e+08 7.55925e+08 7.64735e+08 0 0
450 1 0 7.71842e+08 7.72089e+08 7.73108e+08 7.80493e+08 0 0
451 1 0 7.87785e+08 7.88027e+08 7.89046e+08 7.92549e+08 0 0
452 1 0 7.99805e+08 8.0006e+08 8.01079e+08 8.01352e+08 0 0
453 2 0 8.11578e+08 8.11824e+08 8.12843e+08 8.21185e+08 0 1
454 2 1 8.23796e+08 8.24048e+08 8.25067e+08 8.33272e+08 0 0
455 2 0 8.40368e+08 8.40618e+08 8.41637e+08 8.45661e+08 1 1
456 1 0 8.48256e+08 8.48514e+08 8.49533e+08 8.55476e+08 0 0
457 1 1 8.62975e+08 8.63226e+08 8.64245e+08 8.6613e+08 1 1
458 2 0 8.6889e+08 8.69148e+08 8.70167e+08 8.77755e+08 0 1
459 1 1 8.81384e+08 8.81644e+08 8.82664e+08 8.86481e+08 0 1
460 2 0 8.89353e+08 8.89609e+08 8.90628e+08 8.94556e+08 0 1
461 1 0 8.97385e+08 8.9765e+08 8.98669e+08 9.02335e+08 0 0
462 1 0 9.09511e+08 9.09762e+08 9.10781e+08 9.1522e+08 1 0
463 1 0 9.22673e+08 9.22923e+08 9.23943e+08 9.2746e+08 1 0
464 1 0 9.34687e+08 9.34943e+08 9.35962e+08 9.39652e+08 1 0
465 2 1 9.48061e+08 9.48311e+08 9.4933e+08 9.49479e+08 0 0
466 1 0 9.58496e+08 9.58747e+08 9.59767e+08 9.63005e+08 0 0
467 2 0 9.70264e+08 9.70521e+08 9.71541e+08 9.73006e+08 0 1
468 2 0 9.75811e+08 9.76065e+08 9.77084e+08 9.78308e+08 0 1
469 1 1 9.81492e+08 9.81738e+08 9.82757e+08 9.88114e+08 0 1
470 2 1 9.90801e+08 9.9106e+08 9.92079e+08 9.94732e+08 0 0
471 2 1 1.0019e+09 1.00214e+09 1.00316e+09 1.02343e+09 1 0
472 2 0 1.03047e+09 1.03072e+09 1.03174e+09 1.05216e+09 1 1
473 1 1 1.05586e+09 1.05611e+09 1.05713e+09 1.05897e+09 0 1
474 1 0 1.06182e+09 1.06207e+09 1.06309e+09 1.07348e+09 0 0
475 1 0 1.08083e+09 1.08109e+09 1.0821e+09 1.09352e+09 1 0
476 1 0 1.10104e+09 1.10129e+09 1.10231e+09 1.10692e+09 1 0
477 1 0 1.1144e+09 1.11466e+09 1.11568e+09 1.12157e+09 1 0
478 2 0 1.12903e+09 1.12929e+09 1.13031e+09 1.14407e+09 0 1
479 2 0 1.14843e+09 1.1487e+09 1.14972e+09 1.17319e+09 0 1
480 1 0 1.18008e+09 1.18033e+09 1.18135e+09 1.18672e+09 0 0
481 1 1 1.19484e+09 1.19509e+09 1.19611e+09 1.19908e+09 1 1
482 1 1 1.20222e+09 1.20248e+09 1.2035e+09 1.20683e+09 0 1
483 1 0 1.20965e+09 1.2099e+09 1.21092e+09 1.21346e+09 0 0
484 1 0 1.22093e+09 1.22119e+09 1.22221e+09 1.22223e+09 1 0
485 1 1 1.22951e+09 1.22977e+09 1.23079e+09 1.23689e+09 1 1
486 1 0 1.23961e+09 1.23987e+09 1.24089e+09 1.247e+09 0 0
487 1 0 1.2542e+09 1.25444e+09 1.25546e+09 1.26091e+09 1 0
488 1 1 1.2683e+09 1.26854e+09 1.26956e+09 1.27258e+09 1 1
489 1 1 1.27541e+09 1.27566e+09 1.27668e+09 1.27669e+09 0 1
490 2 0 1.27958e+09 1.27985e+09 1.28087e+09 1.28546e+09 0 1
491 2 1 1.28883e+09 1.28909e+09 1.29011e+09 1.29048e+09 0 0
492 2 0 1.29761e+09 1.29786e+09 1.29888e+09 1.29889e+09 1 1
493 2 0 1.3026e+09 1.30286e+09 1.30388e+09 1.30504e+09 0 1
494 1 0 1.3077e+09 1.30795e+09 1.30897e+09 1.31703e+09 0 0
495 1 0 1.32415e+09 1.32441e+09 1.32543e+09 1.32962e+09 1 0
496 1 0 1.33701e+09 1.33726e+09 1.33828e+09 1.3445e+09 1 0
497 1 0 1.35189e+09 1.35214e+09 1.35316e+09 1.35485e+09 1 0
498 1 0 1.36237e+09 1.36262e+09 1.36364e+09 1.36691e+09 0 0
499 2 0 1.37421e+09 1.37447e+09 1.37549e+09 1.38097e+09 0 1
500 2 0 1.38389e+09 1.38415e+09 1.38517e+09 1.38737e+09 0 1
501 1 0 1.39173e+09 1.39198e+09 1.393e+09 1.39756e+09 0 0
502 1 0 1.4047e+09 1.40496e+09 1.40597e+09 1.40826e+09 1 0
503 1 0 1.41759e+09 1.41783e+09 1.41885e+09 1.42637e+09 1 0
504 1 0 1.43357e+09 1.43384e+09 1.43486e+09 1.43952e+09 1 0
505 2 0 1.44683e+09 1.44708e+09 1.4481e+09 1.46957e+09 0 1
506 1 1 1.47227e+09 1.47252e+09 1.47354e+09 1.47388e+09 0 1
507 2 1 1.4779e+09 1.47816e+09 1.47918e+09 1.48612e+09 0 0
508 2 0 1.49457e+09 1.49483e+09 1.49585e+09 1.5094e+09 1 1
509 1 0 1.51204e+09 1.51229e+09 1.51331e+09 1.53301e+09 0 0
510 1 0 1.54411e+09 1.54436e+09 1.54538e+09 1.54902e+09 1 0
511 1 1 1.55621e+09 1.55646e+09 1.55748e+09 1.55883e+09 1 1
512 1 0 1.56184e+09 1.5621e+09 1.56312e+09 1.56643e+09 0 0
513 1 1 1.5736e+09 1.57385e+09 1.57487e+09 1.57994e+09 1 1
514 2 0 1.58453e+09 1.58479e+09 1.58581e+09 1.60172e+09 0 1
515 1 1 1.60639e+09 1.60664e+09 1.60766e+09 1.62023e+09 0 1
516 2 1 1.62282e+09 1.62306e+09 1.62408e+09 1.63669e+09 0 0
517 2 1 1.64381e+09 1.64407e+09 1.64508e+09 1.6619e+09 1 0
518 2 0 1.66898e+09 1.66923e+09 1.67025e+09 1.6856e+09 1 1
519 2 0 1.68835e+09 1.6886e+09 1.68962e+09 1.69792e+09 0 1
520 2 0 1.70111e+09 1.70136e+09 1.70238e+09 1.70725e+09 0 1
521 2 0 1.71008e+09 1.71034e+09 1.71135e+09 1.71886e+09 0 1
522 2 0 1.72403e+09 1.72428e+09 1.7253e+09 1.72799e+09 0 1
523 1 0 1.73097e+09 1.73122e+09 1.73224e+09 1.73267e+09 0 0
524 1 0 1.73972e+09 1.73998e+09 1.741e+09 1.74341e+09 1 0
525 1 0 1.75045e+09 1.7507e+09 1.75172e+09 1.75681e+09 1 0
526 1 0 1.76386e+09 1.76411e+09 1.76513e+09 1.77394e+09 1 0
527 2 0 1.78145e+09 1.7817e+09 1.78272e+09 1.79033e+09 0 1
528 1 0 1.79297e+09 1.79322e+09 1.79424e+09 1.80707e+09 0 0
529 1 0 1.8142e+09 1.81446e+09 1.81548e+09 1.81857e+09 1 0
530 1 1 1.82576e+09 1.82601e+09 1.82703e+09 1.82749e+09 1 1
531 1 0 1.83165e+09 1.8319e+09 1.83292e+09 1.83812e+09 0 0
532 1 1 1.84547e+09 1.84572e+09 1.84674e+09 1.85304e+09 1 1
533 1 0 1.85712e+09 1.85736e+09 1.85838e+09 1.86133e+09 0 0
534 1 0 1.87143e+09 1.87168e+09 1.8727e+09 1.90191e+09 1 0
535 1 0 1.90922e+09 1.90947e+09 1.91049e+09 1.91313e+09 1 0
536 1 1 1.92018e+09 1.92043e+09 1.92145e+09 1.9648e+09 1 1
537 1 0 1.96756e+09 1.96782e+09 1.96884e+09 1.9837e+09 0 0
538 1 0 1.99095e+09 1.99121e+09 1.99223e+09 2.01182e+09 1 0
539 1 0 2.01983e+09 2.02009e+09 2.02111e+09 2.02114e+09 1 0
540 1 0 2.02866e+09 2.0289e+09 2.02992e+09 2.04439e+09 1 0
541 2 0 2.05175e+09 2.05201e+09 2.05303e+09 2.05763e+09 0 1
542 2 0 2.06038e+09 2.06064e+09 2.06165e+09 2.07546e+09 0 1
543 2 0 2.07871e+09 2.07897e+09 2.07999e+09 2.08339e+09 0 1
544 1 1 2.08659e+09 2.08684e+09 2.08786e+09 2.10789e+09 0 1
545 2 0 2.11085e+09 2.1111e+09 2.11212e+09 2.13227e+09 0 1
546 2 0 2.1391e+09 2.13936e+09 2.14038e+09 2.17203e+09 0 1
547 1 0 2.1746e+09 2.17486e+09 2.17588e+09 2.19118e+09 0 0
548 1 0 2.2022e+09 2.20245e+09 2.20347e+09 2.21213e+09 1 0
549 1 0 2.21929e+09 2.21955e+09 2.22057e+09 2.22156e+09 1 0
550 1 0 2.22898e+09 2.22923e+09 2.23025e+09 2.26047e+09 1 0
551 2 1 2.26881e+09 2.26905e+09 2.27007e+09 2.27416e+09 0 0
552 1 0 2.28168e+09 2.28194e+09 2.28295e+09 2.30758e+09 0 0
553 2 0 2.31585e+09 2.3161e+09 2.31712e+09 2.33364e+09 0 1
554 1 0 2.33643e+09 2.33669e+09 2.33771e+09 2.35181e+09 0 0
555 1 0 2.35891e+09 2.35917e+09 2.36018e+09 2.36425e+09 1 0
556 1 0 2.37144e+09 2.37169e+09 2.37271e+09 2.38131e+09 1 0
557 1 0 2.38881e+09 2.38907e+09 2.39009e+09 2.39264e+09 1 0
558 1 1 2.39975e+09 2.40001e+09 2.40103e+09 2.41044e+09 0 1
559 2 0 2.41372e+09 2.41397e+09 2.41499e+09 2.42877e+09 0 1
560 1 0 2.43327e+09 2.43352e+09 2.43454e+09 2.44719e+09 0 0
561 1 0 2.45443e+09 2.45467e+09 2.45569e+09 2.45866e+09 1 0
562 1 1 2.46595e+09 2.4662e+09 2.46722e+09 2.47474e+09 1 1
563 2 1 2.4775e+09 2.47775e+09 2.47876e+09 2.48182e+09 0 0
564 2 0 2.4891e+09 2.48934e+09 2.49036e+09 2.62995e+09 1 1
