trial trialType response stillTime stimOnset stimOffset respTime correctionTrial correct
001 1 0 6.91508e+06 7.24469e+06 8.26383e+06 1.42e+07 0 0
002 1 0 2.14846e+07 2.17607e+07 2.27798e+07 2.35961e+07 1 0
003 1 1 3.07067e+07 3.09831e+07 3.20022e+07 3.20637e+07 1 1
004 5 0 3.99626e+07 4.02429e+07 4.1262e+07 4.32806e+07 0 1
005 1 0 4.62602e+07 4.65286e+07 4.75478e+07 5.55241e+07 0 0
006 1 1 6.38628e+07 6.41154e+07 6.51346e+07 7.0981e+07 1 1
007 1 1 7.35857e+07 7.38558e+07 7.4875e+07 7.97006e+07 0 1
008 2 1 8.26389e+07 8.28954e+07 8.39145e+07 8.39342e+07 0 99
009 3 1 8.79319e+07 8.81857e+07 8.92048e+07 8.93213e+07 0 99
010 5 1 9.20269e+07 9.2299e+07 9.33181e+07 9.42909e+07 0 0
011 5 0 1.01804e+08 1.02067e+08 1.03086e+08 1.04733e+08 1 1
012 5 1 1.07317e+08 1.07587e+08 1.08606e+08 1.0913e+08 0 0
013 5 0 1.17948e+08 1.18216e+08 1.19235e+08 1.19385e+08 1 1
014 5 1 1.21931e+08 1.22187e+08 1.23206e+08 1.2432e+08 0 0
015 5 1 1.31679e+08 1.31933e+08 1.32952e+08 1.36899e+08 1 0
016 5 0 1.45621e+08 1.45887e+08 1.46906e+08 1.47584e+08 1 1
017 4 1 1.50472e+08 1.5073e+08 1.51749e+08 1.54242e+08 0 99
018 3 1 1.57089e+08 1.57351e+08 1.5837e+08 1.60722e+08 0 99
019 5 1 1.66716e+08 1.66989e+08 1.68008e+08 1.68021e+08 0 0
020 5 0 1.76421e+08 1.76686e+08 1.77705e+08 1.78292e+08 1 1
021 1 1 1.80897e+08 1.81171e+08 1.82191e+08 1.85668e+08 0 1
022 1 0 1.88644e+08 1.88924e+08 1.89943e+08 1.90139e+08 0 0
023 1 1 2.02908e+08 2.03174e+08 2.04194e+08 2.047e+08 1 1
024 1 0 2.07523e+08 2.07787e+08 2.08806e+08 2.0981e+08 0 0
025 1 1 2.18932e+08 2.19185e+08 2.20204e+08 2.20232e+08 1 1
026 5 0 2.23124e+08 2.23376e+08 2.24396e+08 2.26557e+08 0 1
027 5 1 2.29671e+08 2.2993e+08 2.30949e+08 2.31162e+08 0 0
028 5 0 2.40365e+08 2.4062e+08 2.4164e+08 2.41691e+08 1 1
029 5 0 2.44248e+08 2.4452e+08 2.45539e+08 2.46885e+08 0 1
030 1 1 2.52544e+08 2.528e+08 2.53819e+08 2.53827e+08 0 1
031 5 0 2.58034e+08 2.58288e+08 2.59307e+08 2.6155e+08 0 1
032 1 1 2.64219e+08 2.64487e+08 2.65506e+08 2.65528e+08 0 1
033 5 0 2.72015e+08 2.72284e+08 2.73303e+08 2.7374e+08 0 1
034 1 1 2.76381e+08 2.76645e+08 2.77665e+08 2.77679e+08 0 1
035 1 0 2.8091e+08 2.81168e+08 2.82187e+08 2.83095e+08 0 0
036 1 1 2.93193e+08 2.93446e+08 2.94465e+08 2.94482e+08 1 1
037 5 0 2.98626e+08 2.98881e+08 2.999e+08 2.99991e+08 0 1
038 1 1 3.02679e+08 3.0295e+08 3.03969e+08 3.04196e+08 0 1
039 1 1 3.11221e+08 3.11493e+08 3.12512e+08 3.12518e+08 0 1
040 1 1 3.17543e+08 3.17801e+08 3.1882e+08 3.18828e+08 0 1
041 1 0 3.21846e+08 3.221e+08 3.2312e+08 3.24145e+08 0 0
042 1 1 3.36869e+08 3.37142e+08 3.38161e+08 3.38173e+08 1 1
043 3 1 3.41262e+08 3.41519e+08 3.42538e+08 3.43673e+08 0 99
044 1 1 3.49006e+08 3.49266e+08 3.50286e+08 3.50294e+08 0 1
045 1 1 3.55096e+08 3.55353e+08 3.56372e+08 3.56654e+08 0 1
046 5 1 3.59199e+08 3.59465e+08 3.60484e+08 3.63924e+08 0 0
047 5 0 3.71237e+08 3.71497e+08 3.72516e+08 3.72999e+08 1 1
048 1 1 3.77189e+08 3.77448e+08 3.78467e+08 3.78489e+08 0 1
049 1 0 3.81507e+08 3.81765e+08 3.82784e+08 3.84727e+08 0 0
050 1 0 3.9554e+08 3.95806e+08 3.96825e+08 3.97153e+08 1 0
051 1 0 4.05898e+08 4.0616e+08 4.07179e+08 4.10281e+08 1 0
052 1 1 4.1926e+08 4.19534e+08 4.20553e+08 4.24167e+08 1 1
053 4 0 4.26848e+08 4.27116e+08 4.28135e+08 4.31675e+08 0 99
054 4 0 4.34536e+08 4.348e+08 4.35819e+08 4.37172e+08 0 99
055 4 0 4.42475e+08 4.42727e+08 4.43746e+08 4.43824e+08 0 99
056 3 1 4.46364e+08 4.46627e+08 4.47646e+08 4.47668e+08 0 99
057 1 0 4.50503e+08 4.50762e+08 4.51781e+08 4.5245e+08 0 0
058 1 0 4.59964e+08 4.60227e+08 4.61246e+08 4.61288e+08 1 0
059 1 0 4.68738e+08 4.69002e+08 4.70022e+08 4.73206e+08 1 0
060 1 1 4.80463e+08 4.80717e+08 4.81737e+08 4.83194e+08 1 1
061 2 0 4.86157e+08 4.86426e+08 4.87445e+08 4.88246e+08 0 99
062 5 0 4.93719e+08 4.93972e+08 4.94991e+08 4.97916e+08 0 1
063 2 1 5.04528e+08 5.04795e+08 5.05814e+08 5.05882e+08 0 99
064 5 0 5.10179e+08 5.10445e+08 5.11464e+08 5.14364e+08 0 1
065 1 1 5.17272e+08 5.17533e+08 5.18552e+08 5.18571e+08 0 1
066 5 1 5.22114e+08 5.22365e+08 5.23384e+08 5.26269e+08 0 0
067 5 1 5.33346e+08 5.33597e+08 5.34616e+08 5.34689e+08 1 0
068 5 0 5.4282e+08 5.43078e+08 5.44097e+08 5.48683e+08 1 1
069 1 1 5.51434e+08 5.51697e+08 5.52716e+08 5.52772e+08 0 1
070 5 1 5.59316e+08 5.59578e+08 5.60597e+08 5.63337e+08 0 0
071 5 0 5.71546e+08 5.71803e+08 5.72822e+08 5.75675e+08 1 1
072 5 0 5.78417e+08 5.78668e+08 5.79687e+08 5.8218e+08 0 1
073 3 1 5.84804e+08 5.85076e+08 5.86095e+08 5.86109e+08 0 99
074 5 0 5.89277e+08 5.89537e+08 5.90557e+08 5.9081e+08 0 1
075 1 0 5.93432e+08 5.93691e+08 5.9471e+08 5.94929e+08 0 0
076 1 1 6.04433e+08 6.04686e+08 6.05705e+08 6.05766e+08 1 1
077 5 0 6.08763e+08 6.09014e+08 6.10033e+08 6.16277e+08 0 1
078 5 0 6.20757e+08 6.21018e+08 6.22037e+08 6.22657e+08 0 1
079 2 1 6.27687e+08 6.27943e+08 6.28962e+08 6.29096e+08 0 99
080 1 1 6.34029e+08 6.34281e+08 6.353e+08 6.36169e+08 0 1
081 5 0 6.40589e+08 6.40839e+08 6.41858e+08 6.4625e+08 0 1
082 2 1 6.49528e+08 6.49783e+08 6.50802e+08 6.51963e+08 0 99
083 5 0 6.60817e+08 6.61072e+08 6.62091e+08 6.62292e+08 0 1
084 5 0 6.74373e+08 6.74636e+08 6.75655e+08 6.78088e+08 0 1
085 5 0 6.81092e+08 6.81357e+08 6.82376e+08 6.84215e+08 0 1
086 5 0 6.8695e+08 6.87219e+08 6.88238e+08 6.95256e+08 0 1
087 1 1 6.97874e+08 6.98134e+08 6.99154e+08 6.99217e+08 0 1
088 4 0 7.02214e+08 7.0248e+08 7.03499e+08 7.06633e+08 0 99
089 1 1 7.10992e+08 7.11251e+08 7.12271e+08 7.12421e+08 0 1
090 1 1 7.15154e+08 7.15409e+08 7.16429e+08 7.21162e+08 0 1
091 1 1 7.26978e+08 7.27236e+08 7.28255e+08 7.289e+08 0 1
092 1 1 7.31715e+08 7.31971e+08 7.3299e+08 7.37926e+08 0 1
093 5 0 7.40935e+08 7.41192e+08 7.42211e+08 7.47963e+08 0 1
094 3 0 7.53335e+08 7.53601e+08 7.5462e+08 7.60119e+08 0 99
095 2 0 7.62857e+08 7.63113e+08 7.64132e+08 7.64325e+08 0 99
096 5 0 7.67906e+08 7.68161e+08 7.69181e+08 7.70993e+08 0 1
097 2 1 7.7399e+08 7.74247e+08 7.75266e+08 7.75275e+08 0 99
098 1 1 7.83212e+08 7.83473e+08 7.84492e+08 7.85831e+08 0 1
099 1 1 7.88645e+08 7.88898e+08 7.89917e+08 7.90001e+08 0 1
100 3 1 7.93096e+08 7.93355e+08 7.94374e+08 7.94386e+08 0 99
101 1 0 8.02422e+08 8.02677e+08 8.03696e+08 8.03739e+08 0 0
102 1 0 8.11328e+08 8.1159e+08 8.12609e+08 8.1265e+08 1 0
103 1 0 8.19738e+08 8.19994e+08 8.21013e+08 8.26497e+08 1 0
104 1 1 8.33626e+08 8.33894e+08 8.34913e+08 8.35963e+08 1 1
105 5 0 8.38684e+08 8.3894e+08 8.39959e+08 8.40194e+08 0 1
106 4 0 8.43329e+08 8.43589e+08 8.44608e+08 8.45072e+08 0 99
107 1 1 8.47898e+08 8.48158e+08 8.49177e+08 8.49182e+08 0 1
108 1 1 8.5194e+08 8.52209e+08 8.53228e+08 8.57375e+08 0 1
109 3 0 8.60145e+08 8.60414e+08 8.61433e+08 8.68813e+08 0 99
110 5 0 8.73083e+08 8.73338e+08 8.74357e+08 8.78598e+08 0 1
111 5 0 8.81719e+08 8.8199e+08 8.83009e+08 8.83569e+08 0 1
112 5 1 8.86424e+08 8.86678e+08 8.87697e+08 8.90247e+08 0 0
113 5 0 8.9764e+08 8.97892e+08 8.98911e+08 9.00749e+08 1 1
114 5 0 9.03796e+08 9.04062e+08 9.05081e+08 9.06418e+08 0 1
115 5 0 9.09525e+08 9.09791e+08 9.1081e+08 9.18346e+08 0 1
116 4 0 9.23246e+08 9.23502e+08 9.24521e+08 9.2616e+08 0 99
117 5 0 9.30548e+08 9.30803e+08 9.31822e+08 9.33162e+08 0 1
118 2 1 9.36369e+08 9.36633e+08 9.37652e+08 9.37699e+08 0 99
119 1 1 9.40862e+08 9.41127e+08 9.42146e+08 9.42152e+08 0 1
120 5 0 9.45233e+08 9.45492e+08 9.46511e+08 9.50121e+08 0 1
121 1 0 9.53061e+08 9.53328e+08 9.54347e+08 9.55061e+08 0 0
122 1 1 9.62223e+08 9.62496e+08 9.63515e+08 9.63626e+08 1 1
123 5 0 9.66779e+08 9.67034e+08 9.68053e+08 9.69426e+08 0 1
124 5 0 9.74688e+08 9.74957e+08 9.75976e+08 9.77007e+08 0 1
125 1 1 9.80644e+08 9.80911e+08 9.8193e+08 9.81996e+08 0 1
126 4 0 9.85203e+08 9.85465e+08 9.86484e+08 9.93549e+08 0 99
127 5 0 1.00109e+09 1.00135e+09 1.00237e+09 1.00444e+09 0 1
128 1 1 1.00822e+09 1.00848e+09 1.0095e+09 1.00953e+09 0 1
129 1 0 1.01326e+09 1.01352e+09 1.01454e+09 1.01575e+09 0 0
130 1 1 1.02801e+09 1.02826e+09 1.02928e+09 1.0296e+09 1 1
131 5 0 1.03345e+09 1.03372e+09 1.03474e+09 1.03535e+09 0 1
132 5 0 1.03879e+09 1.03905e+09 1.04007e+09 1.04106e+09 0 1
133 5 0 1.04425e+09 1.04451e+09 1.04553e+09 1.04597e+09 0 1
134 2 1 1.05351e+09 1.05376e+09 1.05478e+09 1.05491e+09 0 99
135 5 1 1.06515e+09 1.0654e+09 1.06642e+09 1.06656e+09 0 0
136 5 0 1.07466e+09 1.07492e+09 1.07594e+09 1.07765e+09 1 1
137 4 0 1.08583e+09 1.08609e+09 1.0871e+09 1.08736e+09 0 99
138 1 0 1.09137e+09 1.09162e+09 1.09264e+09 1.09268e+09 0 0
139 1 0 1.09996e+09 1.10021e+09 1.10123e+09 1.1024e+09 1 0
140 1 1 1.11076e+09 1.11102e+09 1.11204e+09 1.11259e+09 1 1
141 3 0 1.11578e+09 1.11603e+09 1.11705e+09 1.11706e+09 0 99
142 3 0 1.12095e+09 1.12121e+09 1.12223e+09 1.12291e+09 0 99
143 5 1 1.12774e+09 1.12801e+09 1.12903e+09 1.13241e+09 0 0
144 5 0 1.14529e+09 1.14555e+09 1.14657e+09 1.14939e+09 1 1
145 1 1 1.15331e+09 1.15357e+09 1.15459e+09 1.15498e+09 0 1
146 5 0 1.15824e+09 1.15851e+09 1.15953e+09 1.16618e+09 0 1
147 5 0 1.17356e+09 1.17381e+09 1.17483e+09 1.17487e+09 0 1
148 1 0 1.178e+09 1.17826e+09 1.17928e+09 1.18443e+09 0 0
149 1 1 1.19286e+09 1.19311e+09 1.19413e+09 1.19427e+09 1 1
150 1 1 1.20311e+09 1.20337e+09 1.20439e+09 1.20465e+09 0 1
151 2 1 1.20803e+09 1.20829e+09 1.20931e+09 1.20934e+09 0 99
152 1 0 1.21318e+09 1.21344e+09 1.21446e+09 1.21934e+09 0 0
153 1 0 1.22724e+09 1.22749e+09 1.22851e+09 1.23234e+09 1 0
154 1 0 1.24069e+09 1.24094e+09 1.24196e+09 1.24352e+09 1 0
155 1 1 1.25061e+09 1.25087e+09 1.25189e+09 1.25217e+09 1 1
156 1 1 1.25551e+09 1.25577e+09 1.25679e+09 1.2568e+09 0 1
157 1 0 1.26029e+09 1.26054e+09 1.26156e+09 1.26247e+09 0 0
158 1 0 1.27026e+09 1.27053e+09 1.27155e+09 1.27635e+09 1 0
159 1 0 1.28499e+09 1.28525e+09 1.28627e+09 1.28841e+09 1 0
160 1 1 1.29557e+09 1.29583e+09 1.29685e+09 1.29689e+09 1 1
161 5 0 1.30045e+09 1.30071e+09 1.30173e+09 1.30371e+09 0 1
162 1 0 1.307e+09 1.30726e+09 1.30828e+09 1.30879e+09 0 0
163 1 1 1.31628e+09 1.31654e+09 1.31756e+09 1.31778e+09 1 1
164 1 1 1.32232e+09 1.32258e+09 1.3236e+09 1.32363e+09 0 1
165 1 0 1.32721e+09 1.32748e+09 1.32849e+09 1.32878e+09 0 0
166 1 1 1.33595e+09 1.33621e+09 1.33723e+09 1.33724e+09 1 1
167 3 1 1.34044e+09 1.3407e+09 1.34172e+09 1.34398e+09 0 99
168 4 0 1.34793e+09 1.34819e+09 1.34921e+09 1.3495e+09 0 99
169 5 1 1.35942e+09 1.35968e+09 1.3607e+09 1.36397e+09 0 0
170 5 0 1.37176e+09 1.37201e+09 1.37303e+09 1.3732e+09 1 1
171 5 0 1.3767e+09 1.37696e+09 1.37798e+09 1.38016e+09 0 1
172 5 0 1.38514e+09 1.38539e+09 1.38641e+09 1.38645e+09 0 1
173 4 0 1.39005e+09 1.3903e+09 1.39132e+09 1.39589e+09 0 99
174 1 0 1.39942e+09 1.3997e+09 1.40072e+09 1.40345e+09 0 0
175 1 1 1.41566e+09 1.41591e+09 1.41693e+09 1.41695e+09 1 1
176 1 0 1.42025e+09 1.42052e+09 1.42154e+09 1.42294e+09 0 0
177 1 0 1.43015e+09 1.43041e+09 1.43143e+09 1.43185e+09 1 0
178 1 1 1.43929e+09 1.43957e+09 1.44059e+09 1.44063e+09 1 1
179 2 1 1.44395e+09 1.44422e+09 1.44524e+09 1.44524e+09 0 99
180 1 0 1.44888e+09 1.44914e+09 1.45016e+09 1.45095e+09 0 0
181 1 0 1.4582e+09 1.45845e+09 1.45947e+09 1.46195e+09 1 0
182 1 0 1.46914e+09 1.46939e+09 1.47041e+09 1.47565e+09 1 0
183 1 0 1.48476e+09 1.48502e+09 1.48603e+09 1.48837e+09 1 0
184 5 0 1.49576e+09 1.49602e+09 1.49703e+09 1.49725e+09 0 1
185 5 0 1.50094e+09 1.5012e+09 1.50222e+09 1.50318e+09 0 1
186 5 0 1.50674e+09 1.507e+09 1.50802e+09 1.51063e+09 0 1
187 3 0 1.51406e+09 1.51432e+09 1.51534e+09 1.51824e+09 0 99
188 2 1 1.52188e+09 1.52213e+09 1.52315e+09 1.52325e+09 0 99
189 1 1 1.52684e+09 1.5271e+09 1.52812e+09 1.53285e+09 0 1
190 4 0 1.53646e+09 1.53671e+09 1.53773e+09 1.54106e+09 0 99
191 1 1 1.54477e+09 1.54504e+09 1.54606e+09 1.54622e+09 0 1
192 4 0 1.55035e+09 1.55063e+09 1.55165e+09 1.57011e+09 0 99
193 5 0 1.5738e+09 1.57406e+09 1.57508e+09 1.57848e+09 0 1
194 4 0 1.5822e+09 1.58247e+09 1.58349e+09 1.58825e+09 0 99
195 5 0 1.59276e+09 1.59302e+09 1.59404e+09 1.59493e+09 0 1
196 1 1 1.59877e+09 1.59902e+09 1.60004e+09 1.60005e+09 0 1
197 1 0 1.60372e+09 1.60399e+09 1.60501e+09 1.61198e+09 0 0
198 1 1 1.62136e+09 1.62162e+09 1.62263e+09 1.62264e+09 1 1
199 5 0 1.62646e+09 1.62671e+09 1.62773e+09 1.62842e+09 0 1
200 1 1 1.63183e+09 1.63208e+09 1.6331e+09 1.63338e+09 0 1
201 2 1 1.63701e+09 1.63727e+09 1.63829e+09 1.63844e+09 0 99
202 1 0 1.64294e+09 1.64319e+09 1.64421e+09 1.64488e+09 0 0
203 1 1 1.65237e+09 1.65262e+09 1.65364e+09 1.65365e+09 1 1
204 5 0 1.65746e+09 1.65773e+09 1.65874e+09 1.66176e+09 0 1
205 5 0 1.66525e+09 1.6655e+09 1.66652e+09 1.6679e+09 0 1
206 5 0 1.67255e+09 1.67282e+09 1.67384e+09 1.6749e+09 0 1
207 2 1 1.68039e+09 1.68066e+09 1.68168e+09 1.68176e+09 0 99
208 5 0 1.68632e+09 1.68658e+09 1.6876e+09 1.68761e+09 0 1
209 1 1 1.69162e+09 1.69188e+09 1.6929e+09 1.6959e+09 0 1
210 1 1 1.69974e+09 1.7e+09 1.70102e+09 1.7016e+09 0 1
211 3 1 1.70812e+09 1.70839e+09 1.7094e+09 1.70963e+09 0 99
212 1 1 1.71404e+09 1.7143e+09 1.71532e+09 1.71536e+09 0 1
213 5 0 1.72256e+09 1.72282e+09 1.72384e+09 1.72415e+09 0 1
214 5 0 1.72823e+09 1.72849e+09 1.72951e+09 1.73146e+09 0 1
215 2 1 1.73556e+09 1.73582e+09 1.73684e+09 1.73686e+09 0 99
216 1 0 1.74169e+09 1.74195e+09 1.74297e+09 1.74752e+09 0 0
217 1 1 1.75743e+09 1.75769e+09 1.75871e+09 1.75872e+09 1 1
218 3 0 1.76231e+09 1.76257e+09 1.76359e+09 1.76362e+09 0 99
219 1 0 1.76817e+09 1.76842e+09 1.76944e+09 1.7736e+09 0 0
220 1 1 1.78186e+09 1.78212e+09 1.78314e+09 1.78316e+09 1 1
221 1 0 1.78693e+09 1.78719e+09 1.78821e+09 1.78945e+09 0 0
222 1 1 1.79752e+09 1.79777e+09 1.79879e+09 1.7988e+09 1 1
223 5 0 1.80256e+09 1.80283e+09 1.80385e+09 1.80617e+09 0 1
224 1 0 1.8101e+09 1.81036e+09 1.81138e+09 1.81314e+09 0 0
225 1 0 1.82326e+09 1.82352e+09 1.82454e+09 1.82557e+09 1 0
226 1 0 1.83284e+09 1.83309e+09 1.83411e+09 1.83742e+09 1 0
227 1 0 1.84451e+09 1.84477e+09 1.84579e+09 1.8458e+09 1 0
228 5 0 1.85352e+09 1.85378e+09 1.8548e+09 1.86459e+09 0 1
229 1 0 1.86823e+09 1.86849e+09 1.86951e+09 1.87204e+09 0 0
230 1 0 1.87928e+09 1.87954e+09 1.88056e+09 1.88531e+09 1 0
231 1 1 1.89261e+09 1.89286e+09 1.89388e+09 1.89391e+09 1 1
232 4 0 1.89823e+09 1.89849e+09 1.89951e+09 1.90256e+09 0 99
233 1 0 1.90636e+09 1.90661e+09 1.90763e+09 1.90836e+09 0 0
234 1 1 1.91597e+09 1.91623e+09 1.91725e+09 1.9176e+09 1 1
235 3 1 1.92132e+09 1.92158e+09 1.9226e+09 1.92489e+09 0 99
236 1 1 1.93707e+09 1.93733e+09 1.93835e+09 1.93848e+09 0 1
237 5 0 1.94258e+09 1.94285e+09 1.94387e+09 1.94839e+09 0 1
238 1 0 1.95215e+09 1.95241e+09 1.95343e+09 1.95482e+09 0 0
239 1 1 1.96499e+09 1.96524e+09 1.96626e+09 1.96628e+09 1 1
240 1 0 1.97e+09 1.97026e+09 1.97128e+09 1.97414e+09 0 0
241 1 1 1.98418e+09 1.98444e+09 1.98545e+09 1.98596e+09 1 1
242 1 0 1.99283e+09 1.9931e+09 1.99412e+09 1.99493e+09 0 0
243 1 1 2.0023e+09 2.00255e+09 2.00357e+09 2.0038e+09 1 1
244 5 0 2.00948e+09 2.00974e+09 2.01076e+09 2.01168e+09 0 1
245 4 0 2.01567e+09 2.01593e+09 2.01695e+09 2.02112e+09 0 99
246 1 0 2.02706e+09 2.02734e+09 2.02836e+09 2.03328e+09 0 0
247 1 1 2.04134e+09 2.0416e+09 2.04262e+09 2.04337e+09 1 1
248 1 0 2.04782e+09 2.04808e+09 2.0491e+09 2.05421e+09 0 0
249 1 0 2.0617e+09 2.06195e+09 2.06297e+09 2.06473e+09 1 0
250 1 0 2.07202e+09 2.07227e+09 2.07329e+09 2.08004e+09 1 0
251 1 0 2.09555e+09 2.09581e+09 2.09683e+09 2.10524e+09 1 0
252 3 0 2.11265e+09 2.11292e+09 2.11394e+09 2.12672e+09 0 99
253 5 0 2.1324e+09 2.13266e+09 2.13368e+09 2.14616e+09 0 1
254 5 0 2.15004e+09 2.15031e+09 2.15133e+09 2.15175e+09 0 1
255 5 0 2.15697e+09 2.15723e+09 2.15825e+09 2.15914e+09 0 1
256 5 0 2.16389e+09 2.16415e+09 2.16517e+09 2.16635e+09 0 1
257 5 0 2.17184e+09 2.1721e+09 2.17312e+09 2.17582e+09 0 1
258 1 1 2.18283e+09 2.18309e+09 2.18411e+09 2.18413e+09 0 1
259 5 0 2.18895e+09 2.18922e+09 2.19024e+09 2.1966e+09 0 1
260 2 0 2.20541e+09 2.20567e+09 2.20669e+09 2.21102e+09 0 99
261 5 0 2.21494e+09 2.2152e+09 2.21622e+09 2.21675e+09 0 1
262 5 0 2.2221e+09 2.22236e+09 2.22338e+09 2.2247e+09 0 1
263 5 0 2.22939e+09 2.22965e+09 2.23067e+09 2.23521e+09 0 1
264 1 1 2.23928e+09 2.23955e+09 2.24057e+09 2.24058e+09 0 1
265 1 0 2.24506e+09 2.24531e+09 2.24633e+09 2.25209e+09 0 0
266 1 1 2.25921e+09 2.25948e+09 2.26049e+09 2.26051e+09 1 1
267 5 0 2.26508e+09 2.26534e+09 2.26636e+09 2.26741e+09 0 1
268 5 0 2.27862e+09 2.27888e+09 2.2799e+09 2.28673e+09 0 1
269 1 1 2.29206e+09 2.29231e+09 2.29333e+09 2.29334e+09 0 1
270 5 0 2.29751e+09 2.29775e+09 2.29877e+09 2.30011e+09 0 1
271 5 1 2.3071e+09 2.30735e+09 2.30837e+09 2.30839e+09 0 0
272 5 1 2.31888e+09 2.31914e+09 2.32016e+09 2.32266e+09 1 0
273 5 0 2.33e+09 2.33027e+09 2.33129e+09 2.34357e+09 1 1
274 5 0 2.3502e+09 2.35046e+09 2.35148e+09 2.35155e+09 0 1
275 1 1 2.35752e+09 2.35778e+09 2.3588e+09 2.35881e+09 0 1
276 5 0 2.36292e+09 2.36319e+09 2.3642e+09 2.36738e+09 0 1
277 5 0 2.37484e+09 2.37511e+09 2.37613e+09 2.37802e+09 0 1
278 2 0 2.38232e+09 2.38258e+09 2.3836e+09 2.38783e+09 0 99
279 5 0 2.39306e+09 2.39332e+09 2.39434e+09 2.4044e+09 0 1
280 5 0 2.40844e+09 2.40872e+09 2.40974e+09 2.41086e+09 0 1
281 1 0 2.41551e+09 2.41577e+09 2.41679e+09 2.41841e+09 0 0
282 1 0 2.42552e+09 2.42579e+09 2.42681e+09 2.43559e+09 1 0
283 1 0 2.4432e+09 2.44347e+09 2.44449e+09 2.4464e+09 1 0
284 1 0 2.45382e+09 2.45407e+09 2.45509e+09 2.4611e+09 1 0
285 4 0 2.46849e+09 2.46876e+09 2.46978e+09 2.47329e+09 0 99
286 1 0 2.4781e+09 2.47838e+09 2.4794e+09 2.47941e+09 0 0
287 1 0 2.4867e+09 2.48695e+09 2.48797e+09 2.51628e+09 1 0
288 1 0 2.52377e+09 2.52403e+09 2.52505e+09 2.5262e+09 1 0
289 1 0 2.53365e+09 2.53391e+09 2.53493e+09 2.53655e+09 1 0
290 5 0 2.54408e+09 2.54435e+09 2.54537e+09 2.58107e+09 0 1
291 5 0 2.58574e+09 2.586e+09 2.58702e+09 2.58999e+09 0 1
292 5 0 2.59627e+09 2.59654e+09 2.59756e+09 2.59779e+09 0 1
293 1 0 2.60238e+09 2.60264e+09 2.60366e+09 2.64642e+09 0 0
294 1 0 2.65351e+09 2.65377e+09 2.65478e+09 2.66911e+09 1 0
295 1 1 2.67624e+09 2.67651e+09 2.67753e+09 2.6897e+09 1 1
296 1 0 2.6941e+09 2.69435e+09 2.69537e+09 2.69747e+09 0 0
297 1 0 2.70541e+09 2.70568e+09 2.7067e+09 2.72806e+09 1 0
298 1 0 2.73551e+09 2.73577e+09 2.73679e+09 2.73684e+09 1 0
299 1 0 2.7439e+09 2.74416e+09 2.74518e+09 2.74617e+09 1 0
300 5 0 2.75359e+09 2.75385e+09 2.75487e+09 2.77013e+09 0 1
301 1 1 2.77449e+09 2.77475e+09 2.77577e+09 2.776e+09 0 1
302 3 0 2.78033e+09 2.78058e+09 2.7816e+09 2.78746e+09 0 99
303 1 0 2.79209e+09 2.79235e+09 2.79337e+09 2.79423e+09 0 0
304 1 0 2.80162e+09 2.80188e+09 2.8029e+09 2.82474e+09 1 0
305 1 0 2.83441e+09 2.83467e+09 2.83569e+09 2.83891e+09 1 0
306 1 0 2.84905e+09 2.8493e+09 2.85032e+09 2.86538e+09 1 0
307 5 0 2.87389e+09 2.87414e+09 2.87516e+09 2.89522e+09 0 1
308 3 0 2.90078e+09 2.90106e+09 2.90208e+09 2.90546e+09 0 99
309 3 0 2.90976e+09 2.91001e+09 2.91103e+09 2.913e+09 0 99
310 1 1 2.91769e+09 2.91795e+09 2.91897e+09 2.91921e+09 0 1
311 1 0 2.92365e+09 2.92391e+09 2.92493e+09 2.9268e+09 0 0
312 1 0 2.9386e+09 2.93886e+09 2.93988e+09 2.97313e+09 1 0
313 1 0 2.98064e+09 2.98089e+09 2.98191e+09 2.98285e+09 1 0
314 1 0 2.99014e+09 2.99041e+09 2.99142e+09 2.99494e+09 1 0
315 1 0 3.00229e+09 3.00255e+09 3.00357e+09 3.01119e+09 0 0
316 4 0 3.01866e+09 3.01893e+09 3.01995e+09 3.03282e+09 0 99
317 5 0 3.03761e+09 3.03787e+09 3.03888e+09 3.05568e+09 0 1
318 5 0 3.06015e+09 3.06041e+09 3.06143e+09 3.06173e+09 0 1
319 5 0 3.06797e+09 3.06823e+09 3.06925e+09 3.08029e+09 0 1
320 1 0 3.08506e+09 3.08532e+09 3.08634e+09 3.09128e+09 0 0
321 1 0 3.09846e+09 3.09872e+09 3.09974e+09 3.10586e+09 1 0
322 1 0 3.11343e+09 3.1137e+09 3.11472e+09 3.1257e+09 1 0
323 1 0 3.13314e+09 3.1334e+09 3.13442e+09 3.14674e+09 1 0
324 4 0 3.15424e+09 3.1545e+09 3.15552e+09 3.1669e+09 0 99
325 5 0 3.17141e+09 3.17166e+09 3.17268e+09 3.18218e+09 0 1
326 1 0 3.18946e+09 3.18973e+09 3.19075e+09 3.19237e+09 0 0
327 1 0 3.19951e+09 3.19977e+09 3.20079e+09 3.20674e+09 1 0
328 1 0 3.21418e+09 3.21443e+09 3.21545e+09 3.24975e+09 1 0
329 1 0 3.25721e+09 3.25748e+09 3.2585e+09 3.26873e+09 1 0
330 5 0 3.27626e+09 3.27651e+09 3.27753e+09 3.28732e+09 0 1
331 5 0 3.292e+09 3.29225e+09 3.29327e+09 3.31309e+09 0 1
332 3 0 3.3188e+09 3.31907e+09 3.32008e+09 3.33209e+09 0 99
333 1 0 3.33756e+09 3.33782e+09 3.33884e+09 3.36128e+09 0 0
334 1 0 3.3714e+09 3.37165e+09 3.37267e+09 3.38147e+09 1 0
335 1 0 3.38854e+09 3.3888e+09 3.38982e+09 3.38983e+09 1 0
336 1 0 3.39714e+09 3.39739e+09 3.39841e+09 3.40239e+09 1 0
337 1 0 3.41204e+09 3.4123e+09 3.41332e+09 3.41555e+09 0 0
338 5 0 3.4228e+09 3.42306e+09 3.42408e+09 3.43273e+09 0 1
339 4 0 3.4381e+09 3.43836e+09 3.43938e+09 3.45309e+09 0 99
340 1 0 3.45794e+09 3.4582e+09 3.45922e+09 3.46375e+09 0 0
341 1 0 3.47116e+09 3.47142e+09 3.47244e+09 3.47731e+09 1 0
342 1 0 3.48468e+09 3.48493e+09 3.48595e+09 3.49154e+09 1 0
343 1 0 3.49865e+09 3.49891e+09 3.49993e+09 3.51673e+09 1 0
344 5 0 3.52386e+09 3.52411e+09 3.52513e+09 3.53304e+09 0 1
345 3 0 3.53765e+09 3.53791e+09 3.53893e+09 3.548e+09 0 99
346 1 0 3.55281e+09 3.55307e+09 3.55409e+09 3.57331e+09 0 0
347 1 0 3.58065e+09 3.58091e+09 3.58193e+09 3.58823e+09 1 0
348 1 0 3.59565e+09 3.59591e+09 3.59693e+09 3.60039e+09 1 0
349 1 0 3.60791e+09 3.60817e+09 3.60919e+09 3.61094e+09 1 0
350 2 0 3.61848e+09 3.61873e+09 3.61975e+09 3.6218e+09 0 99
351 2 0 3.62752e+09 3.6278e+09 3.62882e+09 3.65847e+09 0 99
352 1 1 3.6635e+09 3.66375e+09 3.66477e+09 3.69137e+09 0 1
353 1 0 3.69616e+09 3.69642e+09 3.69744e+09 3.71903e+09 0 0
354 1 0 3.72679e+09 3.72704e+09 3.72806e+09 3.72958e+09 1 0
355 1 0 3.73686e+09 3.73711e+09 3.73813e+09 3.74063e+09 1 0
356 1 0 3.74796e+09 3.74822e+09 3.74924e+09 3.75336e+09 1 0
357 2 0 3.76067e+09 3.76093e+09 3.76195e+09 3.77428e+09 0 99
358 4 0 3.77926e+09 3.77953e+09 3.78054e+09 3.78934e+09 0 99
359 5 1 3.79423e+09 3.79449e+09 3.79551e+09 3.80797e+09 0 0
360 5 0 3.81547e+09 3.81573e+09 3.81675e+09 3.82911e+09 1 1
361 5 0 3.83464e+09 3.8349e+09 3.83592e+09 3.84626e+09 0 1
362 2 0 3.85123e+09 3.85149e+09 3.85251e+09 3.87874e+09 0 99
363 5 0 3.8835e+09 3.88376e+09 3.88478e+09 3.88989e+09 0 1
364 5 1 3.89474e+09 3.895e+09 3.89602e+09 3.90669e+09 0 0
365 5 0 3.91398e+09 3.91423e+09 3.91525e+09 3.92065e+09 1 1
366 1 0 3.9258e+09 3.92607e+09 3.92708e+09 3.9434e+09 0 0
367 1 0 3.95045e+09 3.95071e+09 3.95173e+09 3.95479e+09 1 0
368 1 0 3.96186e+09 3.96213e+09 3.96315e+09 3.97349e+09 1 0
369 1 1 3.98083e+09 3.98109e+09 3.98211e+09 3.99324e+09 1 1
370 1 1 3.99945e+09 3.9997e+09 4.00072e+09 4.0251e+09 0 1
371 1 0 4.03006e+09 4.03032e+09 4.03134e+09 4.03399e+09 0 0
372 1 0 4.04361e+09 4.04386e+09 4.04488e+09 4.07943e+09 1 0
373 1 1 4.08675e+09 4.08701e+09 4.08803e+09 4.09085e+09 1 1
