trial trialType response stillTime stimOnset stimOffset respTime correctionTrial correct
001 1 1 7.03284e+06 7.32032e+06 8.33948e+06 1.7361e+08 0 1
002 2 1 1.78359e+08 1.78633e+08 1.79652e+08 1.80214e+08 0 0
003 2 0 1.97668e+08 1.97951e+08 1.98971e+08 2.01527e+08 1 1
004 2 0 2.16786e+08 2.17048e+08 2.18067e+08 2.1907e+08 0 1
005 2 0 2.22056e+08 2.22308e+08 2.23327e+08 2.28943e+08 0 1
006 2 0 2.43207e+08 2.43463e+08 2.44482e+08 2.45232e+08 0 1
007 1 1 2.49315e+08 2.49575e+08 2.50595e+08 2.50621e+08 0 1
008 1 1 2.55813e+08 2.56058e+08 2.57077e+08 2.5743e+08 0 1
009 2 0 2.61658e+08 2.61919e+08 2.62938e+08 2.6426e+08 0 1
010 1 0 2.70856e+08 2.71115e+08 2.72134e+08 2.72609e+08 0 0
011 1 1 3.17889e+08 3.18145e+08 3.19164e+08 3.1919e+08 1 1
012 1 1 3.2671e+08 3.26975e+08 3.27994e+08 3.28063e+08 0 1
013 1 1 3.47328e+08 3.47589e+08 3.48608e+08 3.48625e+08 0 1
014 1 0 3.51507e+08 3.51772e+08 3.52791e+08 3.53036e+08 0 0
015 1 1 3.63144e+08 3.63404e+08 3.64423e+08 3.64687e+08 1 1
016 1 0 3.67227e+08 3.67474e+08 3.68493e+08 3.68769e+08 0 0
017 1 1 3.78302e+08 3.78553e+08 3.79572e+08 3.79936e+08 1 1
018 2 1 3.86382e+08 3.86647e+08 3.87666e+08 3.88012e+08 0 0
019 2 0 3.98509e+08 3.9877e+08 3.99789e+08 4.00159e+08 1 1
020 2 0 4.02816e+08 4.03077e+08 4.04097e+08 4.04104e+08 0 1
021 1 1 4.06952e+08 4.07201e+08 4.08221e+08 4.08764e+08 0 1
022 1 1 4.11487e+08 4.1175e+08 4.12769e+08 4.12975e+08 0 1
023 2 1 4.15841e+08 4.16092e+08 4.17111e+08 4.18534e+08 0 0
024 2 1 4.25734e+08 4.25986e+08 4.27005e+08 4.27021e+08 1 0
025 2 1 4.39042e+08 4.39304e+08 4.40324e+08 4.40488e+08 1 0
026 2 0 4.47956e+08 4.48212e+08 4.49231e+08 4.50553e+08 1 1
027 1 1 4.55022e+08 4.55288e+08 4.56307e+08 4.56608e+08 0 1
028 1 0 4.67816e+08 4.68083e+08 4.69102e+08 4.71425e+08 0 0
029 1 1 4.78785e+08 4.79035e+08 4.80055e+08 4.80135e+08 1 1
030 1 1 4.87595e+08 4.87846e+08 4.88865e+08 4.88872e+08 0 1
031 2 0 4.91515e+08 4.91775e+08 4.92794e+08 4.94892e+08 0 1
032 2 0 5.04043e+08 5.04289e+08 5.05308e+08 5.06459e+08 0 1
033 1 1 5.09041e+08 5.09306e+08 5.10325e+08 5.11803e+08 0 1
034 2 1 5.14563e+08 5.14823e+08 5.15842e+08 5.15888e+08 0 0
035 2 0 5.25852e+08 5.26102e+08 5.27121e+08 5.2718e+08 1 1
036 1 1 5.33926e+08 5.34171e+08 5.3519e+08 5.35292e+08 0 1
037 2 1 5.39725e+08 5.39985e+08 5.41005e+08 5.41283e+08 0 0
038 2 1 5.5157e+08 5.51829e+08 5.52848e+08 5.53369e+08 1 0
039 2 1 5.61911e+08 5.62174e+08 5.63194e+08 5.63644e+08 1 0
040 2 1 5.71089e+08 5.71349e+08 5.72369e+08 5.72447e+08 1 0
041 1 1 5.83695e+08 5.83946e+08 5.84965e+08 5.85017e+08 0 1
042 2 1 5.90339e+08 5.90588e+08 5.91607e+08 5.91872e+08 0 0
043 2 1 5.99309e+08 5.99566e+08 6.00585e+08 6.01156e+08 1 0
044 2 1 6.08913e+08 6.09167e+08 6.10186e+08 6.10373e+08 1 0
045 2 1 6.20889e+08 6.21151e+08 6.2217e+08 6.22276e+08 1 0
046 1 0 6.32465e+08 6.32729e+08 6.33748e+08 6.33892e+08 0 0
047 2 0 6.41477e+08 6.41731e+08 6.4275e+08 6.42961e+08 0 1
048 2 0 6.46836e+08 6.47092e+08 6.48112e+08 6.4844e+08 0 1
049 1 1 6.57794e+08 6.58053e+08 6.59072e+08 6.60394e+08 0 1
050 1 1 6.66319e+08 6.66587e+08 6.67606e+08 6.67847e+08 0 1
051 2 1 6.70335e+08 6.70587e+08 6.71606e+08 6.73282e+08 0 0
052 2 0 6.81954e+08 6.82206e+08 6.83225e+08 6.85021e+08 1 1
053 2 0 6.88924e+08 6.89187e+08 6.90206e+08 6.90225e+08 0 1
054 1 1 6.96857e+08 6.97108e+08 6.98128e+08 6.9861e+08 0 1
055 2 0 7.01961e+08 7.02213e+08 7.03232e+08 7.03472e+08 0 1
056 1 0 7.11352e+08 7.11596e+08 7.12615e+08 7.14203e+08 0 0
057 1 0 7.21363e+08 7.21615e+08 7.22634e+08 7.22726e+08 1 0
058 1 1 7.31244e+08 7.31496e+08 7.32515e+08 7.32526e+08 1 1
059 2 1 7.3903e+08 7.39286e+08 7.40305e+08 7.40457e+08 0 0
060 2 1 7.58284e+08 7.58542e+08 7.59561e+08 7.59797e+08 1 0
061 2 1 7.69381e+08 7.69632e+08 7.70651e+08 7.71399e+08 1 0
062 2 1 7.78964e+08 7.79225e+08 7.80244e+08 7.81429e+08 1 0
063 1 0 7.88654e+08 7.88911e+08 7.8993e+08 7.9006e+08 0 0
064 1 0 7.98631e+08 7.9889e+08 7.99909e+08 8.0079e+08 0 0
065 2 1 8.13773e+08 8.14029e+08 8.15048e+08 8.16291e+08 0 0
066 2 1 8.23742e+08 8.23998e+08 8.25017e+08 8.25798e+08 0 0
067 1 1 8.37083e+08 8.37326e+08 8.38345e+08 8.38916e+08 0 1
068 2 0 8.42957e+08 8.4322e+08 8.44239e+08 8.45072e+08 0 1
069 1 1 8.49147e+08 8.49403e+08 8.50422e+08 8.50958e+08 0 1
070 2 1 8.55101e+08 8.55362e+08 8.56382e+08 8.58018e+08 0 0
071 2 0 8.67294e+08 8.67558e+08 8.68577e+08 8.77885e+08 1 1
072 1 0 8.81376e+08 8.81633e+08 8.82652e+08 8.83114e+08 0 0
073 1 1 8.90275e+08 8.90536e+08 8.91556e+08 8.91958e+08 1 1
074 1 0 8.94704e+08 8.94956e+08 8.95975e+08 8.97166e+08 0 0
075 1 1 9.08564e+08 9.08813e+08 9.09832e+08 9.13303e+08 1 1
076 2 1 9.16421e+08 9.16665e+08 9.17684e+08 9.19506e+08 0 0
077 2 1 9.26594e+08 9.26846e+08 9.27865e+08 9.34536e+08 1 0
078 2 0 9.41602e+08 9.41855e+08 9.42874e+08 9.43832e+08 1 1
079 2 1 9.47244e+08 9.47496e+08 9.48515e+08 9.51375e+08 0 0
080 2 1 9.62334e+08 9.62586e+08 9.63606e+08 9.67847e+08 1 0
081 2 1 9.80861e+08 9.81125e+08 9.82144e+08 9.8454e+08 1 0
082 2 1 9.91668e+08 9.91927e+08 9.92946e+08 9.95692e+08 1 0
083 2 1 1.00291e+09 1.00318e+09 1.00419e+09 1.03516e+09 0 0
084 1 1 1.04226e+09 1.04252e+09 1.04353e+09 1.0444e+09 0 1
085 1 1 1.04702e+09 1.04729e+09 1.04831e+09 1.06824e+09 0 1
086 2 1 1.071e+09 1.07126e+09 1.07228e+09 1.0758e+09 0 0
087 2 0 1.08356e+09 1.08382e+09 1.08483e+09 1.0876e+09 1 1
088 1 0 1.09058e+09 1.09084e+09 1.09186e+09 1.09252e+09 0 0
089 1 0 1.10146e+09 1.10171e+09 1.10273e+09 1.10303e+09 1 0
090 1 0 1.11069e+09 1.11093e+09 1.11195e+09 1.112e+09 1 0
091 1 0 1.12103e+09 1.12129e+09 1.12231e+09 1.12977e+09 1 0
092 2 0 1.13812e+09 1.13837e+09 1.13939e+09 1.14324e+09 0 1
093 2 1 1.1464e+09 1.14665e+09 1.14767e+09 1.14891e+09 0 0
094 2 0 1.15847e+09 1.15871e+09 1.15973e+09 1.1598e+09 1 1
095 2 1 1.16255e+09 1.1628e+09 1.16382e+09 1.16434e+09 0 0
096 2 1 1.17145e+09 1.17171e+09 1.17273e+09 1.17274e+09 1 0
097 2 0 1.18238e+09 1.18264e+09 1.18366e+09 1.18602e+09 1 1
098 2 1 1.19469e+09 1.19495e+09 1.19597e+09 1.19628e+09 0 0
099 2 0 1.20594e+09 1.20619e+09 1.20721e+09 1.20826e+09 1 1
100 2 1 1.21089e+09 1.21115e+09 1.21217e+09 1.2141e+09 0 0
101 2 1 1.22186e+09 1.22212e+09 1.22314e+09 1.22315e+09 1 0
102 2 0 1.23059e+09 1.23084e+09 1.23186e+09 1.2328e+09 1 1
103 1 0 1.24314e+09 1.24339e+09 1.24441e+09 1.24495e+09 0 0
104 1 0 1.25376e+09 1.25402e+09 1.25504e+09 1.25623e+09 1 0
105 1 1 1.26339e+09 1.26365e+09 1.26467e+09 1.26693e+09 1 1
106 1 1 1.26986e+09 1.27011e+09 1.27113e+09 1.27135e+09 0 1
107 1 1 1.27432e+09 1.27457e+09 1.27558e+09 1.27675e+09 0 1
108 2 1 1.28541e+09 1.28566e+09 1.28668e+09 1.28751e+09 0 0
109 2 1 1.29929e+09 1.29955e+09 1.30057e+09 1.30115e+09 1 0
110 2 0 1.30859e+09 1.30884e+09 1.30986e+09 1.31053e+09 1 1
111 1 1 1.31322e+09 1.31347e+09 1.31449e+09 1.31457e+09 0 1
112 2 0 1.31997e+09 1.32022e+09 1.32124e+09 1.32165e+09 0 1
113 2 1 1.32573e+09 1.32599e+09 1.32701e+09 1.32746e+09 0 0
114 2 1 1.33703e+09 1.33728e+09 1.3383e+09 1.33839e+09 1 0
115 2 1 1.34678e+09 1.34704e+09 1.34806e+09 1.34983e+09 1 0
116 2 0 1.35918e+09 1.35943e+09 1.36045e+09 1.36138e+09 1 1
117 1 1 1.364e+09 1.36426e+09 1.36528e+09 1.36532e+09 0 1
118 2 1 1.37368e+09 1.37393e+09 1.37495e+09 1.37499e+09 0 0
119 2 1 1.38327e+09 1.38353e+09 1.38455e+09 1.38798e+09 1 0
120 2 1 1.39542e+09 1.39569e+09 1.39671e+09 1.39679e+09 1 0
121 2 0 1.40885e+09 1.40912e+09 1.41013e+09 1.4136e+09 1 1
122 2 1 1.4167e+09 1.41696e+09 1.41798e+09 1.41806e+09 0 0
123 2 0 1.42743e+09 1.42769e+09 1.42871e+09 1.42881e+09 1 1
124 1 1 1.43778e+09 1.43804e+09 1.43906e+09 1.43921e+09 0 1
125 1 1 1.44274e+09 1.44299e+09 1.44401e+09 1.44508e+09 0 1
126 2 1 1.45005e+09 1.4503e+09 1.45132e+09 1.45242e+09 0 0
127 2 1 1.46066e+09 1.46091e+09 1.46193e+09 1.46293e+09 1 0
128 2 1 1.47e+09 1.47024e+09 1.47126e+09 1.47257e+09 1 0
129 2 1 1.47961e+09 1.47987e+09 1.48089e+09 1.48313e+09 1 0
130 2 1 1.49069e+09 1.49095e+09 1.49197e+09 1.4921e+09 0 0
131 1 1 1.49964e+09 1.49989e+09 1.50091e+09 1.50207e+09 0 1
132 1 1 1.51585e+09 1.51611e+09 1.51713e+09 1.51716e+09 0 1
133 2 1 1.51974e+09 1.52e+09 1.52102e+09 1.52373e+09 0 0
134 2 0 1.53329e+09 1.53353e+09 1.53455e+09 1.53707e+09 1 1
135 1 1 1.54024e+09 1.54049e+09 1.54151e+09 1.54313e+09 0 1
136 1 1 1.54809e+09 1.54836e+09 1.54937e+09 1.54973e+09 0 1
137 2 1 1.55266e+09 1.55293e+09 1.55395e+09 1.55397e+09 0 0
138 2 1 1.5628e+09 1.56305e+09 1.56407e+09 1.56408e+09 1 0
139 2 1 1.57129e+09 1.57154e+09 1.57256e+09 1.5726e+09 1 0
140 2 1 1.58102e+09 1.58126e+09 1.58228e+09 1.58256e+09 1 0
141 2 0 1.59191e+09 1.59217e+09 1.59319e+09 1.59367e+09 0 1
142 1 1 1.60121e+09 1.60146e+09 1.60248e+09 1.60272e+09 0 1
143 1 1 1.60543e+09 1.60568e+09 1.6067e+09 1.60671e+09 0 1
144 2 1 1.61506e+09 1.61533e+09 1.61635e+09 1.61637e+09 0 0
145 2 0 1.62438e+09 1.62463e+09 1.62565e+09 1.62568e+09 1 1
146 2 0 1.64141e+09 1.64166e+09 1.64268e+09 1.64462e+09 0 1
147 1 1 1.65024e+09 1.65051e+09 1.65153e+09 1.65155e+09 0 1
148 2 1 1.65483e+09 1.65511e+09 1.65613e+09 1.65676e+09 0 0
149 2 1 1.66621e+09 1.66645e+09 1.66747e+09 1.66748e+09 1 0
150 2 1 1.67699e+09 1.67725e+09 1.67826e+09 1.67929e+09 1 0
151 2 0 1.6915e+09 1.69175e+09 1.69277e+09 1.69452e+09 1 1
152 2 1 1.70798e+09 1.70824e+09 1.70926e+09 1.70946e+09 0 0
153 2 1 1.7185e+09 1.71875e+09 1.71977e+09 1.72039e+09 1 0
154 2 0 1.7292e+09 1.72945e+09 1.73047e+09 1.73048e+09 1 1
155 1 0 1.74262e+09 1.74287e+09 1.74389e+09 1.74393e+09 0 0
156 1 1 1.75339e+09 1.75365e+09 1.75466e+09 1.75468e+09 1 1
157 2 1 1.75798e+09 1.75825e+09 1.75927e+09 1.7593e+09 0 0
158 2 1 1.77807e+09 1.77833e+09 1.77935e+09 1.77952e+09 1 0
159 2 0 1.78932e+09 1.78957e+09 1.79059e+09 1.79067e+09 1 1
160 1 1 1.79327e+09 1.79353e+09 1.79455e+09 1.79476e+09 0 1
161 1 1 1.802e+09 1.80226e+09 1.80328e+09 1.80391e+09 0 1
162 1 1 1.81544e+09 1.81569e+09 1.81671e+09 1.81674e+09 0 1
163 1 1 1.83028e+09 1.83053e+09 1.83155e+09 1.83164e+09 0 1
164 2 1 1.83726e+09 1.83751e+09 1.83853e+09 1.83858e+09 0 0
165 2 0 1.84751e+09 1.84777e+09 1.84879e+09 1.84881e+09 1 1
166 2 1 1.85304e+09 1.8533e+09 1.85432e+09 1.85438e+09 0 0
167 2 1 1.86261e+09 1.86286e+09 1.86388e+09 1.86393e+09 1 0
168 2 0 1.87669e+09 1.87695e+09 1.87797e+09 1.878e+09 1 1
169 1 1 1.88596e+09 1.88622e+09 1.88724e+09 1.88737e+09 0 1
170 2 1 1.8899e+09 1.89015e+09 1.89117e+09 1.89202e+09 0 0
171 2 1 1.90555e+09 1.9058e+09 1.90682e+09 1.90704e+09 1 0
172 2 1 1.91916e+09 1.91941e+09 1.92043e+09 1.92046e+09 1 0
173 2 1 1.93143e+09 1.93169e+09 1.93271e+09 1.93325e+09 1 0
174 1 1 1.94478e+09 1.94503e+09 1.94605e+09 1.94609e+09 0 1
175 2 1 1.9529e+09 1.95316e+09 1.95418e+09 1.95419e+09 0 0
176 2 0 1.96131e+09 1.96157e+09 1.96259e+09 1.96419e+09 1 1
177 1 1 1.97193e+09 1.97218e+09 1.9732e+09 1.97339e+09 0 1
178 2 1 1.97883e+09 1.97908e+09 1.98009e+09 1.98012e+09 0 0
179 2 1 1.98981e+09 1.99006e+09 1.99108e+09 1.99145e+09 1 0
180 2 1 2.00071e+09 2.00097e+09 2.00199e+09 2.00209e+09 1 0
181 2 1 2.01157e+09 2.01184e+09 2.01286e+09 2.0129e+09 1 0
182 1 1 2.02021e+09 2.02046e+09 2.02148e+09 2.0215e+09 0 1
183 1 1 2.02539e+09 2.02565e+09 2.02667e+09 2.02668e+09 0 1
184 2 1 2.0317e+09 2.03197e+09 2.03299e+09 2.03318e+09 0 0
185 2 1 2.04045e+09 2.0407e+09 2.04172e+09 2.04206e+09 1 0
186 2 1 2.05292e+09 2.05317e+09 2.05419e+09 2.0542e+09 1 0
187 2 1 2.06397e+09 2.06423e+09 2.06525e+09 2.06549e+09 1 0
188 1 1 2.07848e+09 2.07875e+09 2.07976e+09 2.08021e+09 0 1
189 1 1 2.08317e+09 2.08343e+09 2.08445e+09 2.08447e+09 0 1
190 2 0 2.10093e+09 2.10117e+09 2.10219e+09 2.10344e+09 0 1
191 2 1 2.11004e+09 2.11028e+09 2.1113e+09 2.11189e+09 0 0
192 2 1 2.11992e+09 2.12017e+09 2.12119e+09 2.12123e+09 1 0
193 2 0 2.13146e+09 2.13173e+09 2.13275e+09 2.13399e+09 1 1
194 1 1 2.1418e+09 2.14205e+09 2.14306e+09 2.1431e+09 0 1
195 1 1 2.14841e+09 2.14866e+09 2.14968e+09 2.15018e+09 0 1
196 2 1 2.15323e+09 2.15348e+09 2.1545e+09 2.15509e+09 0 0
197 2 0 2.16373e+09 2.16399e+09 2.16501e+09 2.167e+09 1 1
198 1 1 2.17291e+09 2.17317e+09 2.17419e+09 2.17421e+09 0 1
199 2 1 2.18088e+09 2.18114e+09 2.18216e+09 2.18219e+09 0 0
200 2 1 2.19295e+09 2.1932e+09 2.19422e+09 2.19462e+09 1 0
201 2 1 2.20313e+09 2.20338e+09 2.2044e+09 2.20444e+09 1 0
202 2 1 2.21565e+09 2.2159e+09 2.21692e+09 2.21779e+09 1 0
203 1 1 2.22674e+09 2.22699e+09 2.22801e+09 2.22935e+09 0 1
204 2 0 2.2419e+09 2.24217e+09 2.24319e+09 2.2432e+09 0 1
205 1 1 2.25064e+09 2.25089e+09 2.25191e+09 2.2521e+09 0 1
206 2 1 2.25512e+09 2.25537e+09 2.25639e+09 2.25652e+09 0 0
207 2 1 2.26404e+09 2.26431e+09 2.26532e+09 2.26537e+09 1 0
208 2 1 2.27357e+09 2.27383e+09 2.27485e+09 2.27521e+09 1 0
209 2 0 2.28242e+09 2.28267e+09 2.28369e+09 2.28374e+09 1 1
210 1 1 2.29291e+09 2.29316e+09 2.29418e+09 2.29483e+09 0 1
211 2 1 2.29739e+09 2.29763e+09 2.29865e+09 2.29885e+09 0 0
212 2 1 2.30673e+09 2.30698e+09 2.308e+09 2.30812e+09 1 0
213 2 1 2.31547e+09 2.31573e+09 2.31674e+09 2.31676e+09 1 0
214 2 1 2.32439e+09 2.32465e+09 2.32567e+09 2.32669e+09 1 0
215 2 0 2.3376e+09 2.33785e+09 2.33887e+09 2.34191e+09 0 1
216 1 1 2.3481e+09 2.34835e+09 2.34937e+09 2.34943e+09 0 1
217 1 1 2.35896e+09 2.35921e+09 2.36023e+09 2.36028e+09 0 1
218 1 1 2.36659e+09 2.36684e+09 2.36786e+09 2.36883e+09 0 1
219 2 1 2.37928e+09 2.37953e+09 2.38055e+09 2.38088e+09 0 0
220 2 1 2.38996e+09 2.39021e+09 2.39123e+09 2.39558e+09 1 0
221 2 1 2.40495e+09 2.40521e+09 2.40623e+09 2.40677e+09 1 0
222 2 1 2.4148e+09 2.41505e+09 2.41607e+09 2.41636e+09 1 0
223 1 0 2.42562e+09 2.42588e+09 2.4269e+09 2.42703e+09 0 0
224 1 1 2.43732e+09 2.43759e+09 2.43861e+09 2.43877e+09 0 1
225 2 1 2.44947e+09 2.44972e+09 2.45074e+09 2.45092e+09 0 0
226 2 1 2.46074e+09 2.461e+09 2.46201e+09 2.46203e+09 1 0
227 2 1 2.47044e+09 2.4707e+09 2.47172e+09 2.47312e+09 1 0
228 2 0 2.48208e+09 2.48233e+09 2.48335e+09 2.48477e+09 1 1
229 1 1 2.49117e+09 2.49144e+09 2.49245e+09 2.49259e+09 0 1
230 1 0 2.5085e+09 2.50875e+09 2.50977e+09 2.50978e+09 0 0
231 1 1 2.51919e+09 2.51945e+09 2.52047e+09 2.52054e+09 1 1
232 2 1 2.53105e+09 2.53131e+09 2.53233e+09 2.53316e+09 0 0
233 2 1 2.54029e+09 2.54055e+09 2.54157e+09 2.54174e+09 1 0
234 2 0 2.55306e+09 2.55332e+09 2.55433e+09 2.55444e+09 1 1
235 2 1 2.56444e+09 2.56469e+09 2.56571e+09 2.5658e+09 0 0
236 2 0 2.57531e+09 2.57557e+09 2.57659e+09 2.57748e+09 1 1
237 1 1 2.5897e+09 2.58996e+09 2.59098e+09 2.59125e+09 0 1
238 1 1 2.5964e+09 2.59665e+09 2.59767e+09 2.59772e+09 0 1
239 1 0 2.60636e+09 2.60661e+09 2.60763e+09 2.60864e+09 0 0
240 1 1 2.61679e+09 2.61705e+09 2.61807e+09 2.61817e+09 1 1
241 1 1 2.62769e+09 2.62795e+09 2.62897e+09 2.62904e+09 0 1
242 2 1 2.64373e+09 2.64398e+09 2.645e+09 2.64905e+09 0 0
243 2 1 2.65645e+09 2.6567e+09 2.65771e+09 2.658e+09 1 0
244 2 0 2.66503e+09 2.66528e+09 2.6663e+09 2.66676e+09 1 1
245 1 1 2.67436e+09 2.67461e+09 2.67563e+09 2.67567e+09 0 1
246 1 1 2.68104e+09 2.68129e+09 2.68231e+09 2.68245e+09 0 1
247 2 1 2.68577e+09 2.68601e+09 2.68703e+09 2.68723e+09 0 0
248 2 0 2.69467e+09 2.69493e+09 2.69595e+09 2.69722e+09 1 1
249 2 1 2.70158e+09 2.70184e+09 2.70286e+09 2.70305e+09 0 0
250 2 0 2.71207e+09 2.71233e+09 2.71335e+09 2.7145e+09 1 1
251 2 1 2.71736e+09 2.71762e+09 2.71864e+09 2.71958e+09 0 0
252 2 0 2.72675e+09 2.72701e+09 2.72803e+09 2.72836e+09 1 1
253 2 1 2.73143e+09 2.73169e+09 2.7327e+09 2.73401e+09 0 0
254 2 1 2.7455e+09 2.74575e+09 2.74677e+09 2.74985e+09 1 0
255 2 0 2.75703e+09 2.75728e+09 2.7583e+09 2.75831e+09 1 1
256 2 1 2.76576e+09 2.76602e+09 2.76704e+09 2.76725e+09 0 0
257 2 0 2.779e+09 2.77925e+09 2.78027e+09 2.78169e+09 1 1
258 2 1 2.78544e+09 2.78569e+09 2.78671e+09 2.7872e+09 0 0
259 2 0 2.79426e+09 2.79451e+09 2.79553e+09 2.7956e+09 1 1
260 1 0 2.80065e+09 2.80091e+09 2.80193e+09 2.80448e+09 0 0
261 1 1 2.81485e+09 2.81511e+09 2.81613e+09 2.81633e+09 1 1
262 2 1 2.81913e+09 2.81937e+09 2.82039e+09 2.82247e+09 0 0
263 2 0 2.83149e+09 2.83174e+09 2.83276e+09 2.8356e+09 1 1
264 2 0 2.8383e+09 2.83856e+09 2.83957e+09 2.83986e+09 0 1
265 2 1 2.85008e+09 2.85034e+09 2.85136e+09 2.85221e+09 0 0
266 2 1 2.86056e+09 2.86082e+09 2.86184e+09 2.86211e+09 1 0
267 2 1 2.86921e+09 2.86946e+09 2.87048e+09 2.87058e+09 1 0
268 2 1 2.87788e+09 2.87813e+09 2.87915e+09 2.87947e+09 1 0
269 1 1 2.88779e+09 2.88805e+09 2.88907e+09 2.88908e+09 0 1
270 1 1 2.89171e+09 2.89198e+09 2.89299e+09 2.89306e+09 0 1
271 1 1 2.89659e+09 2.89686e+09 2.89787e+09 2.89791e+09 0 1
272 1 1 2.90055e+09 2.90082e+09 2.90184e+09 2.90188e+09 0 1
273 2 1 2.91023e+09 2.9105e+09 2.91152e+09 2.91157e+09 0 0
274 2 1 2.91997e+09 2.92022e+09 2.92124e+09 2.92341e+09 1 0
275 2 0 2.93099e+09 2.93126e+09 2.93228e+09 2.93464e+09 1 1
276 2 1 2.94155e+09 2.94181e+09 2.94283e+09 2.94293e+09 0 0
277 2 0 2.95012e+09 2.95037e+09 2.95139e+09 2.9515e+09 1 1
278 2 1 2.95859e+09 2.95885e+09 2.95986e+09 2.96028e+09 0 0
279 2 0 2.96737e+09 2.96762e+09 2.96864e+09 2.96882e+09 1 1
280 1 1 2.97428e+09 2.97455e+09 2.97557e+09 2.97573e+09 0 1
281 1 1 2.98595e+09 2.9862e+09 2.98721e+09 2.98738e+09 0 1
282 2 0 2.99065e+09 2.9909e+09 2.99192e+09 2.99346e+09 0 1
283 1 1 3.00322e+09 3.00348e+09 3.00449e+09 3.00451e+09 0 1
284 2 1 3.00731e+09 3.00757e+09 3.00859e+09 3.00862e+09 0 0
285 2 0 3.01612e+09 3.01638e+09 3.0174e+09 3.01755e+09 1 1
286 2 1 3.02182e+09 3.02207e+09 3.02309e+09 3.02311e+09 0 0
287 2 0 3.03302e+09 3.03328e+09 3.0343e+09 3.03482e+09 1 1
288 2 0 3.0404e+09 3.04065e+09 3.04167e+09 3.04186e+09 0 1
289 1 1 3.05104e+09 3.0513e+09 3.05232e+09 3.05234e+09 0 1
290 2 1 3.05507e+09 3.05531e+09 3.05633e+09 3.05663e+09 0 0
291 2 1 3.06602e+09 3.06628e+09 3.0673e+09 3.06823e+09 1 0
292 2 1 3.07664e+09 3.07689e+09 3.07791e+09 3.08184e+09 1 0
293 2 0 3.08932e+09 3.08959e+09 3.0906e+09 3.09075e+09 1 1
294 2 1 3.10291e+09 3.10317e+09 3.10418e+09 3.10426e+09 0 0
295 2 0 3.11451e+09 3.11478e+09 3.1158e+09 3.11589e+09 1 1
296 1 0 3.12621e+09 3.12647e+09 3.12749e+09 3.12755e+09 0 0
297 1 0 3.13581e+09 3.13606e+09 3.13708e+09 3.13759e+09 1 0
298 1 1 3.14495e+09 3.1452e+09 3.14622e+09 3.14647e+09 1 1
299 2 1 3.15091e+09 3.15117e+09 3.15219e+09 3.15229e+09 0 0
300 2 1 3.1595e+09 3.15976e+09 3.16078e+09 3.16304e+09 1 0
301 2 0 3.17013e+09 3.17038e+09 3.1714e+09 3.17234e+09 1 1
302 1 1 3.17805e+09 3.17831e+09 3.17933e+09 3.17979e+09 0 1
303 2 0 3.18363e+09 3.18388e+09 3.1849e+09 3.18494e+09 0 1
304 2 0 3.18784e+09 3.1881e+09 3.18912e+09 3.18943e+09 0 1
305 1 0 3.19847e+09 3.19872e+09 3.19974e+09 3.20108e+09 0 0
306 1 0 3.21032e+09 3.21057e+09 3.21159e+09 3.21501e+09 1 0
307 1 0 3.22465e+09 3.2249e+09 3.22592e+09 3.22835e+09 1 0
308 1 1 3.2368e+09 3.23706e+09 3.23808e+09 3.2381e+09 1 1
309 1 1 3.24062e+09 3.24087e+09 3.24189e+09 3.24196e+09 0 1
310 2 1 3.24487e+09 3.24512e+09 3.24614e+09 3.24871e+09 0 0
311 2 1 3.25686e+09 3.25712e+09 3.25814e+09 3.2596e+09 1 0
312 2 1 3.26676e+09 3.26702e+09 3.26804e+09 3.26866e+09 1 0
313 2 1 3.27575e+09 3.27601e+09 3.27703e+09 3.32211e+09 1 0
314 2 0 3.32928e+09 3.32953e+09 3.33055e+09 3.33437e+09 0 1
315 2 1 3.33892e+09 3.33918e+09 3.3402e+09 3.50583e+09 0 0
316 2 0 3.51397e+09 3.51424e+09 3.51526e+09 3.61069e+09 1 1
317 1 1 3.6158e+09 3.61605e+09 3.61707e+09 3.61743e+09 0 1
318 1 1 3.62302e+09 3.62328e+09 3.6243e+09 3.62431e+09 0 1
319 2 0 3.62739e+09 3.62765e+09 3.62867e+09 3.62874e+09 0 1
320 2 0 3.63175e+09 3.632e+09 3.63302e+09 3.63305e+09 0 1
321 2 1 3.64401e+09 3.64427e+09 3.64528e+09 3.64779e+09 0 0
322 2 1 3.6552e+09 3.65546e+09 3.65648e+09 3.66051e+09 1 0
323 2 1 3.66949e+09 3.66975e+09 3.67077e+09 3.68051e+09 1 0
324 2 1 3.68764e+09 3.6879e+09 3.68892e+09 3.68898e+09 1 0
325 2 1 3.6963e+09 3.69655e+09 3.69757e+09 3.69797e+09 0 0
326 1 1 3.70533e+09 3.70559e+09 3.7066e+09 3.71576e+09 0 1
327 2 1 3.72161e+09 3.72186e+09 3.72288e+09 3.72303e+09 0 0
328 2 1 3.73026e+09 3.73051e+09 3.73153e+09 3.73715e+09 1 0
329 2 1 3.74596e+09 3.74622e+09 3.74724e+09 3.75679e+09 1 0
330 2 0 3.76586e+09 3.76611e+09 3.76713e+09 3.77831e+09 1 1
331 2 1 3.78194e+09 3.78219e+09 3.78321e+09 3.78325e+09 0 0
332 2 1 3.79307e+09 3.79332e+09 3.79434e+09 3.7953e+09 1 0
333 2 0 3.80272e+09 3.80297e+09 3.80399e+09 3.80496e+09 1 1
334 2 1 3.80778e+09 3.80804e+09 3.80906e+09 3.80907e+09 0 0
335 2 0 3.81647e+09 3.81672e+09 3.81774e+09 3.83269e+09 1 1
336 1 1 3.8354e+09 3.83565e+09 3.83667e+09 3.83668e+09 0 1
337 1 1 3.84124e+09 3.84151e+09 3.84253e+09 3.84258e+09 0 1
338 1 1 3.84557e+09 3.84583e+09 3.84685e+09 3.84697e+09 0 1
339 1 1 3.85131e+09 3.85158e+09 3.8526e+09 3.85263e+09 0 1
340 1 1 3.85916e+09 3.85942e+09 3.86044e+09 3.86085e+09 0 1
341 2 1 3.86384e+09 3.86409e+09 3.86511e+09 3.8661e+09 0 0
342 2 1 3.87426e+09 3.87451e+09 3.87553e+09 3.87957e+09 1 0
343 2 0 3.88706e+09 3.88731e+09 3.88833e+09 3.90293e+09 1 1
344 1 1 3.90562e+09 3.90589e+09 3.90691e+09 3.90694e+09 0 1
345 2 0 3.91284e+09 3.91309e+09 3.91411e+09 3.9159e+09 0 1
346 1 1 3.92289e+09 3.92314e+09 3.92416e+09 3.92505e+09 0 1
347 1 1 3.93301e+09 3.93326e+09 3.93428e+09 3.9345e+09 0 1
348 2 1 3.939e+09 3.93924e+09 3.94026e+09 3.94086e+09 0 0
349 2 0 3.94885e+09 3.94911e+09 3.95013e+09 3.95084e+09 1 1
350 1 1 3.95488e+09 3.95514e+09 3.95615e+09 3.95616e+09 0 1
351 2 1 3.95946e+09 3.95972e+09 3.96074e+09 3.96097e+09 0 0
352 2 1 3.96812e+09 3.96837e+09 3.96939e+09 3.96945e+09 1 0
353 2 0 3.97659e+09 3.97684e+09 3.97786e+09 3.98019e+09 1 1
354 1 1 3.98756e+09 3.98781e+09 3.98883e+09 3.98972e+09 0 1
355 1 0 3.99653e+09 3.9968e+09 3.99782e+09 3.99841e+09 0 0
356 1 1 4.00587e+09 4.00611e+09 4.00713e+09 4.00754e+09 1 1
357 1 1 4.0136e+09 4.01385e+09 4.01487e+09 4.01539e+09 0 1
358 1 1 4.01799e+09 4.01824e+09 4.01926e+09 4.01937e+09 0 1
359 1 1 4.02829e+09 4.02854e+09 4.02956e+09 4.03142e+09 0 1
360 2 1 4.03395e+09 4.0342e+09 4.03522e+09 4.03525e+09 0 0
361 2 1 4.04523e+09 4.04548e+09 4.0465e+09 4.05078e+09 1 0
362 2 0 4.05792e+09 4.05818e+09 4.0592e+09 4.05922e+09 1 1
363 2 0 4.06634e+09 4.0666e+09 4.06762e+09 4.07217e+09 0 1
364 1 0 4.07484e+09 4.0751e+09 4.07612e+09 4.07653e+09 0 0
365 1 0 4.0841e+09 4.08435e+09 4.08537e+09 4.08771e+09 1 0
366 1 1 4.09635e+09 4.0966e+09 4.09762e+09 4.10453e+09 1 1
367 2 1 4.10829e+09 4.10856e+09 4.10958e+09 4.11029e+09 0 0
368 2 1 4.11759e+09 4.11785e+09 4.11887e+09 4.15968e+09 1 0
369 2 0 4.1671e+09 4.16735e+09 4.16837e+09 4.22541e+09 1 1
370 1 1 4.23146e+09 4.23172e+09 4.23274e+09 4.23424e+09 0 1
371 1 0 4.23724e+09 4.23749e+09 4.23851e+09 4.2387e+09 0 0
372 1 0 4.24838e+09 4.24863e+09 4.24965e+09 4.28279e+09 1 0
373 1 0 4.29007e+09 4.29033e+09 4.29135e+09 5.28344e+06 1 0
374 1 1 1.27119e+07 1.29759e+07 1.39951e+07 3.35132e+07 1 1
375 2 1 3.61953e+07 3.64549e+07 3.74741e+07 3.80741e+07 0 0
376 2 1 4.5566e+07 4.58234e+07 4.68426e+07 1.12806e+08 1 0
377 2 0 1.20252e+08 1.20507e+08 1.21526e+08 1.23439e+08 1 1
378 2 1 1.26372e+08 1.26619e+08 1.27638e+08 1.27774e+08 0 0
379 2 1 1.36857e+08 1.37111e+08 1.3813e+08 1.42776e+08 1 0
380 2 0 1.49949e+08 1.50197e+08 1.51216e+08 1.52176e+08 1 1
381 2 0 1.55971e+08 1.5622e+08 1.57239e+08 1.76186e+08 0 1
382 2 1 1.79483e+08 1.7974e+08 1.8076e+08 1.80823e+08 0 0
383 2 1 1.88617e+08 1.88874e+08 1.89893e+08 2.04682e+08 1 0
384 2 1 2.12127e+08 2.12378e+08 2.13397e+08 2.1896e+08 1 0
385 2 1 2.26455e+08 2.2671e+08 2.27729e+08 3.11144e+08 1 0
386 1 1 3.18483e+08 3.18747e+08 3.19766e+08 3.34084e+08 0 1
387 2 0 3.37397e+08 3.37655e+08 3.38674e+08 3.44211e+08 0 1
388 2 1 3.46938e+08 3.47193e+08 3.48212e+08 3.48252e+08 0 0
389 2 1 3.55693e+08 3.55956e+08 3.56975e+08 3.57251e+08 1 0
390 2 0 3.64297e+08 3.64543e+08 3.65562e+08 3.70238e+08 1 1
391 1 1 3.73046e+08 3.73304e+08 3.74324e+08 3.74329e+08 0 1
392 2 1 3.80161e+08 3.80419e+08 3.81438e+08 3.8968e+08 0 0
393 2 0 3.96724e+08 3.96976e+08 3.97995e+08 4.04913e+08 1 1
394 1 1 4.09333e+08 4.09588e+08 4.10608e+08 4.31147e+08 0 1
395 2 1 4.36643e+08 4.36895e+08 4.37914e+08 5.46786e+08 0 0
396 2 0 5.54252e+08 5.54514e+08 5.55533e+08 5.60522e+08 1 1
397 2 1 5.64535e+08 5.64795e+08 5.65814e+08 5.71506e+08 0 0
398 2 1 5.78909e+08 5.79161e+08 5.8018e+08 5.90537e+08 1 0
399 2 1 5.97897e+08 5.98153e+08 5.99172e+08 6.18427e+08 1 0
400 2 1 6.25534e+08 6.25794e+08 6.26813e+08 6.30238e+08 1 0
401 2 0 6.37391e+08 6.37645e+08 6.38664e+08 6.51909e+08 0 1
402 2 1 6.55704e+08 6.55951e+08 6.5697e+08 6.5893e+08 0 0
403 2 1 6.67443e+08 6.67688e+08 6.68707e+08 6.7998e+08 1 0
404 2 1 6.87283e+08 6.87547e+08 6.88566e+08 7.31143e+08 1 0
405 2 0 7.38478e+08 7.38738e+08 7.39757e+08 7.40333e+08 1 1
406 1 1 7.43337e+08 7.43592e+08 7.44611e+08 7.44935e+08 0 1
407 1 1 7.48354e+08 7.48619e+08 7.49638e+08 7.50429e+08 0 1
408 1 1 7.55723e+08 7.5598e+08 7.56999e+08 7.62084e+08 0 1
409 1 1 7.64895e+08 7.65144e+08 7.66163e+08 7.66752e+08 0 1
410 2 1 7.70684e+08 7.7094e+08 7.71959e+08 7.72513e+08 0 0
411 2 1 7.797e+08 7.79954e+08 7.80973e+08 7.83629e+08 1 0
412 2 0 7.91125e+08 7.91387e+08 7.92406e+08 8.0378e+08 1 1
413 1 1 8.09124e+08 8.09368e+08 8.10387e+08 8.16794e+08 0 1
414 1 1 8.20371e+08 8.20621e+08 8.2164e+08 8.28596e+08 0 1
415 2 1 8.32759e+08 8.33021e+08 8.3404e+08 8.46322e+08 0 0
416 2 0 8.53661e+08 8.5392e+08 8.54939e+08 8.64882e+08 1 1
417 2 0 8.67742e+08 8.68012e+08 8.69031e+08 8.92607e+08 0 1
418 2 0 8.97524e+08 8.97775e+08 8.98794e+08 9.02413e+08 0 1
419 2 1 9.0528e+08 9.05535e+08 9.06554e+08 9.15742e+08 0 0
420 2 0 9.22902e+08 9.23144e+08 9.24163e+08 9.33515e+08 1 1
421 1 0 9.37022e+08 9.37273e+08 9.38292e+08 9.69175e+08 0 0
422 1 1 9.7666e+08 9.76913e+08 9.77932e+08 9.83661e+08 1 1
423 1 0 9.86377e+08 9.86636e+08 9.87655e+08 1.00191e+09 0 0
424 1 0 1.01171e+09 1.01196e+09 1.01298e+09 1.02144e+09 1 0
425 1 0 1.02854e+09 1.02879e+09 1.02981e+09 1.0409e+09 1 0
426 1 0 1.04799e+09 1.04826e+09 1.04928e+09 1.04929e+09 1 0
427 1 1 1.05647e+09 1.05672e+09 1.05774e+09 1.06168e+09 0 1
428 2 1 1.06449e+09 1.06474e+09 1.06576e+09 1.06838e+09 0 0
429 2 0 1.07585e+09 1.07611e+09 1.07713e+09 1.08115e+09 1 1
430 1 0 1.08369e+09 1.08394e+09 1.08496e+09 1.09339e+09 0 0
431 1 0 1.10048e+09 1.10074e+09 1.10176e+09 1.1123e+09 1 0
432 1 0 1.11964e+09 1.1199e+09 1.12092e+09 1.12142e+09 1 0
433 1 0 1.12902e+09 1.12927e+09 1.13029e+09 1.13372e+09 1 0
434 2 1 1.14088e+09 1.14114e+09 1.14216e+09 1.15186e+09 0 0
435 2 1 1.15937e+09 1.15962e+09 1.16064e+09 1.17191e+09 0 0
436 2 0 1.17928e+09 1.17953e+09 1.18055e+09 1.19226e+09 0 1
437 1 1 1.19589e+09 1.19615e+09 1.19717e+09 1.24175e+09 0 1
438 2 0 1.24559e+09 1.24585e+09 1.24687e+09 1.25308e+09 0 1
439 1 1 1.25606e+09 1.25631e+09 1.25733e+09 1.28232e+09 0 1
440 2 1 1.28487e+09 1.28512e+09 1.28614e+09 1.29359e+09 0 0
441 2 0 1.30063e+09 1.30088e+09 1.3019e+09 1.30844e+09 1 1
442 2 1 1.31125e+09 1.3115e+09 1.31252e+09 1.33754e+09 0 0
443 2 1 1.34486e+09 1.3451e+09 1.34612e+09 1.35014e+09 1 0
