trial trialType response stillTime stimOnset stimOffset respTime correctionTrial correct
001 2 0 9.66043e+06 9.97013e+06 1.09892e+07 1.27687e+07 0 1
002 1 0 1.70711e+07 1.73417e+07 1.83608e+07 1.8444e+07 0 0
003 1 0 2.55693e+07 2.58492e+07 2.68684e+07 2.87033e+07 1 0
004 1 0 3.58922e+07 3.61488e+07 3.71679e+07 3.88196e+07 1 0
005 1 0 4.75003e+07 4.77542e+07 4.87734e+07 4.9019e+07 1 0
006 2 0 5.69815e+07 5.72348e+07 5.82539e+07 6.30021e+07 0 1
007 1 0 6.75021e+07 6.77476e+07 6.87667e+07 7.1366e+07 0 0
008 1 0 7.9745e+07 7.9991e+07 8.10101e+07 8.11749e+07 1 0
009 1 1 8.86344e+07 8.89005e+07 8.99196e+07 8.99252e+07 1 1
010 1 0 9.26904e+07 9.29409e+07 9.396e+07 9.70348e+07 0 0
011 1 1 1.04508e+08 1.04758e+08 1.05778e+08 1.11346e+08 1 1
012 2 1 1.14051e+08 1.14311e+08 1.1533e+08 1.20306e+08 0 0
013 2 0 1.27834e+08 1.28099e+08 1.29118e+08 1.29161e+08 1 1
014 2 1 1.31746e+08 1.31997e+08 1.33016e+08 1.35001e+08 0 0
015 2 1 1.43181e+08 1.43443e+08 1.44462e+08 1.45739e+08 1 0
016 2 1 1.52764e+08 1.5302e+08 1.54039e+08 1.58188e+08 1 0
017 2 1 1.65554e+08 1.65814e+08 1.66833e+08 1.68785e+08 1 0
018 2 1 1.80733e+08 1.80996e+08 1.82015e+08 1.82449e+08 0 0
019 2 1 1.90849e+08 1.91114e+08 1.92133e+08 1.92404e+08 0 0
020 2 1 2.00481e+08 2.00737e+08 2.01756e+08 2.03758e+08 0 0
021 1 1 2.1117e+08 2.11417e+08 2.12436e+08 2.12455e+08 0 1
022 2 1 2.15208e+08 2.15467e+08 2.16486e+08 2.19639e+08 0 0
023 2 0 2.27961e+08 2.28209e+08 2.29228e+08 2.33954e+08 1 1
024 2 1 2.36657e+08 2.36915e+08 2.37934e+08 2.39374e+08 0 0
025 2 1 2.471e+08 2.47363e+08 2.48382e+08 2.48677e+08 1 0
026 2 0 2.56408e+08 2.56664e+08 2.57684e+08 2.57752e+08 1 1
027 1 0 2.60403e+08 2.60649e+08 2.61668e+08 2.62415e+08 0 0
028 1 0 2.69806e+08 2.70061e+08 2.7108e+08 2.7185e+08 1 0
029 1 1 2.85393e+08 2.85646e+08 2.86665e+08 2.92207e+08 1 1
030 1 0 2.95081e+08 2.95328e+08 2.96347e+08 2.96453e+08 0 0
031 1 0 3.04302e+08 3.04556e+08 3.05575e+08 3.05597e+08 1 0
032 1 1 3.12962e+08 3.13207e+08 3.14227e+08 3.17286e+08 1 1
033 2 1 3.24818e+08 3.2508e+08 3.26099e+08 3.30345e+08 0 0
034 2 1 3.37652e+08 3.37905e+08 3.38924e+08 3.40453e+08 1 0
035 2 1 3.48058e+08 3.48306e+08 3.49325e+08 3.49642e+08 1 0
036 2 0 3.56805e+08 3.57061e+08 3.5808e+08 3.63128e+08 1 1
037 1 1 3.66111e+08 3.66368e+08 3.67387e+08 3.6792e+08 0 1
038 1 1 3.70657e+08 3.70922e+08 3.71941e+08 3.72112e+08 0 1
039 2 0 3.76638e+08 3.769e+08 3.77919e+08 3.83249e+08 0 1
040 2 1 3.86147e+08 3.86398e+08 3.87417e+08 3.95222e+08 0 0
041 2 0 4.03886e+08 4.04139e+08 4.05158e+08 4.07662e+08 1 1
042 2 0 4.10326e+08 4.10583e+08 4.11602e+08 4.12295e+08 0 1
043 2 1 4.17292e+08 4.1754e+08 4.1856e+08 4.20463e+08 0 0
044 2 1 4.29143e+08 4.29398e+08 4.30417e+08 4.32631e+08 1 0
045 2 1 4.42132e+08 4.42395e+08 4.43415e+08 4.44368e+08 1 0
046 2 0 4.51651e+08 4.51906e+08 4.52925e+08 4.5352e+08 1 1
047 2 1 4.56352e+08 4.56604e+08 4.57623e+08 4.61869e+08 0 0
048 2 0 4.69032e+08 4.69291e+08 4.70311e+08 4.73067e+08 1 1
049 1 1 4.75834e+08 4.76085e+08 4.77104e+08 4.77156e+08 0 1
050 2 0 4.7999e+08 4.80257e+08 4.81276e+08 4.83811e+08 0 1
051 1 1 4.86388e+08 4.86636e+08 4.87655e+08 4.87666e+08 0 1
052 1 1 4.90813e+08 4.91068e+08 4.92087e+08 4.92288e+08 0 1
053 1 1 4.95071e+08 4.95325e+08 4.96345e+08 4.96439e+08 0 1
054 1 0 4.99444e+08 4.99695e+08 5.00714e+08 5.0611e+08 0 0
055 1 0 5.14164e+08 5.14424e+08 5.15443e+08 5.18058e+08 1 0
056 1 1 5.25587e+08 5.25851e+08 5.2687e+08 5.3531e+08 1 1
057 1 1 5.38029e+08 5.38281e+08 5.393e+08 5.39313e+08 0 1
058 2 1 5.41992e+08 5.42252e+08 5.43271e+08 5.45372e+08 0 0
059 2 0 5.52436e+08 5.52681e+08 5.537e+08 5.59758e+08 1 1
060 2 0 5.62747e+08 5.63011e+08 5.6403e+08 5.64302e+08 0 1
061 2 1 5.67105e+08 5.67363e+08 5.68382e+08 5.70753e+08 0 0
062 2 0 5.78776e+08 5.7905e+08 5.80069e+08 5.80121e+08 1 1
063 2 0 5.82648e+08 5.82905e+08 5.83924e+08 5.86975e+08 0 1
064 1 1 5.89504e+08 5.89759e+08 5.90778e+08 5.92275e+08 0 1
065 2 0 5.95145e+08 5.95397e+08 5.96417e+08 5.99046e+08 0 1
066 2 0 6.01979e+08 6.02235e+08 6.03254e+08 6.08431e+08 0 1
067 2 0 6.11384e+08 6.11641e+08 6.1266e+08 6.13797e+08 0 1
068 1 1 6.16775e+08 6.17035e+08 6.18054e+08 6.28342e+08 0 1
069 1 0 6.31073e+08 6.31327e+08 6.32347e+08 6.38858e+08 0 0
070 1 1 6.47211e+08 6.47468e+08 6.48488e+08 6.49203e+08 1 1
071 1 1 6.51986e+08 6.52245e+08 6.53264e+08 6.6138e+08 0 1
072 1 0 6.64346e+08 6.64606e+08 6.65625e+08 6.68421e+08 0 0
073 1 0 6.75589e+08 6.75839e+08 6.76858e+08 6.81367e+08 1 0
074 1 0 6.89524e+08 6.8977e+08 6.9079e+08 6.9286e+08 1 0
075 1 0 7.00258e+08 7.00521e+08 7.0154e+08 7.06741e+08 1 0
076 2 0 7.15503e+08 7.15766e+08 7.16785e+08 7.17707e+08 0 1
077 2 1 7.20336e+08 7.20586e+08 7.21605e+08 7.24975e+08 0 0
078 2 0 7.32587e+08 7.32845e+08 7.33864e+08 7.36544e+08 1 1
079 2 0 7.39553e+08 7.39811e+08 7.4083e+08 7.42372e+08 0 1
080 1 0 7.45026e+08 7.45284e+08 7.46303e+08 7.53012e+08 0 0
081 1 0 7.60158e+08 7.60412e+08 7.61432e+08 7.61671e+08 1 0
082 1 0 7.68804e+08 7.69058e+08 7.70077e+08 7.74492e+08 1 0
083 1 0 7.81657e+08 7.81916e+08 7.82935e+08 7.85167e+08 1 0
084 2 0 7.92252e+08 7.92515e+08 7.93534e+08 8.02514e+08 0 1
085 2 0 8.05017e+08 8.05272e+08 8.06291e+08 8.07567e+08 0 1
086 2 0 8.10278e+08 8.10539e+08 8.11558e+08 8.1644e+08 0 1
087 2 0 8.19026e+08 8.1928e+08 8.203e+08 8.21725e+08 0 1
088 1 1 8.24706e+08 8.24961e+08 8.2598e+08 8.32929e+08 0 1
089 1 0 8.35877e+08 8.3614e+08 8.3716e+08 8.41871e+08 0 0
090 1 0 8.492e+08 8.49459e+08 8.50478e+08 8.52594e+08 1 0
091 1 0 8.64412e+08 8.64681e+08 8.65701e+08 8.68133e+08 1 0
092 1 0 8.7656e+08 8.76812e+08 8.77831e+08 8.8056e+08 1 0
093 1 0 8.87687e+08 8.87962e+08 8.88981e+08 8.99499e+08 0 0
094 2 0 9.06985e+08 9.0724e+08 9.08259e+08 9.23891e+08 0 1
095 1 0 9.26745e+08 9.27008e+08 9.28027e+08 9.30143e+08 0 0
096 1 0 9.37245e+08 9.37497e+08 9.38516e+08 9.4882e+08 1 0
097 1 0 9.57265e+08 9.5752e+08 9.58539e+08 9.66783e+08 1 0
098 1 1 9.74248e+08 9.74498e+08 9.75518e+08 9.91044e+08 1 1
099 2 1 9.93974e+08 9.94238e+08 9.95257e+08 1.00076e+09 0 0
100 2 1 1.00795e+09 1.0082e+09 1.00922e+09 1.01847e+09 1 0
101 2 0 1.02551e+09 1.02578e+09 1.0268e+09 1.02726e+09 1 1
102 1 0 1.03031e+09 1.03057e+09 1.03159e+09 1.03223e+09 0 0
103 1 0 1.04078e+09 1.04104e+09 1.04206e+09 1.04513e+09 1 0
104 1 0 1.05248e+09 1.05273e+09 1.05375e+09 1.06811e+09 1 0
105 1 0 1.07529e+09 1.07555e+09 1.07657e+09 1.07933e+09 1 0
106 1 0 1.08678e+09 1.08703e+09 1.08804e+09 1.09025e+09 0 0
107 1 1 1.09754e+09 1.09779e+09 1.09881e+09 1.09886e+09 0 1
108 2 0 1.10174e+09 1.102e+09 1.10302e+09 1.11616e+09 0 1
109 2 0 1.11894e+09 1.1192e+09 1.12022e+09 1.1267e+09 0 1
110 2 0 1.12963e+09 1.12988e+09 1.1309e+09 1.13173e+09 0 1
111 2 0 1.13441e+09 1.13467e+09 1.13569e+09 1.13813e+09 0 1
112 2 0 1.14093e+09 1.1412e+09 1.14222e+09 1.14313e+09 0 1
113 2 0 1.14595e+09 1.1462e+09 1.14722e+09 1.14973e+09 0 1
114 1 1 1.15241e+09 1.15267e+09 1.15369e+09 1.15371e+09 0 1
115 1 0 1.15631e+09 1.15656e+09 1.15758e+09 1.20928e+09 0 0
116 1 0 1.21661e+09 1.21687e+09 1.21789e+09 1.21801e+09 1 0
117 1 0 1.22519e+09 1.22544e+09 1.22646e+09 1.23643e+09 1 0
118 1 0 1.24387e+09 1.24413e+09 1.24515e+09 1.26175e+09 1 0
119 1 1 1.26932e+09 1.26958e+09 1.2706e+09 1.27124e+09 0 1
120 2 0 1.27415e+09 1.2744e+09 1.27542e+09 1.27662e+09 0 1
121 1 0 1.27941e+09 1.27966e+09 1.28068e+09 1.28654e+09 0 0
122 1 0 1.29364e+09 1.29389e+09 1.29491e+09 1.297e+09 1 0
123 1 0 1.30413e+09 1.30439e+09 1.30541e+09 1.32215e+09 1 0
124 1 0 1.32918e+09 1.32944e+09 1.33046e+09 1.33534e+09 1 0
125 1 1 1.34283e+09 1.34308e+09 1.3441e+09 1.34412e+09 0 1
126 2 0 1.34711e+09 1.34737e+09 1.34839e+09 1.35105e+09 0 1
127 2 0 1.35366e+09 1.35391e+09 1.35493e+09 1.35686e+09 0 1
128 2 0 1.35937e+09 1.35963e+09 1.36065e+09 1.36751e+09 0 1
129 2 0 1.37001e+09 1.37028e+09 1.3713e+09 1.37395e+09 0 1
130 1 0 1.37691e+09 1.37718e+09 1.3782e+09 1.38063e+09 0 0
131 1 1 1.38811e+09 1.38836e+09 1.38938e+09 1.39841e+09 1 1
132 2 0 1.40136e+09 1.40162e+09 1.40264e+09 1.40861e+09 0 1
133 1 1 1.4112e+09 1.41146e+09 1.41248e+09 1.41441e+09 0 1
134 1 0 1.41724e+09 1.41749e+09 1.41851e+09 1.42483e+09 0 0
135 1 0 1.43213e+09 1.4324e+09 1.43341e+09 1.43604e+09 1 0
136 1 0 1.4434e+09 1.44365e+09 1.44467e+09 1.44703e+09 1 0
137 1 0 1.45427e+09 1.45452e+09 1.45554e+09 1.45671e+09 1 0
138 2 0 1.46655e+09 1.46681e+09 1.46783e+09 1.47511e+09 0 1
139 2 0 1.47777e+09 1.47804e+09 1.47906e+09 1.47983e+09 0 1
140 2 0 1.48271e+09 1.48296e+09 1.48398e+09 1.48599e+09 0 1
141 1 0 1.4886e+09 1.48885e+09 1.48987e+09 1.49267e+09 0 0
142 1 0 1.50004e+09 1.50032e+09 1.50134e+09 1.50374e+09 1 0
143 1 0 1.51102e+09 1.51128e+09 1.5123e+09 1.5161e+09 1 0
144 1 0 1.52319e+09 1.52344e+09 1.52446e+09 1.53399e+09 1 0
145 1 0 1.5412e+09 1.54146e+09 1.54248e+09 1.54322e+09 0 0
146 1 0 1.5506e+09 1.55086e+09 1.55188e+09 1.55268e+09 0 0
147 1 1 1.55992e+09 1.56018e+09 1.5612e+09 1.56133e+09 0 1
148 2 1 1.56404e+09 1.56429e+09 1.56531e+09 1.57468e+09 0 0
149 2 0 1.58205e+09 1.5823e+09 1.58332e+09 1.58355e+09 1 1
150 2 0 1.58608e+09 1.58634e+09 1.58736e+09 1.58779e+09 0 1
151 1 0 1.59197e+09 1.59223e+09 1.59325e+09 1.59898e+09 0 0
152 1 0 1.60611e+09 1.60637e+09 1.60739e+09 1.6137e+09 1 0
153 1 0 1.62083e+09 1.62109e+09 1.62211e+09 1.63592e+09 1 0
154 1 0 1.64327e+09 1.64353e+09 1.64455e+09 1.65269e+09 1 0
155 1 0 1.66023e+09 1.6605e+09 1.66152e+09 1.66336e+09 0 0
156 1 0 1.6717e+09 1.67196e+09 1.67298e+09 1.68485e+09 0 0
157 1 0 1.69319e+09 1.69344e+09 1.69446e+09 1.70265e+09 0 0
158 1 1 1.70999e+09 1.71025e+09 1.71127e+09 1.7133e+09 0 1
159 2 0 1.71869e+09 1.71895e+09 1.71996e+09 1.7276e+09 0 1
160 1 0 1.73022e+09 1.73048e+09 1.7315e+09 1.74064e+09 0 0
161 1 0 1.74779e+09 1.74804e+09 1.74906e+09 1.75287e+09 1 0
162 1 0 1.75992e+09 1.76017e+09 1.76119e+09 1.76623e+09 1 0
163 1 0 1.77358e+09 1.77384e+09 1.77486e+09 1.77737e+09 1 0
164 1 0 1.78472e+09 1.78497e+09 1.78598e+09 1.78874e+09 0 0
165 1 0 1.79609e+09 1.79635e+09 1.79737e+09 1.79809e+09 0 0
166 1 0 1.80721e+09 1.80747e+09 1.80849e+09 1.81102e+09 0 0
167 1 1 1.82079e+09 1.82104e+09 1.82206e+09 1.82591e+09 0 1
168 1 1 1.82878e+09 1.82904e+09 1.83006e+09 1.83007e+09 0 1
169 2 0 1.83293e+09 1.83319e+09 1.83421e+09 1.83879e+09 0 1
170 2 0 1.84132e+09 1.84158e+09 1.8426e+09 1.84313e+09 0 1
171 2 0 1.84996e+09 1.85022e+09 1.85124e+09 1.8524e+09 0 1
172 2 0 1.85529e+09 1.85554e+09 1.85656e+09 1.85912e+09 0 1
173 1 0 1.86197e+09 1.86224e+09 1.86326e+09 1.87209e+09 0 0
174 1 0 1.88067e+09 1.88092e+09 1.88194e+09 1.89251e+09 1 0
175 1 1 1.89989e+09 1.90014e+09 1.90116e+09 1.90158e+09 1 1
176 1 1 1.90416e+09 1.90441e+09 1.90543e+09 1.90745e+09 0 1
177 2 0 1.91001e+09 1.91027e+09 1.91129e+09 1.91819e+09 0 1
178 1 0 1.92084e+09 1.92109e+09 1.92211e+09 1.92468e+09 0 0
179 1 0 1.93184e+09 1.93211e+09 1.93313e+09 1.94363e+09 1 0
180 1 1 1.95238e+09 1.95263e+09 1.95365e+09 1.95367e+09 1 1
181 2 1 1.95676e+09 1.957e+09 1.95802e+09 1.95834e+09 0 0
182 2 0 1.96631e+09 1.96657e+09 1.96759e+09 1.97409e+09 1 1
183 2 0 1.97691e+09 1.97717e+09 1.97819e+09 1.98323e+09 0 1
184 1 1 1.98827e+09 1.98852e+09 1.98954e+09 1.98961e+09 0 1
185 1 1 1.99235e+09 1.9926e+09 1.99362e+09 1.99498e+09 0 1
186 1 1 1.99788e+09 1.99814e+09 1.99916e+09 2.00416e+09 0 1
187 2 0 2.00716e+09 2.00742e+09 2.00844e+09 2.029e+09 0 1
188 2 1 2.03343e+09 2.03369e+09 2.03471e+09 2.03661e+09 0 0
189 2 0 2.04377e+09 2.04402e+09 2.04504e+09 2.05345e+09 1 1
190 1 0 2.05636e+09 2.05662e+09 2.05764e+09 2.08531e+09 0 0
191 1 0 2.09277e+09 2.09304e+09 2.09406e+09 2.09623e+09 1 0
192 1 0 2.10374e+09 2.104e+09 2.10502e+09 2.11848e+09 1 0
193 1 1 2.12575e+09 2.12601e+09 2.12703e+09 2.1271e+09 1 1
194 2 0 2.13003e+09 2.13028e+09 2.1313e+09 2.14197e+09 0 1
195 2 0 2.15047e+09 2.15072e+09 2.15174e+09 2.1629e+09 0 1
196 2 1 2.16545e+09 2.16572e+09 2.16674e+09 2.16766e+09 0 0
197 2 1 2.17473e+09 2.175e+09 2.17602e+09 2.17602e+09 1 0
198 2 0 2.18308e+09 2.18335e+09 2.18437e+09 2.18755e+09 1 1
199 2 0 2.19389e+09 2.19415e+09 2.19517e+09 2.19686e+09 0 1
200 1 1 2.19954e+09 2.1998e+09 2.20082e+09 2.20092e+09 0 1
201 1 1 2.20367e+09 2.20392e+09 2.20494e+09 2.20506e+09 0 1
202 1 0 2.20971e+09 2.20997e+09 2.21099e+09 2.21451e+09 0 0
203 1 1 2.22321e+09 2.22347e+09 2.22449e+09 2.22451e+09 1 1
204 2 0 2.22742e+09 2.22767e+09 2.22869e+09 2.22898e+09 0 1
205 2 0 2.23189e+09 2.23215e+09 2.23317e+09 2.23373e+09 0 1
206 1 1 2.24186e+09 2.24213e+09 2.24315e+09 2.24336e+09 0 1
207 2 1 2.24911e+09 2.24936e+09 2.25038e+09 2.25071e+09 0 0
208 2 0 2.25835e+09 2.2586e+09 2.25962e+09 2.26086e+09 1 1
209 1 0 2.26357e+09 2.26384e+09 2.26486e+09 2.26958e+09 0 0
210 1 1 2.27702e+09 2.27727e+09 2.27829e+09 2.27852e+09 1 1
211 2 0 2.28111e+09 2.28137e+09 2.28238e+09 2.29283e+09 0 1
212 1 0 2.29708e+09 2.29733e+09 2.29835e+09 2.30516e+09 0 0
213 1 1 2.3148e+09 2.31505e+09 2.31607e+09 2.3166e+09 1 1
214 2 0 2.31936e+09 2.31962e+09 2.32064e+09 2.3216e+09 0 1
215 1 1 2.32957e+09 2.32982e+09 2.33084e+09 2.33091e+09 0 1
216 2 0 2.33364e+09 2.3339e+09 2.33492e+09 2.33753e+09 0 1
217 1 0 2.34414e+09 2.3444e+09 2.34542e+09 2.35094e+09 0 0
218 1 0 2.35866e+09 2.35892e+09 2.35994e+09 2.3662e+09 1 0
219 1 0 2.37371e+09 2.37397e+09 2.37499e+09 2.38166e+09 1 0
220 1 0 2.38881e+09 2.38907e+09 2.39009e+09 2.39282e+09 1 0
221 2 0 2.40304e+09 2.40328e+09 2.4043e+09 2.41664e+09 0 1
222 1 0 2.41954e+09 2.41981e+09 2.42083e+09 2.42605e+09 0 0
223 1 0 2.43627e+09 2.43653e+09 2.43755e+09 2.43933e+09 1 0
224 1 0 2.44729e+09 2.44754e+09 2.44856e+09 2.45312e+09 1 0
225 1 0 2.46042e+09 2.46067e+09 2.46169e+09 2.46766e+09 1 0
226 1 1 2.47591e+09 2.47616e+09 2.47718e+09 2.48127e+09 0 1
227 2 0 2.49161e+09 2.49187e+09 2.49289e+09 2.49585e+09 0 1
228 1 0 2.5039e+09 2.50417e+09 2.50519e+09 2.50756e+09 0 0
229 1 0 2.51466e+09 2.51493e+09 2.51595e+09 2.51906e+09 1 0
230 1 0 2.52731e+09 2.52756e+09 2.52858e+09 2.5312e+09 1 0
231 1 0 2.54178e+09 2.54204e+09 2.54306e+09 2.54557e+09 1 0
232 2 0 2.55273e+09 2.55299e+09 2.55401e+09 2.55478e+09 0 1
233 2 0 2.55741e+09 2.55767e+09 2.55869e+09 2.55898e+09 0 1
234 2 0 2.56626e+09 2.56652e+09 2.56754e+09 2.57276e+09 0 1
235 1 1 2.58092e+09 2.58117e+09 2.58219e+09 2.5823e+09 0 1
236 1 1 2.58511e+09 2.58537e+09 2.58639e+09 2.59225e+09 0 1
237 1 0 2.59517e+09 2.59543e+09 2.59645e+09 2.6129e+09 0 0
238 1 0 2.61994e+09 2.6202e+09 2.62122e+09 2.6348e+09 1 0
239 1 1 2.64203e+09 2.6423e+09 2.64332e+09 2.65449e+09 1 1
240 1 0 2.65728e+09 2.65752e+09 2.65854e+09 2.66382e+09 0 0
241 1 0 2.67104e+09 2.67129e+09 2.67231e+09 2.67437e+09 1 0
242 1 1 2.68186e+09 2.68212e+09 2.68314e+09 2.69099e+09 1 1
243 1 1 2.69387e+09 2.69413e+09 2.69515e+09 2.72322e+09 0 1
244 2 0 2.72573e+09 2.72598e+09 2.727e+09 2.7301e+09 0 1
245 2 0 2.73647e+09 2.73674e+09 2.73776e+09 2.74601e+09 0 1
246 2 0 2.74852e+09 2.74877e+09 2.74979e+09 2.75404e+09 0 1
247 1 1 2.75674e+09 2.75699e+09 2.75801e+09 2.75803e+09 0 1
248 1 0 2.76064e+09 2.76089e+09 2.76191e+09 2.7631e+09 0 0
249 1 1 2.77039e+09 2.77065e+09 2.77167e+09 2.77169e+09 1 1
250 1 1 2.77454e+09 2.7748e+09 2.77582e+09 2.77583e+09 0 1
251 1 0 2.77869e+09 2.77894e+09 2.77996e+09 2.79762e+09 0 0
252 1 1 2.80653e+09 2.80677e+09 2.80779e+09 2.80916e+09 1 1
253 1 1 2.81197e+09 2.81223e+09 2.81325e+09 2.81356e+09 0 1
254 1 1 2.81656e+09 2.81682e+09 2.81784e+09 2.81785e+09 0 1
255 1 1 2.82048e+09 2.82073e+09 2.82175e+09 2.82176e+09 0 1
256 2 0 2.82461e+09 2.82486e+09 2.82588e+09 2.82827e+09 0 1
257 2 1 2.83344e+09 2.8337e+09 2.83472e+09 2.83592e+09 0 0
258 2 0 2.84355e+09 2.8438e+09 2.84482e+09 2.84727e+09 1 1
259 2 0 2.84981e+09 2.85007e+09 2.85109e+09 2.85263e+09 0 1
260 1 1 2.85518e+09 2.85544e+09 2.85646e+09 2.85654e+09 0 1
261 2 0 2.8595e+09 2.85976e+09 2.86078e+09 2.86142e+09 0 1
262 2 0 2.8642e+09 2.86446e+09 2.86548e+09 2.86603e+09 0 1
263 1 1 2.87039e+09 2.87064e+09 2.87166e+09 2.87169e+09 0 1
264 1 1 2.87442e+09 2.87466e+09 2.87568e+09 2.87589e+09 0 1
265 1 0 2.87932e+09 2.87957e+09 2.88059e+09 2.88072e+09 0 0
266 1 0 2.88799e+09 2.88824e+09 2.88926e+09 2.89317e+09 1 0
267 1 1 2.90025e+09 2.90051e+09 2.90153e+09 2.90165e+09 1 1
268 1 1 2.90444e+09 2.90469e+09 2.90571e+09 2.90573e+09 0 1
269 1 1 2.9139e+09 2.91415e+09 2.91517e+09 2.91556e+09 0 1
270 2 1 2.91811e+09 2.91836e+09 2.91938e+09 2.91949e+09 0 0
271 2 1 2.92845e+09 2.92871e+09 2.92973e+09 2.93074e+09 1 0
272 2 0 2.9382e+09 2.93845e+09 2.93947e+09 2.941e+09 1 1
273 2 0 2.94373e+09 2.94399e+09 2.94501e+09 2.94521e+09 0 1
274 1 1 2.95092e+09 2.95116e+09 2.95218e+09 2.95225e+09 0 1
275 2 1 2.95797e+09 2.95822e+09 2.95924e+09 2.95949e+09 0 0
276 2 1 2.96736e+09 2.96761e+09 2.96863e+09 2.96996e+09 1 0
277 2 1 2.98079e+09 2.98104e+09 2.98206e+09 2.98498e+09 1 0
278 2 0 2.99222e+09 2.99248e+09 2.9935e+09 2.99508e+09 1 1
279 2 0 2.99766e+09 2.99791e+09 2.99893e+09 2.99979e+09 0 1
280 1 1 3.01082e+09 3.01106e+09 3.01208e+09 3.01221e+09 0 1
281 2 0 3.02237e+09 3.02264e+09 3.02366e+09 3.02658e+09 0 1
282 1 1 3.02951e+09 3.02976e+09 3.03078e+09 3.0308e+09 0 1
283 1 1 3.03371e+09 3.03396e+09 3.03498e+09 3.03519e+09 0 1
284 1 0 3.038e+09 3.03825e+09 3.03927e+09 3.04231e+09 0 0
285 1 1 3.05125e+09 3.05151e+09 3.05253e+09 3.05801e+09 1 1
286 2 1 3.06452e+09 3.06477e+09 3.06579e+09 3.06953e+09 0 0
287 2 0 3.07831e+09 3.07856e+09 3.07958e+09 3.0825e+09 1 1
288 1 1 3.08508e+09 3.08532e+09 3.08634e+09 3.08641e+09 0 1
289 1 1 3.0893e+09 3.08956e+09 3.09058e+09 3.0906e+09 0 1
290 1 1 3.09332e+09 3.09358e+09 3.0946e+09 3.09488e+09 0 1
291 2 0 3.10032e+09 3.10058e+09 3.1016e+09 3.10235e+09 0 1
292 2 0 3.10502e+09 3.10527e+09 3.10629e+09 3.10816e+09 0 1
293 1 1 3.11073e+09 3.11098e+09 3.112e+09 3.11248e+09 0 1
294 2 0 3.11549e+09 3.11574e+09 3.11676e+09 3.11776e+09 0 1
295 1 1 3.13096e+09 3.13122e+09 3.13224e+09 3.13224e+09 0 1
296 2 0 3.13488e+09 3.13513e+09 3.13615e+09 3.13717e+09 0 1
297 2 0 3.13996e+09 3.14021e+09 3.14123e+09 3.14148e+09 0 1
298 2 0 3.15183e+09 3.15208e+09 3.1531e+09 3.1533e+09 0 1
299 2 1 3.15611e+09 3.15636e+09 3.15737e+09 3.15835e+09 0 0
300 2 0 3.16555e+09 3.16581e+09 3.16683e+09 3.17167e+09 1 1
301 1 1 3.17424e+09 3.1745e+09 3.17552e+09 3.17577e+09 0 1
302 2 0 3.18255e+09 3.1828e+09 3.18382e+09 3.18393e+09 0 1
303 2 0 3.18657e+09 3.18683e+09 3.18785e+09 3.18923e+09 0 1
304 1 1 3.1921e+09 3.19235e+09 3.19337e+09 3.19337e+09 0 1
305 2 1 3.20566e+09 3.20591e+09 3.20693e+09 3.21735e+09 0 0
306 2 0 3.22484e+09 3.2251e+09 3.22612e+09 3.22823e+09 1 1
307 1 1 3.23111e+09 3.23135e+09 3.23237e+09 3.23258e+09 0 1
308 2 1 3.23537e+09 3.23562e+09 3.23664e+09 3.23987e+09 0 0
309 2 0 3.24761e+09 3.24786e+09 3.24888e+09 3.25072e+09 1 1
310 2 0 3.25363e+09 3.25388e+09 3.2549e+09 3.25524e+09 0 1
311 1 1 3.26132e+09 3.26158e+09 3.26259e+09 3.2626e+09 0 1
312 2 0 3.26715e+09 3.2674e+09 3.26842e+09 3.27103e+09 0 1
313 1 1 3.27909e+09 3.27937e+09 3.28039e+09 3.2804e+09 0 1
314 2 0 3.28355e+09 3.2838e+09 3.28482e+09 3.28631e+09 0 1
315 2 0 3.2921e+09 3.29236e+09 3.29338e+09 3.29448e+09 0 1
316 2 0 3.3009e+09 3.30117e+09 3.30218e+09 3.30321e+09 0 1
317 1 1 3.30608e+09 3.30633e+09 3.30735e+09 3.30737e+09 0 1
318 1 1 3.31011e+09 3.31037e+09 3.31139e+09 3.31196e+09 0 1
319 1 1 3.31841e+09 3.31867e+09 3.31969e+09 3.3197e+09 0 1
320 2 0 3.32351e+09 3.32376e+09 3.32478e+09 3.32566e+09 0 1
321 2 1 3.32881e+09 3.32906e+09 3.33008e+09 3.33147e+09 0 0
322 2 1 3.34059e+09 3.34084e+09 3.34186e+09 3.34287e+09 1 0
323 2 1 3.35004e+09 3.35029e+09 3.35131e+09 3.36197e+09 1 0
324 2 0 3.3711e+09 3.37135e+09 3.37237e+09 3.37533e+09 1 1
325 2 0 3.38028e+09 3.38053e+09 3.38155e+09 3.38753e+09 0 1
326 1 1 3.39206e+09 3.39232e+09 3.39334e+09 3.39336e+09 0 1
327 2 0 3.39992e+09 3.40017e+09 3.40119e+09 3.40176e+09 0 1
328 1 1 3.40446e+09 3.40471e+09 3.40573e+09 3.40576e+09 0 1
329 1 1 3.40831e+09 3.40856e+09 3.40958e+09 3.40961e+09 0 1
330 1 1 3.41223e+09 3.41248e+09 3.4135e+09 3.41351e+09 0 1
331 1 1 3.41611e+09 3.41637e+09 3.41739e+09 3.4174e+09 0 1
332 1 1 3.42412e+09 3.42437e+09 3.42539e+09 3.42669e+09 0 1
333 1 1 3.42962e+09 3.42987e+09 3.43089e+09 3.4309e+09 0 1
334 2 1 3.43371e+09 3.43396e+09 3.43498e+09 3.43586e+09 0 0
335 2 0 3.44677e+09 3.44701e+09 3.44803e+09 3.44818e+09 1 1
336 2 0 3.45091e+09 3.45115e+09 3.45217e+09 3.45238e+09 0 1
337 1 1 3.46035e+09 3.4606e+09 3.46162e+09 3.46165e+09 0 1
338 2 0 3.46464e+09 3.46489e+09 3.46591e+09 3.4668e+09 0 1
339 1 1 3.47589e+09 3.47614e+09 3.47716e+09 3.47716e+09 0 1
340 1 1 3.48049e+09 3.48074e+09 3.48176e+09 3.48189e+09 0 1
341 2 0 3.48639e+09 3.48664e+09 3.48766e+09 3.48838e+09 0 1
342 2 0 3.4984e+09 3.49866e+09 3.49968e+09 3.50215e+09 0 1
343 2 1 3.50519e+09 3.50545e+09 3.50647e+09 3.50648e+09 0 0
344 2 0 3.51667e+09 3.51693e+09 3.51795e+09 3.51889e+09 1 1
345 1 1 3.52322e+09 3.52347e+09 3.52449e+09 3.52449e+09 0 1
346 2 0 3.52724e+09 3.52749e+09 3.52851e+09 3.53041e+09 0 1
347 2 0 3.53623e+09 3.53649e+09 3.53751e+09 3.53778e+09 0 1
348 1 1 3.54674e+09 3.547e+09 3.54802e+09 3.54811e+09 0 1
349 1 1 3.55522e+09 3.55547e+09 3.55649e+09 3.55658e+09 0 1
350 2 0 3.55953e+09 3.55978e+09 3.5608e+09 3.56167e+09 0 1
351 2 1 3.56654e+09 3.56679e+09 3.56781e+09 3.56814e+09 0 0
352 2 0 3.5766e+09 3.57685e+09 3.57787e+09 3.58045e+09 1 1
353 1 1 3.58365e+09 3.5839e+09 3.58492e+09 3.58499e+09 0 1
354 2 0 3.58786e+09 3.58812e+09 3.58914e+09 3.59007e+09 0 1
355 1 1 3.60621e+09 3.60646e+09 3.60748e+09 3.60751e+09 0 1
356 2 0 3.61126e+09 3.61151e+09 3.61253e+09 3.61263e+09 0 1
357 1 1 3.61553e+09 3.61577e+09 3.61679e+09 3.6168e+09 0 1
358 1 1 3.61971e+09 3.61997e+09 3.62099e+09 3.62108e+09 0 1
359 2 1 3.62384e+09 3.62408e+09 3.6251e+09 3.62513e+09 0 0
360 2 1 3.63509e+09 3.63536e+09 3.63638e+09 3.63646e+09 1 0
361 2 0 3.64356e+09 3.64381e+09 3.64483e+09 3.6449e+09 1 1
362 1 0 3.64751e+09 3.64777e+09 3.64879e+09 3.65119e+09 0 0
363 1 1 3.66412e+09 3.66437e+09 3.66539e+09 3.67535e+09 1 1
364 2 0 3.67801e+09 3.67825e+09 3.67927e+09 3.67936e+09 0 1
365 2 0 3.68515e+09 3.6854e+09 3.68642e+09 3.6902e+09 0 1
366 2 0 3.6932e+09 3.69345e+09 3.69447e+09 3.69608e+09 0 1
367 1 1 3.70348e+09 3.70373e+09 3.70475e+09 3.70484e+09 0 1
368 2 1 3.71019e+09 3.71044e+09 3.71146e+09 3.71147e+09 0 0
369 2 1 3.7196e+09 3.71984e+09 3.72086e+09 3.72915e+09 1 0
370 2 0 3.73648e+09 3.73673e+09 3.73775e+09 3.73978e+09 1 1
371 1 0 3.74948e+09 3.74973e+09 3.75075e+09 3.75174e+09 0 0
372 1 1 3.75914e+09 3.75939e+09 3.76041e+09 3.76065e+09 1 1
373 2 1 3.76343e+09 3.76369e+09 3.76471e+09 3.76648e+09 0 0
374 2 0 3.77472e+09 3.77497e+09 3.77599e+09 3.77666e+09 1 1
375 2 0 3.77933e+09 3.77958e+09 3.7806e+09 3.78157e+09 0 1
376 1 0 3.7884e+09 3.78865e+09 3.78967e+09 3.79009e+09 0 0
377 1 0 3.79916e+09 3.79942e+09 3.80044e+09 3.80275e+09 1 0
378 1 1 3.81091e+09 3.81116e+09 3.81218e+09 3.81249e+09 1 1
379 1 0 3.81534e+09 3.81559e+09 3.8166e+09 3.81688e+09 0 0
380 1 1 3.82506e+09 3.82531e+09 3.82633e+09 3.82703e+09 1 1
381 2 0 3.84134e+09 3.8416e+09 3.84262e+09 3.84296e+09 0 1
382 2 0 3.84557e+09 3.84583e+09 3.84685e+09 3.8474e+09 0 1
383 2 0 3.85032e+09 3.85058e+09 3.8516e+09 3.85276e+09 0 1
384 1 1 3.85571e+09 3.85597e+09 3.85699e+09 3.857e+09 0 1
385 2 1 3.86355e+09 3.8638e+09 3.86482e+09 3.86527e+09 0 0
386 2 0 3.87253e+09 3.87279e+09 3.87381e+09 3.87444e+09 1 1
387 2 0 3.87744e+09 3.8777e+09 3.87872e+09 3.87878e+09 0 1
388 1 1 3.88169e+09 3.88193e+09 3.88295e+09 3.88296e+09 0 1
389 1 1 3.88942e+09 3.88967e+09 3.89069e+09 3.8907e+09 0 1
390 1 1 3.89326e+09 3.89352e+09 3.89454e+09 3.90139e+09 0 1
391 2 1 3.90928e+09 3.90953e+09 3.91055e+09 3.91691e+09 0 0
392 2 0 3.92421e+09 3.92446e+09 3.92548e+09 3.92809e+09 1 1
393 2 0 3.93064e+09 3.93089e+09 3.93191e+09 3.93546e+09 0 1
394 1 1 3.93816e+09 3.93842e+09 3.93944e+09 3.93944e+09 0 1
395 2 0 3.94569e+09 3.94594e+09 3.94696e+09 3.94822e+09 0 1
396 2 1 3.95302e+09 3.95327e+09 3.95429e+09 3.95904e+09 0 0
397 2 1 3.96637e+09 3.96663e+09 3.96764e+09 3.97072e+09 1 0
398 2 0 3.97908e+09 3.97932e+09 3.98034e+09 3.98203e+09 1 1
399 2 0 3.98651e+09 3.98676e+09 3.98778e+09 3.98838e+09 0 1
400 1 1 3.99838e+09 3.99863e+09 3.99965e+09 3.99968e+09 0 1
401 2 0 4.00234e+09 4.0026e+09 4.00362e+09 4.00573e+09 0 1
402 2 1 4.00829e+09 4.00854e+09 4.00956e+09 4.00972e+09 0 0
403 2 0 4.0176e+09 4.01784e+09 4.01886e+09 4.01927e+09 1 1
404 2 0 4.0259e+09 4.02614e+09 4.02716e+09 4.02839e+09 0 1
405 2 0 4.03205e+09 4.0323e+09 4.03332e+09 4.03334e+09 0 1
406 1 1 4.03943e+09 4.03967e+09 4.04069e+09 4.04086e+09 0 1
407 1 1 4.04648e+09 4.04673e+09 4.04775e+09 4.04776e+09 0 1
408 2 1 4.05076e+09 4.05101e+09 4.05203e+09 4.05242e+09 0 0
409 2 0 4.0595e+09 4.05975e+09 4.06077e+09 4.06283e+09 1 1
410 1 1 4.06557e+09 4.06583e+09 4.06685e+09 4.06689e+09 0 1
411 1 1 4.07156e+09 4.07182e+09 4.07284e+09 4.07289e+09 0 1
412 2 1 4.07884e+09 4.0791e+09 4.08012e+09 4.08032e+09 0 0
413 2 0 4.08759e+09 4.08783e+09 4.08885e+09 4.08935e+09 1 1
414 1 1 4.09222e+09 4.09247e+09 4.09349e+09 4.09353e+09 0 1
415 1 1 4.09632e+09 4.09657e+09 4.09759e+09 4.0978e+09 0 1
416 2 0 4.10063e+09 4.10088e+09 4.1019e+09 4.10746e+09 0 1
417 1 0 4.11293e+09 4.1132e+09 4.11421e+09 4.11422e+09 0 0
418 1 0 4.12383e+09 4.1241e+09 4.12511e+09 4.12925e+09 1 0
419 1 0 4.13806e+09 4.13832e+09 4.13934e+09 4.14325e+09 1 0
420 1 1 4.15067e+09 4.15092e+09 4.15194e+09 4.15196e+09 1 1
421 2 1 4.15832e+09 4.15856e+09 4.15958e+09 4.16156e+09 0 0
422 2 0 4.17061e+09 4.17088e+09 4.17189e+09 4.17424e+09 1 1
423 1 0 4.17699e+09 4.17725e+09 4.17827e+09 4.17842e+09 0 0
424 1 0 4.18706e+09 4.18731e+09 4.18833e+09 4.19153e+09 1 0
425 1 1 4.19862e+09 4.19888e+09 4.1999e+09 4.20002e+09 1 1
426 1 0 4.20398e+09 4.20424e+09 4.20526e+09 4.2221e+09 0 0
427 1 0 4.22923e+09 4.22948e+09 4.2305e+09 4.23346e+09 1 0
428 1 1 4.2425e+09 4.24274e+09 4.24376e+09 4.24386e+09 1 1
429 2 0 4.24683e+09 4.24709e+09 4.24811e+09 4.24815e+09 0 1
430 1 1 4.25073e+09 4.25099e+09 4.25201e+09 4.25224e+09 0 1
431 1 1 4.25483e+09 4.25507e+09 4.25609e+09 4.2563e+09 0 1
432 2 0 4.25913e+09 4.25939e+09 4.26041e+09 4.26337e+09 0 1
433 2 1 4.26964e+09 4.26989e+09 4.27091e+09 4.27135e+09 0 0
434 2 1 4.27846e+09 4.27871e+09 4.27973e+09 4.28343e+09 1 0
435 2 0 4.29101e+09 4.29125e+09 4.29227e+09 4.29235e+09 1 1
436 1 1 190476 444888 1.46401e+06 1.53655e+06 0 1
437 2 0 5.92795e+06 6.17102e+06 7.19014e+06 9.10576e+06 0 1
438 1 1 1.47651e+07 1.50076e+07 1.60267e+07 1.61474e+07 0 1
439 1 1 1.90106e+07 1.92636e+07 2.02828e+07 2.05251e+07 0 1
440 2 1 2.31066e+07 2.33617e+07 2.43808e+07 3.59707e+07 0 0
441 2 0 4.30152e+07 4.32701e+07 4.42892e+07 4.90541e+07 1 1
442 1 1 5.73553e+07 5.76075e+07 5.86266e+07 5.89126e+07 0 1
443 1 1 6.68846e+07 6.7142e+07 6.81611e+07 6.81722e+07 0 1
444 1 1 7.08301e+07 7.10853e+07 7.21044e+07 7.21161e+07 0 1
445 1 1 7.46537e+07 7.49077e+07 7.59268e+07 7.59378e+07 0 1
446 2 0 7.86821e+07 7.89363e+07 7.99554e+07 8.0112e+07 0 1
447 2 1 8.6185e+07 8.64279e+07 8.7447e+07 8.74763e+07 0 0
448 2 0 9.46985e+07 9.49577e+07 9.59768e+07 9.65692e+07 1 1
449 2 0 1.03109e+08 1.03357e+08 1.04376e+08 1.06019e+08 0 1
450 2 0 1.08567e+08 1.08826e+08 1.09845e+08 1.11557e+08 0 1
451 2 1 1.17554e+08 1.17799e+08 1.18818e+08 1.19508e+08 0 0
452 2 0 1.26715e+08 1.26965e+08 1.27984e+08 1.29086e+08 1 1
453 2 0 1.32028e+08 1.32295e+08 1.33314e+08 1.35619e+08 0 1
454 2 0 1.38256e+08 1.3852e+08 1.39539e+08 1.39647e+08 0 1
455 1 1 1.44204e+08 1.44452e+08 1.45471e+08 1.45665e+08 0 1
456 2 0 1.503e+08 1.50549e+08 1.51568e+08 1.5159e+08 0 1
457 1 1 1.56087e+08 1.56344e+08 1.57363e+08 1.57406e+08 0 1
458 1 0 1.60188e+08 1.60432e+08 1.61451e+08 1.6648e+08 0 0
459 1 1 1.75228e+08 1.7548e+08 1.76499e+08 1.7667e+08 1 1
460 1 1 1.81343e+08 1.81594e+08 1.82613e+08 1.83041e+08 0 1
461 2 0 1.90634e+08 1.90894e+08 1.91914e+08 1.94736e+08 0 1
462 2 0 1.97424e+08 1.97674e+08 1.98693e+08 1.99573e+08 0 1
463 2 1 2.05633e+08 2.05882e+08 2.06901e+08 2.07311e+08 0 0
464 2 0 2.15023e+08 2.15273e+08 2.16292e+08 2.1856e+08 1 1
465 2 0 2.21434e+08 2.21687e+08 2.22706e+08 2.2351e+08 0 1
466 2 0 2.26176e+08 2.26434e+08 2.27453e+08 2.2978e+08 0 1
467 1 1 2.32954e+08 2.33198e+08 2.34217e+08 2.34307e+08 0 1
468 2 0 2.3734e+08 2.37587e+08 2.38606e+08 2.39012e+08 0 1
469 1 1 2.41957e+08 2.42214e+08 2.43233e+08 2.43239e+08 0 1
470 1 1 2.51764e+08 2.52017e+08 2.53036e+08 2.5314e+08 0 1
471 2 0 2.55854e+08 2.56112e+08 2.57131e+08 2.59433e+08 0 1
472 2 0 2.64294e+08 2.64558e+08 2.65577e+08 2.65725e+08 0 1
473 1 1 2.72245e+08 2.72499e+08 2.73518e+08 2.73838e+08 0 1
474 1 1 2.7672e+08 2.76984e+08 2.78003e+08 2.78228e+08 0 1
475 1 1 2.81087e+08 2.81346e+08 2.82365e+08 2.8238e+08 0 1
476 2 1 2.85404e+08 2.85665e+08 2.86684e+08 2.86728e+08 0 0
477 2 1 2.95024e+08 2.95279e+08 2.96298e+08 2.96509e+08 1 0
478 2 0 3.06051e+08 3.06307e+08 3.07326e+08 3.11741e+08 1 1
479 1 1 3.14519e+08 3.1478e+08 3.158e+08 3.1625e+08 0 1
480 1 1 3.19223e+08 3.19477e+08 3.20496e+08 3.20553e+08 0 1
481 1 1 3.23352e+08 3.236e+08 3.24619e+08 3.2464e+08 0 1
482 2 0 3.27244e+08 3.27502e+08 3.28521e+08 3.31171e+08 0 1
483 1 1 3.34013e+08 3.34269e+08 3.35288e+08 3.35372e+08 0 1
484 2 0 3.38379e+08 3.38642e+08 3.39662e+08 3.40655e+08 0 1
485 2 0 3.45335e+08 3.45594e+08 3.46613e+08 3.50701e+08 0 1
486 1 0 3.61645e+08 3.61895e+08 3.62915e+08 3.66365e+08 0 0
487 1 1 3.75331e+08 3.75584e+08 3.76604e+08 3.76789e+08 1 1
488 1 1 3.79697e+08 3.79947e+08 3.80967e+08 3.81197e+08 0 1
489 1 1 3.84038e+08 3.84296e+08 3.85315e+08 3.85399e+08 0 1
490 2 1 3.88291e+08 3.8854e+08 3.8956e+08 3.89617e+08 0 0
491 2 1 3.97042e+08 3.97293e+08 3.98312e+08 4.00619e+08 1 0
492 2 0 4.07736e+08 4.07993e+08 4.09012e+08 4.12592e+08 1 1
493 1 1 4.15352e+08 4.15617e+08 4.16636e+08 4.16664e+08 0 1
494 1 1 4.19365e+08 4.19626e+08 4.20645e+08 4.20651e+08 0 1
495 2 0 4.23596e+08 4.23841e+08 4.2486e+08 4.28229e+08 0 1
496 1 1 4.32283e+08 4.32529e+08 4.33548e+08 4.33587e+08 0 1
497 1 0 4.36494e+08 4.36748e+08 4.37767e+08 4.42175e+08 0 0
498 1 0 4.49956e+08 4.50205e+08 4.51224e+08 4.54913e+08 1 0
499 1 0 4.62146e+08 4.62402e+08 4.63421e+08 5.12909e+08 1 0
500 1 1 5.2035e+08 5.20599e+08 5.21618e+08 6.23903e+08 1 1
501 1 0 6.26801e+08 6.2705e+08 6.2807e+08 6.54499e+08 0 0
502 1 0 6.61641e+08 6.61906e+08 6.62925e+08 7.45976e+08 1 0
503 1 0 7.53404e+08 7.53669e+08 7.54688e+08 7.86322e+08 1 0
504 1 0 7.93523e+08 7.93786e+08 7.94805e+08 7.9608e+08 1 0
505 2 0 8.03402e+08 8.03664e+08 8.04683e+08 8.72633e+08 0 1
506 2 1 8.75346e+08 8.75595e+08 8.76614e+08 1.16953e+09 0 0
507 2 1 1.17673e+09 1.17699e+09 1.17801e+09 1.37221e+09 1 0
