trial trialType response stillTime stimOnset stimOffset respTime correctionTrial correct
001 2 1 3.00546e+06 3.26449e+06 4.29241e+06 4.44148e+06 0
001 002 1 0 1.55628e+07 1.5829e+07 1.68997e+07 1.71736e+07 0
001 003 1 0 1.95052e+07 1.97568e+07 2.08956e+07 2.35979e+07 0
001 004 1 0 3.02244e+07 3.04889e+07 3.19722e+07 4.15083e+07 0
001 005 1 0 5.62104e+07 5.64718e+07 5.79392e+07 7.14939e+07 0
001 006 1 0 8.14275e+07 8.16894e+07 8.24003e+07 1.00456e+08 0
001 007 1 0 1.14621e+08 1.1489e+08 1.1636e+08 1.16679e+08 0
001 008 1 0 1.34052e+08 1.34303e+08 1.34941e+08 1.6176e+08 0
001 009 1 0 1.69811e+08 1.7008e+08 1.71463e+08 1.82063e+08 0
001 010 1 1 1.96441e+08 1.967e+08 1.97951e+08 2.06184e+08 0
000 011 1 0 2.14159e+08 2.14423e+08 2.15675e+08 2.24106e+08 1
001 012 1 1 2.26377e+08 2.26642e+08 2.2755e+08 2.27982e+08 0
000 013 1 1 2.38602e+08 2.3886e+08 2.39768e+08 2.47227e+08 1
000 014 1 1 2.54666e+08 2.5492e+08 2.55829e+08 2.615e+08 1
000 015 1 0 2.69655e+08 2.69907e+08 2.70815e+08 2.73891e+08 1
001 016 1 0 2.78338e+08 2.78602e+08 2.79481e+08 2.86757e+08 0
001 017 2 0 2.95992e+08 2.96246e+08 2.97079e+08 3.12934e+08 0
000 018 2 0 3.2021e+08 3.2047e+08 3.21303e+08 3.26584e+08 1
000 019 2 0 3.34815e+08 3.35077e+08 3.3591e+08 3.41328e+08 1
000 020 2 0 3.49471e+08 3.49732e+08 3.50565e+08 3.54784e+08 1
000 021 1 1 3.66766e+08 3.67026e+08 3.68169e+08 3.68243e+08 0
000 022 1 1 3.75617e+08 3.75871e+08 3.7646e+08 3.80291e+08 0
000 023 1 0 3.87686e+08 3.87939e+08 3.88673e+08 3.88878e+08 0
001 024 1 0 3.99283e+08 3.99575e+08 4.00547e+08 4.02274e+08 0
001 025 2 0 4.11078e+08 4.11342e+08 4.12356e+08 4.15292e+08 0
000 026 2 0 4.22774e+08 4.23029e+08 4.24043e+08 4.42307e+08 1
000 027 2 0 4.4945e+08 4.49719e+08 4.50732e+08 4.51497e+08 1
000 028 2 0 4.62332e+08 4.62599e+08 4.63613e+08 4.65201e+08 1
000 029 2 0 4.75346e+08 4.756e+08 4.76099e+08 4.83051e+08 0
000 030 1 0 4.90459e+08 4.90722e+08 4.91295e+08 5.14525e+08 0
001 031 1 0 5.22037e+08 5.22304e+08 5.23523e+08 5.27088e+08 0
001 032 1 0 5.33591e+08 5.33853e+08 5.34649e+08 5.43789e+08 0
001 033 1 0 5.53553e+08 5.53816e+08 5.547e+08 5.56237e+08 0
001 034 1 0 5.70846e+08 5.71105e+08 5.71765e+08 5.72394e+08 0
001 035 2 0 5.83859e+08 5.84114e+08 5.84674e+08 5.99019e+08 0
000 036 2 1 6.06199e+08 6.06454e+08 6.07014e+08 6.07833e+08 1
001 037 2 0 6.12665e+08 6.12922e+08 6.13738e+08 6.8881e+08 0
000 038 2 0 6.96004e+08 6.9626e+08 6.97075e+08 7.03828e+08 1
000 039 2 0 7.10955e+08 7.11213e+08 7.12028e+08 7.25643e+08 1
000 040 2 0 7.33386e+08 7.33655e+08 7.34471e+08 7.63637e+08 1
000 041 2 1 7.71183e+08 7.71449e+08 7.72106e+08 7.82059e+08 0
001 042 2 0 7.84665e+08 7.84921e+08 7.86382e+08 7.92088e+08 0
000 043 2 1 8.06127e+08 8.06395e+08 8.07857e+08 8.08195e+08 1
001 044 1 0 8.10912e+08 8.11166e+08 8.12191e+08 8.24982e+08 0
001 045 1 0 8.38257e+08 8.38517e+08 8.40007e+08 8.46229e+08 0
001 046 2 0 8.58095e+08 8.5835e+08 8.59303e+08 8.63747e+08 0
000 047 2 0 8.71038e+08 8.71303e+08 8.72257e+08 8.82443e+08 1
000 048 2 0 8.89573e+08 8.89832e+08 8.90786e+08 9.20755e+08 1
000 049 2 0 9.27997e+08 9.28256e+08 9.2921e+08 9.70423e+08 1
000 050 2 0 9.77858e+08 9.78122e+08 9.79126e+08 1.02157e+09 0
000 051 2 0 1.02952e+09 1.02978e+09 1.03107e+09 1.03211e+09 0
000 052 2 0 1.03934e+09 1.0396e+09 1.04065e+09 1.09005e+09 0
000 053 2 1 1.09734e+09 1.0976e+09 1.0985e+09 1.15835e+09 0
001 054 2 0 1.17324e+09 1.17351e+09 1.17462e+09 1.18297e+09 0
000 055 2 0 1.19017e+09 1.19044e+09 1.19156e+09 1.21024e+09 1
000 056 2 1 1.22036e+09 1.22062e+09 1.22174e+09 1.29829e+09 1
001 057 2 0 1.30379e+09 1.3041e+09 1.30531e+09 1.30625e+09 0
000 058 2 0 1.3135e+09 1.31376e+09 1.31497e+09 1.32516e+09 1
000 059 2 0 1.33224e+09 1.3325e+09 1.33371e+09 1.33607e+09 1
000 060 2 0 1.34351e+09 1.34376e+09 1.34498e+09 1.35862e+09 1
000 061 1 0 1.36838e+09 1.36864e+09 1.36934e+09 1.41425e+09 0
001 062 2 1 1.41654e+09 1.41681e+09 1.41759e+09 1.41858e+09 0
001 063 1 0 1.42265e+09 1.4229e+09 1.42368e+09 1.43496e+09 0
001 064 2 0 1.44274e+09 1.443e+09 1.44407e+09 1.50946e+09 0
000 065 2 1 1.51682e+09 1.51708e+09 1.51814e+09 1.51853e+09 1
001 066 1 1 1.52115e+09 1.52141e+09 1.52241e+09 1.52249e+09 0
000 067 1 1 1.53129e+09 1.53154e+09 1.53254e+09 1.53269e+09 1
000 068 1 0 1.54553e+09 1.54579e+09 1.54678e+09 1.55167e+09 1
001 069 1 0 1.55815e+09 1.55841e+09 1.55986e+09 1.56311e+09 0
001 070 2 0 1.57349e+09 1.57376e+09 1.5744e+09 1.62679e+09 0
000 071 2 0 1.63414e+09 1.63439e+09 1.63504e+09 1.6452e+09 1
000 072 2 0 1.65418e+09 1.65443e+09 1.65507e+09 1.65815e+09 1
000 073 2 0 1.6663e+09 1.66655e+09 1.6672e+09 1.67091e+09 1
000 074 2 1 1.67802e+09 1.67828e+09 1.67944e+09 1.68235e+09 0
001 075 2 0 1.68612e+09 1.68637e+09 1.68704e+09 1.68808e+09 0
000 076 2 0 1.69545e+09 1.69572e+09 1.69639e+09 1.70742e+09 1
000 077 2 0 1.71454e+09 1.71481e+09 1.71548e+09 1.76055e+09 1
000 