trial trialType response stillTime stimOnset stimOffset respTime correctionTrial correct
001 2 1 3.09147e+06 3.3754e+06 4.76524e+06 6.10845e+08 0
001 002 1 0 6.17519e+08 6.17789e+08 6.18563e+08 6.19687e+08 0
001 003 2 0 6.22961e+08 6.23221e+08 6.24527e+08 6.24922e+08 0
000 004 2 1 6.58682e+08 6.58935e+08 6.60241e+08 6.62809e+08 1
001 005 1 1 6.65532e+08 6.65798e+08 6.67097e+08 6.71903e+08 0
000 006 1 1 6.91855e+08 6.92119e+08 6.93418e+08 6.94908e+08 1
000 007 1 1 7.0199e+08 7.02253e+08 7.03552e+08 7.09464e+08 1
000 008 1 0 7.16954e+08 7.17222e+08 7.18521e+08 7.24474e+08 1
001 009 1 0 7.41074e+08 7.41327e+08 7.42413e+08 7.44836e+08 0
001 010 1 1 7.5025e+08 7.50511e+08 7.51971e+08 7.52353e+08 0
000 011 1 1 7.66486e+08 7.6675e+08 7.6821e+08 7.70639e+08 1
000 012 1 0 7.84605e+08 7.8486e+08 7.8632e+08 7.86528e+08 1
001 013 2 0 8.25973e+08 8.26235e+08 8.27144e+08 8.33141e+08 0
000 014 2 0 8.40237e+08 8.40496e+08 8.41405e+08 8.45944e+08 1
000 015 2 0 8.60999e+08 8.61259e+08 8.62168e+08 8.63864e+08 1
000 016 2 0 8.70913e+08 8.71181e+08 8.7209e+08 8.74513e+08 1
000 017 1 0 8.86987e+08 8.87254e+08 8.88254e+08 8.89621e+08 0
001 018 1 0 9.01783e+08 9.02049e+08 9.03025e+08 9.05917e+08 0
001 019 2 0 9.0899e+08 9.09257e+08 9.0989e+08 9.12759e+08 0
000 020 2 1 9.20448e+08 9.2071e+08 9.21343e+08 9.23942e+08 1
001 021 1 0 9.41202e+08 9.41462e+08 9.42814e+08 9.57389e+08 0
001 022 2 0 9.5986e+08 9.60115e+08 9.60771e+08 9.66686e+08 0
000 023 2 0 9.74568e+08 9.74822e+08 9.75477e+08 9.84483e+08 1
000 024 2 0 9.92738e+08 9.93001e+08 9.93657e+08 1.00529e+09 1
000 025 2 0 1.01247e+09 1.01275e+09 1.0134e+09 1.01507e+09 1
000 026 1 0 1.02648e+09 1.02675e+09 1.02768e+09 1.03598e+09 0
001 027 2 0 1.03839e+09 1.03866e+09 1.03949e+09 1.04314e+09 0
000 028 2 0 1.06163e+09 1.0619e+09 1.06272e+09 1.06552e+09 1
000 029 2 0 1.09724e+09 1.09752e+09 1.09834e+09 1.10204e+09 1
000 030 2 0 1.11258e+09 1.11284e+09 1.11366e+09 1.11633e+09 1
000 031 2 0 1.12946e+09 1.12973e+09 1.13042e+09 1.13266e+09 0
000 032 2 0 1.14281e+09 1.14307e+09 1.14429e+09 1.15318e+09 0
000 033 1 0 1.16045e+09 1.16073e+09 1.16151e+09 1.1633e+09 0
001 034 1 0 1.18906e+09 1.18932e+09 1.19049e+09 1.19389e+09 0
001 035 2 0 1.23897e+09 1.23924e+09 1.23981e+09 1.24682e+09 0
000 036 2 0 1.25406e+09 1.25433e+09 1.25489e+09 1.25666e+09 1
000 037 2 0 1.29017e+09 1.29042e+09 1.29099e+09 1.30096e+09 1
000 038 2 0 1.31155e+09 1.3118e+09 1.31237e+09 1.31693e+09 1
000 039 2 0 1.3256e+09 1.32587e+09 1.32679e+09 1.32932e+09 0
000 040 1 0 1.33737e+09 1.33763e+09 1.33906e+09 1.34603e+09 0
001 041 1 0 1.37584e+09 1.3761e+09 1.37681e+09 1.38117e+09 0
001 042 1 0 1.39272e+09 1.393e+09 1.39385e+09 1.3953e+09 0
001 043 1 0 1.40258e+09 1.40284e+09 1.40414e+09 1.41014e+09 0
001 044 2 0 1.43115e+09 1.43141e+09 1.43272e+09 1.43707e+09 0
000 045 2 0 1.46842e+09 1.46867e+09 1.46998e+09 1.4702e+09 1
000 046 2 0 1.48435e+09 1.48462e+09 1.48594e+09 1.49208e+09 1
000 047 2 0 1.51901e+09 1.51927e+09 1.52058e+09 1.52569e+09 1
000 048 2 0 1.54202e+09 1.54229e+09 1.54323e+09 1.5573e+09 0
000 049 1 0 1.56519e+09 1.56545e+09 1.56678e+09 1.5759e+09 0
001 050 1 0 1.62309e+09 1.62336e+09 1.62425e+09 1.6276e+09 0
001 051 1 0 1.62993e+09 1.63018e+09 1.63147e+09 1.64413e+09 0
001 052 1 0 1.64715e+09 1.64741e+09 1.64822e+09 1.6514e+09 0
001 053 1 0 1.66531e+09 1.66558e+09 1.6663e+09 1.6689e+09 0
001 054 2 0 1.69971e+09 1.69998e+09 1.70049e+09 1.70611e+09 0
000 055 2 1 1.7173e+09 1.71757e+09 1.71808e+09 1.71865e+09 1
001 056 1 0 1.76163e+09 1.76188e+09 1.76324e+09 1.76431e+09 0
001 057 1 0 1.78694e+09 1.78721e+09 1.78856e+09 1.79298e+09 0
001 058 2 1 1.81045e+09 1.8107e+09 1.81152e+09 1.81235e+09 0
001 059 1 1 1.82182e+09 1.82208e+09 1.8231e+09 1.82364e+09 0
000 060 1 0 1.8591e+09 1.85936e+09 1.86039e+09 1.86195e+09 1
001 061 2 0 1.87338e+09 1.87364e+09 1.87426e+09 1.87866e+09 0
000 062 2 0 1.89085e+09 1.89113e+09 1.89174e+09 1.89558e+09 1
000 063 2 0 1.90799e+09 1.90825e+09 1.90886e+09 1.91338e+09 1
000 064 2 0 1.92569e+09 1.92595e+09 1.92656e+09 1.92759e+09 1
000 065 2 0 1.93974e+09 1.94001e+09 1.94095e+09 1.94353e+09 0
000 066 2 0 1.9517e+09 1.95196e+09 1.9527e+09 1.95437e+09 0
000 067 2 1 1.96193e+09 1.96221e+09 1.96332e+09 1.96849e+09 0
001 068 2 0 1.97558e+09 1.97585e+09 1.97728e+09 1.97757e+09 0
000 069 2 0 1.98809e+09 1.98835e+09 1.98978e+09 1.99207e+09 1
000 070 2 0 2.01518e+09 2.01544e+09 2.01687e+09 2.03207e+09 1
000 071 2 0 2.0394e+09 2.03967e+09 2.04111e+09 2.04743e+09 1
000 072 1 0 2.06691e+09 2.06718e+09 2.06806e+09 2.06835e+09 0
001 073 1 0 2.07865e+09 2.07892e+09 2.07969e+09 2.08027e+09 0
001 074 1 0 2.08526e+09 2.08552e+09 2.08698e+09 2.09089e+09 0
001 075 1 0 2.09357e+09 2.09383e+09 2.0945e+09 2.09833e+09 0
001 076 2 0 2.11082e+09 2.11109e+09 2.11207e+09 2.11473e+09 0
000 077 2 0 2.12357e+09 2.12383e+09 2.12481e+09 2.13241e+09 1
000 078 2 0 2.14011e+09 2.14036e+09 2.14134e+09 2.14299e+09 1
000 079 2 0 2.15519e+09 2.15545e+09 2.15643e+09 2.16321e+09 1
000 080 2 1 2.17335e+09 2.17362e+09 2.17511e+09 2.17569e+09 0
001 081 2 0 2.18135e+09 2.18161e+09 2.1825e+09 2.19345e+09 0
000 082 2 1 2.20277e+09 2.20303e+09 2.20393e+09 2.20433e+09 1
001 083 1 0 2.20978e+09 2.21004e+09 2.21074e+09 2.21526e+09 0
001 084 1 1 2.21758e+09 2.21784e+09 2.21922e+09 2.2218e+09 0
000 085 1 0 2.23041e+09 2.23069e+09 2.23207e+09 2.23497e+09 1
001 086 1 0 2.23896e+09 2.23922e+09 2.2401e+09 2.24135e+09 0
001 087 1 0 2.24543e+09 2.24569e+09 2.24665e+09 2.25409e+09 0
001 088 1 0 2.25681e+09 2.25709e+09 2.25833e+09 2.25945e+09 0
001 089 2 0 2.26462e+09 2.26489e+09 2.26563e+09 2.26712e+09 0
000 090 2 0 2.285e+09 2.28527e+09 2.28602e+09 2.28724e+09 1
000 091 2 0 2.30011e+09 2.30038e+09 2.30112e+09 2.30149e+09 1
000 092 2 0 2.30898e+09 2.30923e+09 2.30998e+09 2.31157e+09 1
000 093 1 0 2.31866e+09 2.31893e+09 2.32016e+09 2.32053e+09 0
001 094 1 0 2.32584e+09 2.3261e+09 2.32661e+09 2.32893e+09 0
001 095 2 0 2.34415e+09 2.34442e+09 2.34509e+09 2.34776e+09 0
000 096 2 0 2.35683e+09 2.3571e+09 2.35778e+09 2.361e+09 1
000 097 2 1 2.37269e+09 2.37294e+09 2.37361e+09 2.37375e+09 1
001 098 2 1 2.40001e+09 2.40028e+09 2.40173e+09 2.40203e+09 0
001 099 2 0 2.41819e+09 2.41845e+09 2.41943e+09 2.41947e+09 0
000 100 2 1 2.43602e+09 2.43629e+09 2.43727e+09 2.43881e+09 1
001 101 1 0 2.4505e+09 2.45076e+09 2.45186e+09 2.46066e+09 0
001 102 1 0 2.47818e+09 2.47844e+09 2.47902e+09 2.48409e+09 0
001 103 2 1 2.49795e+09 2.4982e+09 2.49876e+09 2.49941e+09 0
001 104 2 1 2.51133e+09 2.5116e+09 2.51272e+09 2.51341e+09 0
001 105 1 1 2.51778e+09 2.51804e+09 2.51913e+09 2.5201e+09 0
000 106 1 1 2.53206e+09 2.53233e+09 2.53342e+09 2.53457e+09 1
000 107 1 1 2.54455e+09 2.54481e+09 2.54591e+09 2.54653e+09 1
000 108 1 1 2.55591e+09 2.55617e+09 2.55727e+09 2.55867e+09 1
000 109 1 0 2.56902e+09 2.56929e+09 2.57008e+09 2.57053e+09 0
001 110 1 1 2.5936e+09 2.59386e+09 2.59472e+09 2.59534e+09 0
000 111 1 0 2.60431e+09 2.60457e+09 2.60543e+09 2.61099e+09 1
001 112 1 0 2.61918e+09 2.61945e+09 2.62031e+09 2.63309e+09 0
001 113 2 0 2.64662e+09 2.64689e+09 2.64758e+09 2.651e+09 0
000 114 2 0 2.6642e+09 2.66447e+09 2.66516e+09 2.67048e+09 1
000 115 2 0 2.67989e+09 2.68016e+09 2.68086e+09 2.68114e+09 1
000 116 2 0 2.69558e+09 2.69585e+09 2.69655e+09 2.69718e+09 1
000 117 2 0 2.71379e+09 2.71405e+09 2.71491e+09 2.7153e+09 0
000 118 2 1 2.73116e+09 2.73143e+09 2.73203e+09 2.73235e+09 0
001 119 2 0 2.75468e+09 2.75495e+09 2.75587e+09 2.76038e+09 0
000 120 2 0 2.76826e+09 2.76857e+09 2.76948e+09 2.77244e+09 1
000 121 2 0 2.78464e+09 2.7849e+09 2.78581e+09 2.79e+09 1
000 122 2 0 2.799e+09 2.79927e+09 2.80018e+09 2.82382e+09 1
000 123 1 0 2.83098e+09 2.83125e+09 2.83267e+09 2.83781e+09 0
001 124 2 0 2.85083e+09 2.85109e+09 2.85168e+09 2.85579e+09 0
000 125 2 0 2.86633e+09 2.8666e+09 2.86719e+09 2.87529e+09 1
000 126 2 0 2.88338e+09 2.88364e+09 2.88423e+09 2.88583e+09 1
000 127 2 0 2.8947e+09 2.89496e+09 2.89555e+09 2.89748e+09 1
000 128 2 0 2.90459e+09 2.90486e+09 2.90567e+09 2.90715e+09 0
000 129 1 0 2.91557e+09 2.91582e+09 2.91728e+09 2.92789e+09 0
001 130 1 0 2.9315e+09 2.93176e+09 2.933e+09 2.95046e+09 0
001 131 2 0 2.96058e+09 2.96085e+09 2.96218e+09 2.97856e+09 0
000 132 2 0 2.9897e+09 2.98996e+09 2.9913e+09 2.99517e+09 1
000 133 2 0 3.00255e+09 3.00281e+09 3.00414e+09 3.01843e+09 1
000 134 2 0 3.04248e+09 3.04275e+09 3.04409e+09 3.05389e+09 1
000 135 2 1 3.06202e+09 3.06232e+09 3.06372e+09 3.07011e+09 0
001 136 2 1 3.11712e+09 3.11739e+09 3.11835e+09 3.11879e+09 0
001 137 2 1 3.1393e+09 3.13956e+09 3.14094e+09 3.14134e+09 0
001 138 2 1 3.16068e+09 3.16094e+09 3.16224e+09 3.16254e+09 0
001 139 1 0 3.17888e+09 3.17915e+09 3.17994e+09 3.18181e+09 0
001 140 2 0 3.18811e+09 3.18837e+09 3.18928e+09 3.18967e+09 0
000 141 2 1 3.20216e+09 3.20242e+09 3.20333e+09 3.2034e+09 1
001 142 1 1 3.22804e+09 3.2283e+09 3.22944e+09 3.23212e+09 0
000 143 1 1 3.23941e+09 3.23967e+09 3.24081e+09 3.24148e+09 1
000 144 1 1 3.24859e+09 3.24886e+09 3.25e+09 3.25093e+09 1
000 145 1 1 3.26149e+09 3.26174e+09 3.26288e+09 3.26773e+09 1
000 146 1 0 3.27728e+09 3.27754e+09 3.27846e+09 3.27876e+09 0
001 147 1 0 3.29324e+09 3.2935e+09 3.29422e+09 3.30954e+09 0
001 148 2 0 3.31236e+09 3.31263e+09 3.31383e+09 3.31412e+09 0
000 149 2 0 3.3215e+09 3.32176e+09 3.32297e+09 3.32511e+09 1
000 150 2 0 3.33226e+09 3.33253e+09 3.33373e+09 3.33791e+09 1
000 151 2 0 3.34812e+09 3.34838e+09 3.34959e+09 3.35014e+09 1
000 152 2 0 3.36134e+09 3.3616e+09 3.36248e+09 3.36832e+09 0
000 153 2 0 3.37819e+09 3.37846e+09 3.37944e+09 3.38264e+09 0
000 154 1 0 3.39338e+09 3.39365e+09 3.39424e+09 3.3964e+09 0
001 155 2 0 3.45865e+09 3.45893e+09 3.45978e+09 3.46602e+09 0
000 156 2 0 3.4753e+09 3.47556e+09 3.47642e+09 3.48609e+09 1
000 157 2 0 3.49508e+09 3.49535e+09 3.4962e+09 3.50201e+09 1
000 158 2 0 3.50931e+09 3.50957e+09 3.51043e+09 3.51276e+09 1
000 159 1 0 3.52024e+09 3.5205e+09 3.5213e+09 3.55942e+09 0
001 160 2 1 3.56186e+09 3.56212e+09 3.56297e+09 3.56429e+09 0
001 161 2 0 3.57866e+09 3.57893e+09 3.57987e+09 3.58022e+09 0
000 162 2 0 3.58728e+09 3.58755e+09 3.58848e+09 3.6089e+09 1
000 163 2 0 3.61625e+09 3.61651e+09 3.61744e+09 3.71646e+09 1
000 164 2 0 3.73461e+09 3.73488e+09 3.73581e+09 3.74514e+09 1
000 165 1 1 3.75698e+09 3.75725e+09 3.75861e+09 3.78144e+09 0
000 166 2 1 3.79229e+09 3.79254e+09 3.79327e+09 3.80576e+09 0
001 167 1 0 3.81446e+09 3.81472e+09 3.8158e+09 3.81618e+09 0
001 168 2 1 3.82767e+09 3.82793e+09 3.82892e+09 3.8339e+09 0
001 169 2 1 3.85827e+09 3.85853e+09 3.85967e+09 3.85995e+09 0
001 170 2 1 3.87011e+09 3.87037e+09 3.87141e+09 3.87288e+09 0
001 171 2 1 3.90335e+09 3.90364e+09 3.90467e+09 3.90507e+09 0
001 172 2 0 3.9281e+09 3.92837e+09 3.92896e+09 3.92927e+09 0
000 173 2 1 3.93705e+09 3.93731e+09 3.9379e+09 3.93859e+09 1
001 174 2 1 3.95222e+09 3.95248e+09 3.95317e+09 3.95603e+09 0
001 175 1 0 3.97385e+09 3.9741e+09 3.97548e+09 3.98099e+09 0
001 176 1 0 3.99093e+09 3.99119e+09 3.99189e+09 3.99842e+09 0
001 177 2 0 4.0008e+09 4.00106e+09 4.002e+09 4.00802e+09 0
000 178 2 0 4.01541e+09 4.01567e+09 4.01662e+09 4.02276e+09 1
000 179 2 0 4.03036e+09 4.03062e+09 4.03157e+09 4.03355e+09 1
000 180 2 1 4.04196e+09 4.04222e+09 4.04317e+09 4.04343e+09 1
001 181 2 1 4.05046e+09 4.05072e+09 4.05156e+09 4.05193e+09 0
001 182 2 1 4.05699e+09 4.05726e+09 4.05789e+09 4.05812e+09 0
001 183 2 1 4.06309e+09 4.06336e+09 4.06463e+09 4.06491e+09 0
001 184 2 1 4.07358e+09 4.07384e+09 4.07458e+09 4.07526e+09 0
001 185 2 1 4.10993e+09 4.1102e+09 4.11081e+09 4.11156e+09 0
001 186 2 1 4.13226e+09 4.13251e+09 4.13364e+09 4.13815e+09 0
001 187 1 1 4.14098e+09 4.14124e+09 4.14234e+09 4.14331e+09 0
000 188 1 0 4.16727e+09 4.16754e+09 4.16864e+09 4.17206e+09 1
001 189 2 1 4.18492e+09 4.18518e+09 4.18644e+09 4.18746e+09 0
001 190 1 1 4.20233e+09 4.20258e+09 4.20327e+09 4.2035e+09 0
000 191 1 1 4.21208e+09 4.21234e+09 4.21303e+09 4.21826e+09 1
000 192 1 1 4.2296e+09 4.22986e+09 4.23054e+09 4.2346e+09 1
000 193 1 0 4.24705e+09 4.24731e+09 4.248e+09 4.25273e+09 1
001 194 2 1 4.26692e+09 4.26718e+09 4.26801e+09 4.26852e+09 0
001 195 1 1 4.27675e+09 4.27701e+09 4.27783e+09 4.27833e+09 0
000 196 1 1 4.28642e+09 4.28668e+09 4.2875e+09 4.28772e+09 1
000 197 1 0 1.22716e+07 1.25428e+07 1.33673e+07 1.35857e+07 1
001 198 2 0 1.82856e+07 1.85508e+07 1.9992e+07 2.07491e+07 0
000 199 2 0 2.84027e+07 2.86647e+07 3.01059e+07 3.05e+07 1
000 200 2 0 3.793e+07 3.81847e+07 3.96259e+07 4.41274e+07 1
000 201 2 0 5.14181e+07 5.16801e+07 5.31213e+07 5.34162e+07 1
000 202 2 0 6.07949e+07 6.10663e+07 6.24479e+07 9.0789e+07 0
000 203 1 0 9.96455e+07 9.991e+07 1.01204e+08 1.18261e+08 0
001 204 1 0 1.21653e+08 1.21907e+08 1.22578e+08 1.2285e+08 0
001 205 2 0 1.32236e+08 1.32506e+08 1.33059e+08 1.38032e+08 0
000 206 2 0 1.52603e+08 1.52861e+08 1.53413e+08 1.93903e+08 1
000 207 2 0 2.03195e+08 2.03458e+08 2.04011e+08 2.1033e+08 1
000 208 2 1 2.1741e+08 2.17668e+08 2.18221e+08 2.29868e+08 1
001 209 2 0 2.42323e+08 2.42589e+08 2.43775e+08 2.49051e+08 0
000 210 2 1 2.56716e+08 2.56979e+08 2.58164e+08 2.69323e+08 1
001 211 2 1 2.72152e+08 2.72414e+08 2.73396e+08 2.80463e+08 0
001 212 2 0 2.83318e+08 2.83574e+08 2.84864e+08 2.91559e+08 0
000 213 2 0 2.99887e+08 3.00146e+08 3.01436e+08 3.04868e+08 1
000 214 2 0 3.12132e+08 3.12397e+08 3.13687e+08 3.57196e+08 1
000 215 2 0 3.6441e+08 3.64688e+08 3.65978e+08 3.78692e+08 1
000 216 2 1 3.93302e+08 3.93563e+08 3.94633e+08 3.95125e+08 0
001 217 2 0 4.06688e+08 4.06945e+08 4.07513e+08 4.12221e+08 0
000 218 2 0 4.20806e+08 4.21069e+08 4.21637e+08 4.30044e+08 1
000 219 2 0 4.39582e+08 4.39835e+08 4.40403e+08 4.43792e+08 1
000 220 2 1 4.54267e+08 4.54522e+08 4.5509e+08 4.58728e+08 1
001 221 1 1 4.65553e+08 4.65823e+08 4.66482e+08 4.88691e+08 0
000 222 1 0 4.961e+08 4.96362e+08 4.97021e+08 5.18337e+08 1
001 223 1 0 5.23758e+08 5.2402e+08 5.25187e+08 5.32102e+08 0
001 224 2 0 5.39272e+08 5.39529e+08 5.40854e+08 5.43109e+08 0
000 225 2 1 5.50437e+08 5.50699e+08 5.52025e+08 5.61893e+08 1
001 226 1 0 5.66611e+08 5.6687e+08 5.67548e+08 5.70594e+08 0
001 227 2 0 5.83617e+08 5.83873e+08 5.85172e+08 5.9072e+08 0
000 228 2 0 6.021e+08 6.02372e+08 6.03671e+08 6.07871e+08 1
000 229 2 0 6.14982e+08 6.1524e+08 6.16539e+08 6.19272e+08 1
000 230 2 1 6.26633e+08 6.26891e+08 6.2819e+08 6.28807e+08 1
001 231 2 1 6.53123e+08 6.53387e+08 6.54501e+08 6.55534e+08 0
001 232 1 1 6.59622e+08 6.59879e+08 6.61036e+08 6.61641e+08 0
000 233 1 1 6.70095e+08 6.70348e+08 6.71506e+08 6.72113e+08 1
000 234 1 0 7.01095e+08 7.01363e+08 7.0252e+08 7.04206e+08 1
001 235 1 1 7.08176e+08 7.0844e+08 7.09598e+08 7.15334e+08 0
000 236 1 0 7.251e+08 7.2535e+08 7.26509e+08 7.30798e+08 1
001 237 2 1 7.36056e+08 7.36314e+08 7.36915e+08 7.4437e+08 0
001 238 1 0 7.4683e+08 7.47083e+08 7.47798e+08 7.51575e+08 0
001 239 1 1 7.54096e+08 7.54362e+08 7.54886e+08 7.58998e+08 0
000 240 1 1 7.67855e+08 7.68119e+08 7.68643e+08 7.68989e+08 1
000 241 1 1 7.76223e+08 7.76477e+08 7.77001e+08 7.77333e+08 1
000 242 1 0 7.84843e+08 7.85103e+08 7.85627e+08 7.99559e+08 1
001 243 1 0 8.08679e+08 8.08931e+08 8.09641e+08 8.14935e+08 0
001 244 2 0 8.19359e+08 8.19621e+08 8.20525e+08 8.26429e+08 0
000 245 2 0 8.35692e+08 8.35956e+08 8.36859e+08 8.41291e+08 1
000 246 2 0 8.51963e+08 8.52225e+08 8.53128e+08 9.37862e+08 1
000 247 2 0 9.45089e+08 9.4535e+08 9.46253e+08 9.54357e+08 1
000 248 2 0 9.63186e+08 9.63448e+08 9.64824e+08 9.67522e+08 0
000 249 1 0 9.76062e+08 9.76327e+08 9.77056e+08 9.91325e+08 0
001 250 2 0 1.01442e+09 1.01468e+09 1.01538e+09 1.02008e+09 0
000 251 2 0 1.02958e+09 1.02984e+09 1.03054e+09 1.05497e+09 1
000 252 2 1 1.06436e+09 1.06463e+09 1.06533e+09 1.07049e+09 1
001 253 1 0 1.07314e+09 1.07339e+09 1.07418e+09 1.11357e+09 0
001 254 1 1 1.12261e+09 1.12287e+09 1.12363e+09 1.12845e+09 0
000 255 1 1 1.13566e+09 1.13592e+09 1.13668e+09 1.13718e+09 1
000 256 1 0 1.14973e+09 1.14998e+09 1.15075e+09 1.15104e+09 1
001 257 1 0 1.16055e+09 1.16081e+09 1.16158e+09 1.1617e+09 0
001 258 1 1 1.16768e+09 1.16796e+09 1.16911e+09 1.16935e+09 0
000 259 1 1 1.18184e+09 1.18211e+09 1.18326e+09 1.18349e+09 1
000 260 1 1 1.19459e+09 1.19485e+09 1.196e+09 1.19635e+09 1
000 261 1 1 1.20934e+09 1.2096e+09 1.21075e+09 1.21171e+09 1
000 262 1 0 1.229e+09 1.22927e+09 1.23057e+09 1.23628e+09 0
001 263 2 1 1.24069e+09 1.24095e+09 1.24191e+09 1.24268e+09 0
001 264 2 0 1.24642e+09 1.24668e+09 1.24749e+09 1.24773e+09 0
000 265 2 1 1.26498e+09 1.26525e+09 1.26606e+09 1.26674e+09 1
001 266 1 0 1.28205e+09 1.28232e+09 1.28345e+09 1.29847e+09 0
001 267 2 0 1.30141e+09 1.30167e+09 1.30294e+09 1.30326e+09 0
000 268 2 0 1.31379e+09 1.31404e+09 1.31531e+09 1.31557e+09 1
000 269 2 0 1.32582e+09 1.32608e+09 1.32734e+09 1.33526e+09 1
000 270 2 0 1.34235e+09 1.34262e+09 1.34388e+09 1.34425e+09 1
000 271 2 1 1.35165e+09 1.35191e+09 1.35339e+09 1.3541e+09 0
001 272 1 1 1.35732e+09 1.35758e+09 1.35891e+09 1.35941e+09 0
000 273 1 1 1.36665e+09 1.3669e+09 1.36823e+09 1.36847e+09 1
000 274 1 0 1.37579e+09 1.37604e+09 1.37737e+09 1.38489e+09 1
001 275 1 0 1.38785e+09 1.38812e+09 1.38867e+09 1.39557e+09 0
001 276 1 0 1.398e+09 1.39826e+09 1.39973e+09 1.40002e+09 0
001 277 1 0 1.41039e+09 1.41066e+09 1.41204e+09 1.42047e+09 0
001 278 2 0 1.4256e+09 1.42587e+09 1.42666e+09 1.43818e+09 0
000 279 2 0 1.44527e+09 1.44553e+09 1.44633e+09 1.44654e+09 1
000 280 2 0 1.45544e+09 1.4557e+09 1.45649e+09 1.46382e+09 1
000 281 2 0 1.47858e+09 1.47884e+09 1.47964e+09 1.48349e+09 1
000 282 2 0 1.49436e+09 1.49463e+09 1.49601e+09 1.53489e+09 0
000 283 2 0 1.54203e+09 1.54229e+09 1.54298e+09 1.55653e+09 0
000 284 2 0 1.57123e+09 1.57152e+09 1.57222e+09 1.5727e+09 0
000 285 1 0 1.58288e+09 1.58313e+09 1.58375e+09 1.60495e+09 0
001 286 2 0 1.61649e+09 1.61675e+09 1.61788e+09 1.62198e+09 0
000 287 2 0 1.6321e+09 1.63236e+09 1.63349e+09 1.63373e+09 1
000 288 2 0 1.64084e+09 1.64111e+09 1.64224e+09 1.74722e+09 1
000 289 2 0 1.75809e+09 1.75835e+09 1.75948e+09 1.76451e+09 1
000 290 2 1 1.77482e+09 1.77509e+09 1.77636e+09 1.78521e+09 0
001 291 1 0 1.78991e+09 1.79017e+09 1.79165e+09 1.82775e+09 0
001 292 1 0 1.83023e+09 1.83048e+09 1.83183e+09 1.83483e+09 0
001 293 1 1 1.83827e+09 1.83854e+09 1.83919e+09 1.87512e+09 0
000 294 1 0 1.88265e+09 1.88291e+09 1.88357e+09 1.89385e+09 1
001 295 1 1 1.90257e+09 1.90282e+09 1.90339e+09 1.90384e+09 0
000 296 1 1 1.91226e+09 1.91252e+09 1.91308e+09 1.91329e+09 1
000 297 1 0 1.92109e+09 1.92134e+09 1.9219e+09 1.9319e+09 1
001 298 2 1 1.94093e+09 1.94118e+09 1.94236e+09 1.94295e+09 0
001 299 1 0 1.94672e+09 1.94697e+09 1.94827e+09 1.95243e+09 0
001 300 2 1 1.95896e+09 1.95922e+09 1.95978e+09 1.96587e+09 0
001 301 2 0 1.97192e+09 1.97218e+09 1.97308e+09 1.97718e+09 0
000 302 2 0 1.98563e+09 1.98589e+09 1.98679e+09 1.98686e+09 1
000 303 2 0 1.99634e+09 1.99659e+09 1.9975e+09 2.00307e+09 1
000 304 2 0 2.01062e+09 2.01088e+09 2.01179e+09 2.01733e+09 1
000 305 1 0 2.02682e+09 2.02708e+09 2.02803e+09 2.02807e+09 0
001 306 1 0 2.03514e+09 2.0354e+09 2.03673e+09 2.04182e+09 0
001 307 1 0 2.04453e+09 2.04479e+09 2.04595e+09 2.05147e+09 0
001 308 1 1 2.0547e+09 2.05496e+09 2.05555e+09 2.05583e+09 0
000 309 1 0 2.06323e+09 2.0635e+09 2.06408e+09 2.06636e+09 1
001 310 1 1 2.07347e+09 2.07374e+09 2.0746e+09 2.07481e+09 0
000 311 1 0 2.08809e+09 2.08836e+09 2.08921e+09 2.08928e+09 1
001 312 2 0 2.10191e+09 2.10218e+09 2.10285e+09 2.10756e+09 0
000 313 2 0 2.11522e+09 2.11547e+09 2.11614e+09 2.11982e+09 1
000 314 2 0 2.13161e+09 2.13187e+09 2.13254e+09 2.14489e+09 1
000 315 2 0 2.15212e+09 2.15238e+09 2.15305e+09 2.15334e+09 1
000 316 2 0 2.16068e+09 2.16094e+09 2.16168e+09 2.1639e+09 0
000 317 1 0 2.17184e+09 2.17212e+09 2.17361e+09 2.18993e+09 0
001 318 1 0 2.19414e+09 2.19441e+09 2.19568e+09 2.19883e+09 0
001 319 2 0 2.20898e+09 2.20923e+09 2.21037e+09 2.21686e+09 0
000 320 2 0 2.22425e+09 2.22451e+09 2.22565e+09 2.23264e+09 1
000 321 2 1 2.24314e+09 2.24339e+09 2.24453e+09 2.25071e+09 1
001 322 1 0 2.25328e+09 2.25355e+09 2.25426e+09 2.25972e+09 0
001 323 1 1 2.27544e+09 2.27571e+09 2.27645e+09 2.27675e+09 0
000 324 1 0 2.28389e+09 2.28415e+09 2.2849e+09 2.30155e+09 1
001 325 2 0 2.30411e+09 2.30438e+09 2.30496e+09 2.31767e+09 0
000 326 2 0 2.32584e+09 2.32611e+09 2.32668e+09 2.34553e+09 1
000 327 2 0 2.35436e+09 2.35463e+09 2.3552e+09 2.35915e+09 1
000 328 2 0 2.3664e+09 2.36666e+09 2.36723e+09 2.37036e+09 1
000 329 1 0 2.37746e+09 2.37774e+09 2.37921e+09 2.38109e+09 0
001 330 2 0 2.38369e+09 2.38397e+09 2.38515e+09 2.38532e+09 0
000 331 2 0 2.39247e+09 2.39272e+09 2.39391e+09 2.39499e+09 1
000 332 2 0 2.40371e+09 2.40397e+09 2.40516e+09 2.40979e+09 1
000 333 2 0 2.42067e+09 2.42093e+09 2.42212e+09 2.42258e+09 1
000 334 2 0 2.43221e+09 2.43248e+09 2.43352e+09 2.43966e+09 0
000 335 1 1 2.44787e+09 2.44814e+09 2.44943e+09 2.44977e+09 0
000 336 1 1 2.4579e+09 2.45816e+09 2.45956e+09 2.45986e+09 0
000 337 1 0 2.47299e+09 2.47326e+09 2.47461e+09 2.48633e+09 0
001 338 1 0 2.48914e+09 2.4894e+09 2.49064e+09 2.4916e+09 0
001 339 2 0 2.4949e+09 2.49516e+09 2.49635e+09 2.49915e+09 0
000 340 2 0 2.51093e+09 2.51119e+09 2.51238e+09 2.56263e+09 1
000 341 2 1 2.57228e+09 2.57255e+09 2.57374e+09 2.60061e+09 1
001 342 1 0 2.60543e+09 2.6057e+09 2.60624e+09 2.60962e+09 0
001 343 1 1 2.61292e+09 2.61319e+09 2.61468e+09 2.62124e+09 0
000 344 1 1 2.62932e+09 2.62958e+09 2.63107e+09 2.64498e+09 1
000 345 1 0 2.65356e+09 2.65381e+09 2.65531e+09 2.67966e+09 1
001 346 2 0 2.68533e+09 2.68559e+09 2.68665e+09 2.69119e+09 0
000 347 2 0 2.69909e+09 2.69935e+09 2.7004e+09 2.70836e+09 1
000 348 2 0 2.71582e+09 2.71609e+09 2.71714e+09 2.72683e+09 1
000 349 2 1 2.73391e+09 2.73416e+09 2.73522e+09 2.74051e+09 1
001 350 1 0 2.74347e+09 2.74373e+09 2.74449e+09 2.74853e+09 0
001 351 2 0 2.75098e+09 2.75124e+09 2.75266e+09 2.75614e+09 0
000 352 2 1 2.7647e+09 2.76496e+09 2.76638e+09 2.76862e+09 1
001 353 1 0 2.77166e+09 2.77192e+09 2.77254e+09 2.77753e+09 0
001 354 2 1 2.78542e+09 2.78568e+09 2.78674e+09 2.78732e+09 0
001 355 2 0 2.79838e+09 2.79865e+09 2.79966e+09 2.80809e+09 0
000 356 2 0 2.81556e+09 2.81582e+09 2.81683e+09 2.83914e+09 1
000 357 2 0 2.85339e+09 2.85365e+09 2.85466e+09 2.85625e+09 1
000 358 2 0 2.86341e+09 2.86366e+09 2.86468e+09 2.87837e+09 1
000 359 2 0 2.88685e+09 2.88711e+09 2.88851e+09 2.89293e+09 0
000 360 1 0 2.90002e+09 2.90028e+09 2.90117e+09 2.95826e+09 0
001 361 1 1 2.96159e+09 2.96186e+09 2.9631e+09 3.02692e+09 0
000 362 1 0 3.03407e+09 3.03434e+09 3.03557e+09 3.04277e+09 1
001 363 1 0 3.04553e+09 3.04579e+09 3.04717e+09 3.07436e+09 0
001 364 2 0 3.07803e+09 3.07828e+09 3.07911e+09 3.08239e+09 0
000 365 2 0 3.09075e+09 3.09101e+09 3.09184e+09 3.09325e+09 1
000 366 2 0 3.10318e+09 3.10345e+09 3.10427e+09 3.11548e+09 1
000 367 2 1 3.12302e+09 3.12328e+09 3.12411e+09 3.12451e+09 1
001 368 1 0 3.12866e+09 3.12892e+09 3.13008e+09 3.14469e+09 0
001 369 2 1 3.14906e+09 3.14933e+09 3.15054e+09 3.15603e+09 0
001 370 1 1 3.15908e+09 3.15935e+09 3.15986e+09 3.16028e+09 0
000 371 1 0 3.16964e+09 3.1699e+09 3.17041e+09 3.1706e+09 1
001 372 2 1 3.17816e+09 3.17843e+09 3.17919e+09 3.17968e+09 0
001 373 1 1 3.18541e+09 3.18568e+09 3.18699e+09 3.1873e+09 0
000 374 1 0 3.19788e+09 3.19814e+09 3.19946e+09 3.22689e+09 1
001 375 2 1 3.2294e+09 3.22966e+09 3.23027e+09 3.23334e+09 0
001 376 2 1 3.24178e+09 3.24203e+09 3.24342e+09 3.24493e+09 0
001 377 2 0 3.25353e+09 3.2538e+09 3.25513e+09 3.27495e+09 0
000 378 2 0 3.28369e+09 3.28395e+09 3.28528e+09 3.29051e+09 1
000 379 2 0 3.30061e+09 3.30087e+09 3.30219e+09 3.30276e+09 1
000 380 2 0 3.31275e+09 3.313e+09 3.31433e+09 3.32311e+09 1
000 381 1 0 3.3308e+09 3.33107e+09 3.33182e+09 3.33908e+09 0
001 382 2 0 3.34204e+09 3.3423e+09 3.34297e+09 3.3455e+09 0
000 383 2 1 3.3546e+09 3.35486e+09 3.35552e+09 3.3563e+09 1
001 384 2 0 3.3606e+09 3.36086e+09 3.36157e+09 3.38807e+09 0
000 385 2 0 3.3992e+09 3.39946e+09 3.40017e+09 3.40748e+09 1
000 386 2 0 3.41499e+09 3.41526e+09 3.41597e+09 3.42394e+09 1
000 387 2 1 3.43147e+09 3.43173e+09 3.43244e+09 3.4618e+09 1
001 388 1 0 3.4655e+09 3.46575e+09 3.46704e+09 3.4673e+09 0
001 389 1 1 3.47422e+09 3.47448e+09 3.47557e+09 3.47622e+09 0
000 390 1 0 3.48413e+09 3.4844e+09 3.48549e+09 3.49375e+09 1
001 391 1 0 3.49814e+09 3.49841e+09 3.49911e+09 3.50166e+09 0
001 392 1 0 3.50518e+09 3.50545e+09 3.50605e+09 3.51193e+09 0
001 393 1 0 3.51527e+09 3.51553e+09 3.5161e+09 3.52798e+09 0
001 394 2 0 3.53058e+09 3.53083e+09 3.53187e+09 3.53699e+09 0
000 395 2 0 3.54449e+09 3.54475e+09 3.54578e+09 3.54665e+09 1
000 396 2 0 3.55414e+09 3.5544e+09 3.55543e+09 3.55656e+09 1
000 397 2 1 3.56417e+09 3.56443e+09 3.56546e+09 3.57037e+09 1
001 398 2 0 3.57747e+09 3.57773e+09 3.57911e+09 3.58663e+09 0
000 399 2 1 3.59612e+09 3.59639e+09 3.59778e+09 3.59854e+09 1
001 400 1 1 3.60159e+09 3.60185e+09 3.60325e+09 3.61453e+09 0
000 401 1 0 3.62162e+09 3.62189e+09 3.62329e+09 3.62592e+09 1
001 402 2 0 3.62995e+09 3.63021e+09 3.63115e+09 3.63839e+09 0
000 403 2 0 3.64968e+09 3.64995e+09 3.65089e+09 3.6546e+09 1
000 404 2 1 3.66193e+09 3.66219e+09 3.66314e+09 3.66316e+09 1
001 405 1 1 3.66766e+09 3.66792e+09 3.66879e+09 3.66909e+09 0
000 406 1 0 3.67653e+09 3.6768e+09 3.67766e+09 3.67787e+09 1
001 407 2 0 3.68237e+09 3.68263e+09 3.68375e+09 3.68393e+09 0
000 408 2 0 3.69398e+09 3.69425e+09 3.69537e+09 3.70591e+09 1
000 409 2 1 3.71498e+09 3.71524e+09 3.71636e+09 3.71639e+09 1
001 410 1 0 3.72094e+09 3.7212e+09 3.72204e+09 3.73822e+09 0
001 411 1 0 3.74073e+09 3.74099e+09 3.74231e+09 3.75107e+09 0
001 412 2 0 3.7539e+09 3.75416e+09 3.75507e+09 3.75535e+09 0
000 413 2 0 3.76476e+09 3.76503e+09 3.76594e+09 3.78196e+09 1
000 414 2 1 3.78932e+09 3.78958e+09 3.79049e+09 3.81065e+09 1
001 415 2 0 3.81542e+09 3.81568e+09 3.81705e+09 3.81713e+09 0
000 416 2 0 3.82863e+09 3.82889e+09 3.83026e+09 3.84781e+09 1
000 417 2 0 3.85684e+09 3.8571e+09 3.85847e+09 3.86691e+09 1
000 418 2 0 3.87408e+09 3.87435e+09 3.87572e+09 3.88763e+09 1
000 419 2 1 3.9033e+09 3.90356e+09 3.90463e+09 3.93135e+09 0
001 420 2 0 3.93621e+09 3.93648e+09 3.93775e+09 3.93998e+09 0
000 421 2 0 3.94728e+09 3.94755e+09 3.94882e+09 3.96122e+09 1
000 422 2 1 3.96873e+09 3.96899e+09 3.97026e+09 3.99447e+09 1
001 423 1 0 3.99766e+09 3.99791e+09 3.99842e+09 4.00251e+09 0
001 424 2 1 4.00515e+09 4.00541e+09 4.00685e+09 4.00688e+09 0
001 425 1 0 4.01077e+09 4.01104e+09 4.01194e+09 4.02123e+09 0
001 426 2 0 4.02369e+09 4.02396e+09 4.02507e+09 4.02532e+09 0
000 427 2 0 4.03246e+09 4.03272e+09 4.03383e+09 4.077e+09 1
000 428 2 0 4.0843e+09 4.08456e+09 4.08568e+09 4.10171e+09 1
000 429 2 0 4.10919e+09 4.10945e+09 4.11056e+09 4.13495e+09 1
000 430 2 0 4.14205e+09 4.14231e+09 4.14313e+09 4.16283e+09 0
000 431 1 0 4.16997e+09 4.17023e+09 4.1716e+09 4.18683e+09 0
001 432 1 1 4.19229e+09 4.19256e+09 4.19353e+09 4.20911e+09 0
000 433 1 0 4.21637e+09 4.21663e+09 4.2176e+09 4.23668e+09 1
001 434 1 0 4.24115e+09 4.24141e+09 4.24197e+09 4.24586e+09 0
001 435 2 0 4.25183e+09 4.25209e+09 4.25314e+09 4.2723e+09 0
000 436 2 1 4.28104e+09 4.2813e+09 4.28234e+09 5.58911e+06 1
001 437 2 0 8.09576e+06 8.35299e+06 8.99106e+06 9.01732e+06 0
000 438 2 0 1.64731e+07 1.673e+07 1.73681e+07 1.92259e+07 1
000 439 2 0 2.65943e+07 2.68608e+07 2.74989e+07 3.13463e+07 1
000 440 2 0 3.84184e+07 3.8681e+07 3.93191e+07 4.23441e+07 1
000 441 2 0 4.98647e+07 5.01283e+07 5.08021e+07 6.27109e+07 0
000 442 2 0 7.00805e+07 7.03427e+07 7.10972e+07 8.88386e+07 0
000 443 1 0 9.65735e+07 9.68289e+07 9.75124e+07 1.13158e+08 0
001 444 1 0 1.15644e+08 1.15899e+08 1.16636e+08 1.20613e+08 0
001 445 2 1 1.22977e+08 1.23248e+08 1.24189e+08 1.46623e+08 0
001 446 1 1 1.52101e+08 1.52355e+08 1.53243e+08 1.59501e+08 0
000 447 1 0 1.68299e+08 1.68565e+08 1.69453e+08 2.37951e+08 1
001 448 2 0 2.41171e+08 2.41436e+08 2.42825e+08 2.42927e+08 0
000 449 2 0 2.50238e+08 2.50494e+08 2.51884e+08 2.88305e+08 1
000 450 2 0 2.96738e+08 2.97003e+08 2.98393e+08 3.67847e+08 1
000 451 2 0 3.75086e+08 3.75355e+08 3.76745e+08 3.97686e+08 1
000 452 2 0 4.09806e+08 4.10061e+08 4.11139e+08 4.45637e+08 0
000 453 1 0 4.58632e+08 4.58894e+08 4.59841e+08 4.81277e+08 0
001 454 1 0 4.8546e+08 4.85727e+08 4.86613e+08 4.86988e+08 0
001 455 1 1 4.91099e+08 4.91365e+08 4.92619e+08 5.15371e+08 0
000 456 1 1 5.22477e+08 5.22737e+08 5.23991e+08 5.27986e+08 1
000 457 1 1 5.35494e+08 5.35754e+08 5.37007e+08 6.07213e+08 1
000 458 1 0 6.14503e+08 6.14775e+08 6.16028e+08 6.79203e+08 1
001 459 2 0 6.83907e+08 6.84165e+08 6.85627e+08 7.12476e+08 0
000 460 2 0 7.19882e+08 7.20144e+08 7.21606e+08 7.30246e+08 1
000 461 2 0 7.37608e+08 7.37866e+08 7.39328e+08 7.53349e+08 1
000 462 2 1 7.60535e+08 7.6079e+08 7.62251e+08 7.62613e+08 1
001 463 1 0 7.66329e+08 7.66588e+08 7.67345e+08 7.76572e+08 0
001 464 1 0 7.79237e+08 7.79497e+08 7.80344e+08 7.95659e+08 0
001 465 1 0 7.98859e+08 7.99122e+08 8.00141e+08 8.0538e+08 0
001 466 1 1 8.09024e+08 8.0928e+08 8.10155e+08 8.14041e+08 0
000 467 1 0 8.22341e+08 8.2261e+08 8.23484e+08 8.24981e+08 1
001 468 1 0 8.32642e+08 8.32906e+08 8.34101e+08 8.67683e+08 0
001 469 2 1 8.73543e+08 8.73808e+08 8.74428e+08 8.95682e+08 0
001 470 2 0 9.00163e+08 9.0042e+08 9.01067e+08 9.06687e+08 0
000 471 2 0 9.13878e+08 9.14143e+08 9.14791e+08 9.21502e+08 1
000 472 2 0 9.28567e+08 9.28821e+08 9.29468e+08 9.40675e+08 1
000 473 2 1 9.48073e+08 9.48345e+08 9.48993e+08 9.53183e+08 1
001 474 2 0 9.59212e+08 9.59478e+08 9.60647e+08 1.02566e+09 0
000 475 2 0 1.03302e+09 1.03328e+09 1.03444e+09 1.07273e+09 1
000 476 2 0 1.08225e+09 1.08251e+09 1.08368e+09 1.1187e+09 1
000 477 2 0 1.12742e+09 1.12767e+09 1.12884e+09 1.17894e+09 1
000 