trial trialType response stillTime stimOnset stimOffset respTime correctionTrial correct
001 2 1 3.10581e+06 3.37191e+06 3.93209e+06 1.91128e+07 0
001 002 1 0 2.16781e+07 2.19474e+07 2.31536e+07 3.20471e+08 0
001 003 1 0 3.22839e+08 3.231e+08 3.24279e+08 3.34359e+08 0
001 004 2 1 3.42052e+08 3.42318e+08 3.43652e+08 3.44817e+08 0
001 005 1 1 3.4924e+08 3.49502e+08 3.50277e+08 3.51011e+08 0
000 006 1 1 3.65394e+08 3.65658e+08 3.66433e+08 3.66716e+08 1
000 007 1 0 3.73811e+08 3.7408e+08 3.74855e+08 3.75281e+08 1
001 008 1 1 3.79561e+08 3.79828e+08 3.80523e+08 3.80526e+08 0
000 009 1 1 3.87987e+08 3.88252e+08 3.88948e+08 3.88984e+08 1
000 010 1 0 3.96234e+08 3.965e+08 3.97196e+08 3.97272e+08 1
001 011 1 1 4.02024e+08 4.02278e+08 4.03469e+08 4.04271e+08 0
000 012 1 1 4.12442e+08 4.12701e+08 4.13892e+08 4.18313e+08 1
000 013 1 1 4.28938e+08 4.29192e+08 4.30383e+08 4.30516e+08 1
000 014 1 1 4.37831e+08 4.38097e+08 4.39288e+08 4.40319e+08 1
000 015 2 0 4.47885e+08 4.48144e+08 4.48906e+08 4.49755e+08 0
000 016 1 0 4.56843e+08 4.57102e+08 4.57655e+08 4.62233e+08 0
001 017 2 1 4.66059e+08 4.66315e+08 4.67249e+08 4.72474e+08 0
001 018 1 1 4.80232e+08 4.80492e+08 4.8171e+08 4.84024e+08 0
000 019 1 1 4.9142e+08 4.91678e+08 4.92896e+08 4.9416e+08 1
000 020 1 0 5.03056e+08 5.03328e+08 5.04546e+08 5.05543e+08 1
001 021 2 1 5.13465e+08 5.13742e+08 5.14978e+08 5.20465e+08 0
001 022 1 1 5.22922e+08 5.23189e+08 5.24537e+08 5.27464e+08 0
000 023 1 1 5.34727e+08 5.3499e+08 5.36339e+08 5.40413e+08 1
000 024 1 0 5.47615e+08 5.47873e+08 5.49222e+08 5.51636e+08 1
001 025 2 1 5.54299e+08 5.54579e+08 5.55391e+08 5.55397e+08 0
001 026 2 0 5.60543e+08 5.60815e+08 5.61754e+08 5.62325e+08 0
000 027 2 1 5.72587e+08 5.72846e+08 5.73785e+08 5.78187e+08 1
001 028 2 0 5.82315e+08 5.82587e+08 5.83248e+08 5.87009e+08 0
000 029 2 1 6.036e+08 6.03878e+08 6.04538e+08 6.04543e+08 1
001 030 1 1 6.10747e+08 6.11018e+08 6.12284e+08 6.13198e+08 0
000 031 1 0 6.274e+08 6.27671e+08 6.28938e+08 6.29604e+08 1
001 032 1 0 6.34235e+08 6.34509e+08 6.35502e+08 6.37801e+08 0
001 033 1 0 6.41919e+08 6.42196e+08 6.43541e+08 6.44283e+08 0
001 034 1 0 6.56905e+08 6.57173e+08 6.57814e+08 6.58322e+08 0
001 035 1 1 6.71909e+08 6.72178e+08 6.72939e+08 6.75592e+08 0
000 036 1 0 6.85367e+08 6.85632e+08 6.86393e+08 6.86466e+08 1
001 037 2 1 6.91185e+08 6.91445e+08 6.92638e+08 6.94332e+08 0
001 038 2 0 7.08943e+08 7.09205e+08 7.10363e+08 7.10905e+08 0
000 039 2 1 7.19121e+08 7.19379e+08 7.20537e+08 7.22056e+08 1
001 040 2 1 7.24914e+08 7.25169e+08 7.25897e+08 7.26203e+08 0
001 041 1 0 7.3811e+08 7.38362e+08 7.39384e+08 7.40017e+08 0
001 042 2 0 7.44289e+08 7.44564e+08 7.45256e+08 7.45873e+08 0
000 043 2 0 7.54072e+08 7.54339e+08 7.55031e+08 7.56954e+08 1
000 044 2 0 7.64344e+08 7.64607e+08 7.65299e+08 7.67881e+08 1
000 045 2 1 7.81383e+08 7.81652e+08 7.82344e+08 7.84974e+08 1
001 046 1 0 7.90855e+08 7.91117e+08 7.91888e+08 7.93105e+08 0
001 047 2 0 8.00452e+08 8.00714e+08 8.01482e+08 8.03607e+08 0
000 048 2 0 8.16578e+08 8.16853e+08 8.1762e+08 8.20003e+08 1
000 049 2 1 8.28195e+08 8.2846e+08 8.29227e+08 8.31046e+08 1
001 050 1 1 8.3655e+08 8.36817e+08 8.3796e+08 8.40052e+08 0
000 051 1 1 8.47096e+08 8.47368e+08 8.4851e+08 8.49918e+08 1
000 052 1 0 8.57127e+08 8.57391e+08 8.58533e+08 8.60319e+08 1
001 053 2 0 8.63277e+08 8.63548e+08 8.64645e+08 8.69444e+08 0
000 054 2 1 8.81308e+08 8.81572e+08 8.82669e+08 8.85236e+08 1
001 055 2 0 8.89037e+08 8.89303e+08 8.90017e+08 8.92373e+08 0
000 056 2 0 9.06803e+08 9.07076e+08 9.07789e+08 9.10069e+08 1
000 057 2 0 9.17244e+08 9.17513e+08 9.18226e+08 9.21374e+08 1
000 058 2 0 9.30208e+08 9.30478e+08 9.31192e+08 9.31428e+08 1
000 059 1 1 9.40237e+08 9.40526e+08 9.41228e+08 9.42442e+08 0
000 060 1 0 9.77804e+08 9.78064e+08 9.79095e+08 9.84094e+08 0
001 061 1 0 9.9046e+08 9.90725e+08 9.92208e+08 9.93925e+08 0
001 062 2 0 9.99775e+08 1.00004e+09 1.00063e+09 1.0008e+09 0
000 063 2 1 1.00789e+09 1.00816e+09 1.00875e+09 1.01096e+09 1
001 064 2 1 1.01382e+09 1.01409e+09 1.01484e+09 1.01896e+09 0
001 065 1 0 1.02208e+09 1.02235e+09 1.02311e+09 1.02322e+09 0
001 066 2 0 1.02782e+09 1.02808e+09 1.02881e+09 1.03234e+09 0
000 067 2 0 1.04115e+09 1.0414e+09 1.04213e+09 1.04315e+09 1
000 068 2 0 1.05624e+09 1.0565e+09 1.05722e+09 1.05726e+09 1
000 069 2 1 1.06453e+09 1.0648e+09 1.06552e+09 1.06579e+09 1
001 070 1 0 1.0732e+09 1.07346e+09 1.07446e+09 1.07457e+09 0
001 071 1 1 1.0806e+09 1.08086e+09 1.08183e+09 1.08592e+09 0
000 072 1 0 1.09345e+09 1.09372e+09 1.09469e+09 1.10353e+09 1
001 073 2 1 1.10597e+09 1.10624e+09 1.10702e+09 1.10888e+09 0
001 074 2 1 1.11178e+09 1.11205e+09 1.11349e+09 1.11516e+09 0
001 075 1 0 1.11783e+09 1.11809e+09 1.11903e+09 1.12151e+09 0
001 076 2 0 1.12414e+09 1.12441e+09 1.12535e+09 1.13171e+09 0
000 077 2 1 1.13887e+09 1.13914e+09 1.14008e+09 1.14123e+09 1
001 078 1 0 1.14431e+09 1.14458e+09 1.14588e+09 1.14657e+09 0
001 079 1 0 1.15729e+09 1.15755e+09 1.1588e+09 1.15918e+09 0
001 080 2 1 1.172e+09 1.17226e+09 1.17367e+09 1.17407e+09 0
001 081 2 0 1.1855e+09 1.18577e+09 1.18648e+09 1.18731e+09 0
000 082 2 0 1.19952e+09 1.19977e+09 1.20049e+09 1.20121e+09 1
000 083 2 0 1.20879e+09 1.20906e+09 1.20978e+09 1.21479e+09 1
000 084 2 1 1.22185e+09 1.22212e+09 1.22284e+09 1.22719e+09 1
001 085 2 0 1.23385e+09 1.23412e+09 1.23471e+09 1.23518e+09 0
000 086 2 1 1.24259e+09 1.24285e+09 1.24344e+09 1.24917e+09 1
001 087 2 0 1.25159e+09 1.25187e+09 1.25253e+09 1.25675e+09 0
000 088 2 0 1.2672e+09 1.26745e+09 1.26812e+09 1.2689e+09 1
000 089 2 1 1.28007e+09 1.28034e+09 1.281e+09 1.28248e+09 1
001 090 1 1 1.29555e+09 1.29582e+09 1.29723e+09 1.29855e+09 0
000 091 1 0 1.31486e+09 1.31513e+09 1.31654e+09 1.31881e+09 1
001 092 2 0 1.32125e+09 1.32152e+09 1.32233e+09 1.32605e+09 0
000 093 2 0 1.3359e+09 1.33617e+09 1.33698e+09 1.33958e+09 1
000 094 2 1 1.34872e+09 1.34899e+09 1.3498e+09 1.35025e+09 1
001 095 2 0 1.35488e+09 1.35514e+09 1.35585e+09 1.35761e+09 0
000 096 2 0 1.36601e+09 1.36628e+09 1.36699e+09 1.36754e+09 1
000 097 2 0 1.38009e+09 1.38036e+09 1.38107e+09 1.38119e+09 1
000 098 2 1 1.38916e+09 1.38942e+09 1.39014e+09 1.39354e+09 1
001 099 1 0 1.3963e+09 1.39656e+09 1.39717e+09 1.4014e+09 0
001 100 2 0 1.40386e+09 1.40412e+09 1.40469e+09 1.40589e+09 0
000 101 2 0 1.41431e+09 1.41457e+09 1.41513e+09 1.41669e+09 1
000 102 2 0 1.42858e+09 1.42884e+09 1.42941e+09 1.42967e+09 1
000 103 2 1 1.4417e+09 1.44197e+09 1.44254e+09 1.44768e+09 1
001 104 1 1 1.45278e+09 1.45303e+09 1.4544e+09 1.45464e+09 0
000 105 1 1 1.46669e+09 1.46696e+09 1.46832e+09 1.46893e+09 1
000 106 1 1 1.47961e+09 1.47988e+09 1.48125e+09 1.48322e+09 1
000 107 1 0 1.49276e+09 1.49303e+09 1.4944e+09 1.49483e+09 1
001 108 2 1 1.50103e+09 1.50129e+09 1.50208e+09 1.50491e+09 0
001 109 1 1 1.5084e+09 1.50866e+09 1.50937e+09 1.51098e+09 0
000 110 1 1 1.52104e+09 1.5213e+09 1.52201e+09 1.52334e+09 1
000 111 1 0 1.5305e+09 1.53076e+09 1.53146e+09 1.53622e+09 1
001 112 1 1 1.54119e+09 1.54145e+09 1.54232e+09 1.54353e+09 0
000 113 1 0 1.55082e+09 1.55109e+09 1.55196e+09 1.5536e+09 1
001 114 1 1 1.55715e+09 1.5574e+09 1.55869e+09 1.55999e+09 0
000 115 1 0 1.5693e+09 1.56957e+09 1.57085e+09 1.57273e+09 1
001 116 1 0 1.57556e+09 1.57582e+09 1.57696e+09 1.58189e+09 0
001 117 2 0 1.58435e+09 1.58461e+09 1.58578e+09 1.58807e+09 0
000 118 2 0 1.59553e+09 1.59579e+09 1.59696e+09 1.59984e+09 1
000 119 2 0 1.6077e+09 1.60796e+09 1.60913e+09 1.61064e+09 1
000 120 2 1 1.61811e+09 1.61837e+09 1.61954e+09 1.62025e+09 1
001 121 2 0 1.63916e+09 1.63943e+09 1.64036e+09 1.64921e+09 0
000 122 2 0 1.65642e+09 1.65668e+09 1.65761e+09 1.65804e+09 1
000 123 2 1 1.66869e+09 1.66897e+09 1.6699e+09 1.67032e+09 1
001 124 2 0 1.67407e+09 1.67434e+09 1.67574e+09 1.68297e+09 0
000 125 2 1 1.69041e+09 1.69067e+09 1.69207e+09 1.69468e+09 1
001 126 1 1 1.69748e+09 1.69774e+09 1.69888e+09 1.7033e+09 0
000 127 1 1 1.71047e+09 1.71074e+09 1.71189e+09 1.71304e+09 1
000 128 1 1 1.72012e+09 1.72038e+09 1.72153e+09 1.72656e+09 1
000 129 1 0 1.73361e+09 1.73387e+09 1.73502e+09 1.73719e+09 1
001 130 1 1 1.74057e+09 1.74083e+09 1.74231e+09 1.74325e+09 0
000 131 1 0 1.75998e+09 1.76025e+09 1.76173e+09 1.76179e+09 1
001 132 2 0 1.76569e+09 1.76596e+09 1.76715e+09 1.76977e+09 0
000 133 2 1 1.77763e+09 1.77791e+09 1.7791e+09 1.78155e+09 1
001 134 2 1 1.78556e+09 1.78583e+09 1.78672e+09 1.78825e+09 0
001 135 1 1 1.79852e+09 1.79878e+09 1.79975e+09 1.80009e+09 0
000 136 1 1 1.81151e+09 1.81177e+09 1.81274e+09 1.81395e+09 1
000 137 1 0 1.82628e+09 1.82655e+09 1.82752e+09 1.82792e+09 1
001 138 2 1 1.84039e+09 1.84065e+09 1.84124e+09 1.84173e+09 0
001 139 1 0 1.85364e+09 1.8539e+09 1.85458e+09 1.85606e+09 0
001 140 2 0 1.86403e+09 1.8643e+09 1.86563e+09 1.86848e+09 0
000 141 2 1 1.87973e+09 1.87999e+09 1.88132e+09 1.88738e+09 1
001 142 2 1 1.89152e+09 1.8918e+09 1.89306e+09 1.89562e+09 0
001 143 1 1 1.90317e+09 1.90343e+09 1.9042e+09 1.90808e+09 0
000 144 1 1 1.91656e+09 1.91682e+09 1.91759e+09 1.9213e+09 1
000 145 1 1 1.94131e+09 1.94157e+09 1.94234e+09 1.94265e+09 1
000 146 1 1 1.97191e+09 1.97216e+09 1.97293e+09 1.97378e+09 1
000 147 2 0 1.984e+09 1.98426e+09 1.98543e+09 1.99063e+09 0
000 148 2 0 1.99889e+09 1.99916e+09 1.99973e+09 2.00002e+09 0
000 149 2 1 2.01635e+09 2.01661e+09 2.0172e+09 2.01935e+09 0
001 150 1 0 2.02228e+09 2.02255e+09 2.02331e+09 2.03215e+09 0
001 151 2 1 2.04575e+09 2.04606e+09 2.04662e+09 2.04702e+09 0
001 152 1 0 2.05127e+09 2.05154e+09 2.05259e+09 2.05305e+09 0
001 153 1 0 2.05679e+09 2.05706e+09 2.05835e+09 2.06659e+09 0
001 154 2 0 2.08358e+09 2.08384e+09 2.08481e+09 2.088e+09 0
000 155 2 1 2.09687e+09 2.09714e+09 2.0981e+09 2.09845e+09 1
001 156 1 0 2.10819e+09 2.10846e+09 2.10993e+09 2.11059e+09 0
001 157 2 1 2.12904e+09 2.1293e+09 2.12986e+09 2.13006e+09 0
001 158 1 0 2.14869e+09 2.14897e+09 2.14974e+09 2.15582e+09 0
001 159 2 0 2.16096e+09 2.16124e+09 2.16189e+09 2.16215e+09 0
000 160 2 1 2.17168e+09 2.17196e+09 2.1726e+09 2.1737e+09 1
001 161 1 0 2.179e+09 2.17927e+09 2.17981e+09 2.18062e+09 0
001 162 2 0 2.18439e+09 2.18465e+09 2.1856e+09 2.19e+09 0
000 163 2 0 2.20882e+09 2.20909e+09 2.21004e+09 2.21079e+09 1
000 164 2 1 2.22335e+09 2.22361e+09 2.22456e+09 2.2246e+09 1
001 165 1 1 2.23448e+09 2.23475e+09 2.2358e+09 2.23695e+09 0
000 166 1 0 2.25421e+09 2.25447e+09 2.25552e+09 2.25659e+09 1
001 167 2 1 2.26533e+09 2.2656e+09 2.26648e+09 2.26766e+09 0
001 168 1 1 2.27449e+09 2.27475e+09 2.27565e+09 2.27624e+09 0
000 169 1 1 2.29334e+09 2.29361e+09 2.2945e+09 2.29451e+09 1
000 170 1 0 2.30265e+09 2.30291e+09 2.3038e+09 2.30566e+09 1
001 171 1 0 2.3096e+09 2.30988e+09 2.31097e+09 2.31289e+09 0
001 172 2 1 2.34036e+09 2.34062e+09 2.34159e+09 2.34242e+09 0
001 173 1 1 2.40585e+09 2.40612e+09 2.40667e+09 2.4073e+09 0
000 174 1 0 2.43261e+09 2.43288e+09 2.43343e+09 2.43688e+09 1
001 175 2 0 2.44348e+09 2.44375e+09 2.4444e+09 2.44644e+09 0
000 176 2 0 2.45363e+09 2.4539e+09 2.45455e+09 2.45736e+09 1
000 177 2 0 2.47205e+09 2.47232e+09 2.47297e+09 2.47462e+09 1
000 178 2 0 2.48194e+09 2.48221e+09 2.48285e+09 2.48619e+09 1
000 179 2 0 2.4934e+09 2.49366e+09 2.495e+09 2.4957e+09 0
000 180 2 0 2.50461e+09 2.50487e+09 2.50551e+09 2.50583e+09 0
000 181 1 1 2.53347e+09 2.53374e+09 2.53451e+09 2.53454e+09 0
000 182 1 0 2.55369e+09 2.55396e+09 2.55531e+09 2.55552e+09 0
001 183 1 1 2.56096e+09 2.56122e+09 2.56271e+09 2.56382e+09 0
000 184 1 0 2.57135e+09 2.57161e+09 2.5731e+09 2.57571e+09 1
001 185 1 1 2.57828e+09 2.57854e+09 2.5794e+09 2.57993e+09 0
000 186 1 0 2.58737e+09 2.58763e+09 2.58849e+09 2.58863e+09 1
001 187 1 1 2.60741e+09 2.60768e+09 2.60908e+09 2.61362e+09 0
000 188 1 1 2.62208e+09 2.62234e+09 2.62375e+09 2.62598e+09 1
000 189 1 1 2.63315e+09 2.63342e+09 2.63482e+09 2.63641e+09 1
000 190 1 0 2.64407e+09 2.64435e+09 2.64575e+09 2.64809e+09 1
001 191 2 1 2.65793e+09 2.65821e+09 2.65926e+09 2.6593e+09 0
001 192 1 1 2.6669e+09 2.66717e+09 2.66771e+09 2.67219e+09 0
000 193 1 1 2.68373e+09 2.684e+09 2.68455e+09 2.68664e+09 1
000 194 1 0 2.69537e+09 2.69564e+09 2.69619e+09 2.69646e+09 1
001 195 1 0 2.70085e+09 2.70112e+09 2.70181e+09 2.70389e+09 0
001 196 1 0 2.70626e+09 2.70652e+09 2.70786e+09 2.71114e+09 0
001 197 2 0 2.73619e+09 2.73645e+09 2.73709e+09 2.73737e+09 0
000 198 2 0 2.75668e+09 2.75695e+09 2.75759e+09 2.75846e+09 1
000 199 2 0 2.78161e+09 2.78188e+09 2.78252e+09 2.78267e+09 1
000 200 2 0 2.79199e+09 2.79225e+09 2.79289e+09 2.79424e+09 1
000 201 2 0 2.81616e+09 2.81642e+09 2.81743e+09 2.818e+09 0
000 202 1 0 2.82624e+09 2.82651e+09 2.828e+09 2.82807e+09 0
001 203 2 0 2.85019e+09 2.85046e+09 2.85116e+09 2.85173e+09 0
000 204 2 1 2.86129e+09 2.86155e+09 2.86225e+09 2.86256e+09 1
001 205 2 0 2.89158e+09 2.89189e+09 2.89279e+09 2.89436e+09 0
000 206 2 1 2.90583e+09 2.9061e+09 2.907e+09 2.90773e+09 1
001 207 1 0 2.91404e+09 2.9143e+09 2.91521e+09 2.9174e+09 0
001 208 2 0 2.92216e+09 2.92242e+09 2.92295e+09 2.92379e+09 0
000 209 2 0 2.93341e+09 2.93367e+09 2.9342e+09 2.93642e+09 1
000 210 2 1 2.94932e+09 2.9496e+09 2.95012e+09 2.9512e+09 1
001 211 2 1 2.97226e+09 2.97253e+09 2.97327e+09 2.97418e+09 0
001 212 2 0 2.99529e+09 2.99555e+09 2.99675e+09 2.9972e+09 0
000 213 2 1 3.00755e+09 3.00782e+09 3.00902e+09 3.01043e+09 1
001 214 1 0 3.02628e+09 3.02654e+09 3.02758e+09 3.02812e+09 0
001 215 2 1 3.0402e+09 3.04047e+09 3.04172e+09 3.045e+09 0
001 216 2 1 3.05358e+09 3.05384e+09 3.05458e+09 3.05633e+09 0
001 217 1 0 3.11282e+09 3.11308e+09 3.1144e+09 3.11729e+09 0
001 218 1 0 3.12553e+09 3.12578e+09 3.12643e+09 3.12662e+09 0
001 219 2 0 3.15065e+09 3.15092e+09 3.1524e+09 3.1536e+09 0
000 220 2 1 3.16466e+09 3.16493e+09 3.16641e+09 3.1716e+09 1
001 221 1 0 3.17438e+09 3.17464e+09 3.17529e+09 3.17588e+09 0
001 222 2 1 3.18023e+09 3.1805e+09 3.18119e+09 3.18223e+09 0
001 223 2 0 3.1885e+09 3.18876e+09 3.1895e+09 3.19316e+09 0
000 224 2 0 3.20461e+09 3.20488e+09 3.20563e+09 3.20669e+09 1
000 225 2 1 3.22519e+09 3.22545e+09 3.22619e+09 3.22766e+09 1
001 226 1 0 3.23687e+09 3.23713e+09 3.23805e+09 3.23811e+09 0
001 227 2 1 3.24284e+09 3.24311e+09 3.24392e+09 3.24561e+09 0
001 228 2 1 3.25515e+09 3.25541e+09 3.2561e+09 3.25864e+09 0
001 229 1 1 3.27652e+09 3.27678e+09 3.27758e+09 3.27876e+09 0
000 230 1 0 3.29851e+09 3.29878e+09 3.29957e+09 3.29967e+09 1
001 231 2 0 3.30604e+09 3.3063e+09 3.30702e+09 3.30756e+09 0
000 232 2 1 3.32228e+09 3.32255e+09 3.32327e+09 3.32393e+09 1
001 233 1 1 3.3439e+09 3.34417e+09 3.3449e+09 3.34605e+09 0
000 234 1 1 3.36307e+09 3.36334e+09 3.36407e+09 3.36425e+09 1
000 235 1 1 3.37492e+09 3.37518e+09 3.37592e+09 3.37642e+09 1
000 236 1 0 3.39181e+09 3.39207e+09 3.3928e+09 3.39733e+09 1
001 237 2 0 3.40837e+09 3.40863e+09 3.40935e+09 3.40948e+09 0
000 238 2 1 3.42035e+09 3.42061e+09 3.42133e+09 3.42225e+09 1
001 239 2 1 3.43242e+09 3.43268e+09 3.43327e+09 3.43383e+09 0
001 240 2 1 3.45202e+09 3.45228e+09 3.45294e+09 3.45337e+09 0
001 241 1 0 3.45806e+09 3.45832e+09 3.45966e+09 3.46238e+09 0
001 242 1 1 3.51607e+09 3.51634e+09 3.51685e+09 3.51698e+09 0
000 243 1 1 3.52438e+09 3.52464e+09 3.52515e+09 3.52999e+09 1
000 244 1 0 3.54314e+09 3.54341e+09 3.54392e+09 3.54393e+09 1
001 245 1 1 3.54897e+09 3.54923e+09 3.55038e+09 3.55574e+09 0
000 246 1 1 3.56698e+09 3.56724e+09 3.56839e+09 3.56959e+09 1
000 247 1 1 3.57866e+09 3.57892e+09 3.58007e+09 3.58058e+09 1
000 248 1 0 3.58975e+09 3.59002e+09 3.59116e+09 3.59257e+09 1
001 249 1 1 3.61881e+09 3.61907e+09 3.62008e+09 3.62032e+09 0
000 250 1 1 3.62769e+09 3.62796e+09 3.62897e+09 3.62912e+09 1
000 251 1 0 3.63676e+09 3.63704e+09 3.63805e+09 3.63929e+09 1
001 252 2 0 3.65678e+09 3.65705e+09 3.65777e+09 3.65818e+09 0
000 253 2 1 3.66554e+09 3.6658e+09 3.66652e+09 3.67091e+09 1
001 254 1 0 3.68361e+09 3.68387e+09 3.68442e+09 3.68453e+09 0
001 255 1 1 3.6894e+09 3.68966e+09 3.69084e+09 3.69358e+09 0
000 256 1 0 3.73453e+09 3.73479e+09 3.73597e+09 3.73685e+09 1
001 257 1 0 3.74074e+09 3.74101e+09 3.74212e+09 3.74679e+09 0
001 258 2 1 3.76057e+09 3.76083e+09 3.76214e+09 3.76222e+09 0
001 259 2 1 3.78169e+09 3.78196e+09 3.78259e+09 3.78264e+09 0
001 260 1 0 3.80068e+09 3.80099e+09 3.80163e+09 3.80932e+09 0
001 261 2 0 3.81652e+09 3.8168e+09 3.81735e+09 3.82087e+09 0
000 262 2 1 3.85517e+09 3.85543e+09 3.85598e+09 3.85663e+09 1
001 263 1 0 3.87689e+09 3.87715e+09 3.87766e+09 3.87984e+09 0
001 264 2 1 3.88849e+09 3.88876e+09 3.88977e+09 3.89187e+09 0
001 265 1 0 3.90435e+09 3.90462e+09 3.90557e+09 3.90624e+09 0
001 266 2 0 3.93543e+09 3.93575e+09 3.93702e+09 3.93719e+09 0
000 267 2 1 3.94572e+09 3.94598e+09 3.94725e+09 3.94775e+09 1
001 268 1 1 3.96989e+09 3.97015e+09 3.97093e+09 3.97096e+09 0
000 269 1 1 3.97825e+09 3.97851e+09 3.97929e+09 3.97934e+09 1
000 270 1 1 3.98643e+09 3.9867e+09 3.98748e+09 3.98947e+09 1
000 271 1 0 3.99683e+09 3.99709e+09 3.99787e+09 4.00069e+09 1
001 272 2 1 4.0032e+09 4.00348e+09 4.00442e+09 4.00527e+09 0
001 273 1 0 4.03471e+09 4.03498e+09 4.03569e+09 4.03738e+09 0
001 274 2 1 4.05036e+09 4.05063e+09 4.05201e+09 4.05669e+09 0
001 275 2 0 4.0704e+09 4.07066e+09 4.0719e+09 4.07467e+09 0
000 276 2 0 4.08181e+09 4.08207e+09 4.08331e+09 4.08403e+09 1
000 277 2 1 4.10888e+09 4.10915e+09 4.11039e+09 4.11252e+09 1
001 278 1 0 4.12554e+09 4.12581e+09 4.1265e+09 4.12668e+09 0
001 279 2 0 4.13132e+09 4.13158e+09 4.13288e+09 4.1359e+09 0
000 280 2 0 4.14745e+09 4.14772e+09 4.14901e+09 4.15046e+09 1
000 281 2 0 4.15962e+09 4.15989e+09 4.16118e+09 4.1628e+09 1
000 282 2 0 4.17959e+09 4.17985e+09 4.18114e+09 4.18926e+09 1
000 283 1 0 4.19775e+09 4.19801e+09 4.19943e+09 4.19988e+09 0
001 284 1 1 4.20343e+09 4.2037e+09 4.20435e+09 4.20728e+09 0
000 285 1 1 4.21605e+09 4.21632e+09 4.21697e+09 4.21865e+09 1
000 286 1 1 4.23191e+09 4.23216e+09 4.23281e+09 4.23314e+09 1
000 287 1 0 4.24045e+09 4.24071e+09 4.24136e+09 4.24438e+09 1
001 288 1 0 4.2565e+09 4.25676e+09 4.25762e+09 4.25973e+09 0
001 289 2 0 4.27439e+09 4.27465e+09 4.27534e+09 4.27576e+09 0
000 290 2 1 4.69915e+06 4.9574e+06 5.64511e+06 8.06082e+06 1
001 291 1 1 2.05486e+07 2.08209e+07 2.13597e+07 2.56988e+07 0
000 292 1 0 3.4387e+07 3.46622e+07 3.5201e+07 4.23045e+07 1
001 293 1 1 4.51359e+07 4.54075e+07 4.61044e+07 5.07864e+07 0
000 294 1 1 6.67187e+07 6.69906e+07 6.76876e+07 6.8697e+07 1
000 295 1 1 7.68318e+07 7.70914e+07 7.77883e+07 8.7555e+07 1
000 296 1 0 9.47067e+07 9.49751e+07 9.56721e+07 9.98924e+07 1
001 297 2 1 1.02508e+08 1.0277e+08 1.03326e+08 1.03682e+08 0
001 298 1 1 1.08402e+08 1.08673e+08 1.09217e+08 1.10919e+08 0
000 299 1 0 1.19565e+08 1.19834e+08 1.20379e+08 1.20585e+08 1
001 300 1 0 1.25648e+08 1.25916e+08 1.26463e+08 1.30631e+08 0
001 301 1 1 1.33026e+08 1.33285e+08 1.34203e+08 1.35058e+08 0
000 302 1 0 1.64471e+08 1.64741e+08 1.65659e+08 1.65931e+08 1
001 303 2 1 1.72859e+08 1.73124e+08 1.74064e+08 1.74138e+08 0
001 304 2 0 1.82495e+08 1.82766e+08 1.84253e+08 1.84475e+08 0
000 305 2 0 2.07365e+08 2.07624e+08 2.0911e+08 2.09283e+08 1
000 306 2 1 2.59558e+08 2.59818e+08 2.61304e+08 2.61382e+08 1
001 307 2 0 2.75112e+08 2.75378e+08 2.76329e+08 2.77874e+08 0
000 308 2 0 2.86825e+08 2.87083e+08 2.88035e+08 2.88975e+08 1
000 309 2 0 2.96741e+08 2.97014e+08 2.97965e+08 3.00347e+08 1
000 310 2 1 3.08622e+08 3.0888e+08 3.09831e+08 3.13192e+08 1
001 311 1 1 3.21734e+08 3.22008e+08 3.22799e+08 3.23196e+08 0
000 312 1 0 3.32404e+08 3.32674e+08 3.33465e+08 3.33653e+08 1
001 313 1 1 3.5267e+08 3.52932e+08 3.53771e+08 3.53908e+08 0
000 314 1 1 3.63423e+08 3.63693e+08 3.64532e+08 3.65547e+08 1
000 315 1 1 3.88343e+08 3.88609e+08 3.89448e+08 3.8982e+08 1
000 316 1 1 3.97423e+08 3.97681e+08 3.9852e+08 3.98766e+08 1
000 317 2 0 4.1051e+08 4.10783e+08 4.11648e+08 4.12077e+08 0
000 318 2 0 4.19362e+08 4.19639e+08 4.20881e+08 4.24268e+08 0
000 319 2 0 4.33389e+08 4.33658e+08 4.35114e+08 4.40488e+08 0
000 320 2 0 4.47674e+08 4.47952e+08 4.49275e+08 4.58047e+08 0
000 321 1 0 4.67143e+08 4.67416e+08 4.68682e+08 4.69373e+08 0
001 322 2 0 4.73424e+08 4.73698e+08 4.74767e+08 4.78859e+08 0
000 323 2 0 4.94918e+08 4.95178e+08 4.96247e+08 5.05927e+08 1
000 324 2 0 5.13065e+08 5.13329e+08 5.14397e+08 5.14566e+08 1
000 325 2 0 5.25554e+08 5.25817e+08 5.26886e+08 5.37494e+08 1
000 326 1 1 5.47233e+08 5.47514e+08 5.48861e+08 5.50996e+08 0
000 327 2 1 5.59711e+08 5.59988e+08 5.61415e+08 5.6265e+08 0
001 328 1 0 5.68924e+08 5.6919e+08 5.70548e+08 5.8811e+08 0
001 329 1 1 5.91198e+08 5.91467e+08 5.92152e+08 5.93092e+08 0
000 330 1 0 6.00218e+08 6.00482e+08 6.01167e+08 6.0238e+08 1
001 331 1 0 6.08954e+08 6.09221e+08 6.10158e+08 6.16688e+08 0
001 332 2 0 6.22069e+08 6.22336e+08 6.23708e+08 6.25787e+08 0
000 333 2 0 6.33219e+08 6.33481e+08 6.34854e+08 6.3612e+08 1
000 334 2 0 6.47367e+08 6.47625e+08 6.48997e+08 6.5518e+08 1
000 335 2 0 6.6641e+08 6.66674e+08 6.68046e+08 6.71023e+08 1
000 336 2 1 6.78831e+08 6.79087e+08 6.79593e+08 6.82839e+08 0
001 337 2 0 6.87095e+08 6.87364e+08 6.88326e+08 6.93468e+08 0
000 338 2 0 7.04246e+08 7.04513e+08 7.05475e+08 7.09325e+08 1
000 339 2 1 7.18712e+08 7.18974e+08 7.19936e+08 7.21383e+08 1
001 340 2 0 7.25983e+08 7.2624e+08 7.27738e+08 7.31651e+08 0
000 341 2 1 7.42643e+08 7.42896e+08 7.44395e+08 7.49376e+08 1
001 342 2 0 7.53844e+08 7.54108e+08 7.55008e+08 7.61003e+08 0
000 343 2 1 7.69116e+08 7.69385e+08 7.70285e+08 7.71942e+08 1
001 344 1 0 7.75868e+08 7.76131e+08 7.7706e+08 7.7749e+08 0
001 345 1 1 7.84913e+08 7.85183e+08 7.85994e+08 7.91826e+08 0
000 346 1 0 8.08464e+08 8.08724e+08 8.09536e+08 8.09888e+08 1
001 347 1 0 8.14803e+08 8.15072e+08 8.16328e+08 8.21289e+08 0
001 348 2 0 8.27616e+08 8.27876e+08 8.28596e+08 8.332e+08 0
000 349 2 1 8.40543e+08 8.40816e+08 8.41535e+08 8.42068e+08 1
001 350 2 1 8.52041e+08 8.52313e+08 8.52888e+08 8.55477e+08 0
001 351 2 0 8.64815e+08 8.65084e+08 8.65751e+08 8.72443e+08 0
000 352 2 1 8.81221e+08 8.81487e+08 8.82153e+08 8.83365e+08 1
001 353 2 0 8.86738e+08 8.86998e+08 8.88105e+08 8.94025e+08 0
000 354 2 0 9.01854e+08 9.02132e+08 9.03239e+08 9.054e+08 1
000 355 2 0 9.12803e+08 9.13067e+08 9.14174e+08 9.24625e+08 1
000 356 2 1 9.34252e+08 9.34514e+08 9.3562e+08 9.37439e+08 1
001 357 1 0 9.43062e+08 9.43344e+08 9.44426e+08 9.46065e+08 0
001 358 1 0 9.49379e+08 9.49647e+08 9.50267e+08 9.52736e+08 0
001 359 1 1 9.56162e+08 9.5642e+08 9.57274e+08 9.5997e+08 0
000 360 1 0 9.67418e+08 9.67672e+08 9.68527e+08 9.75236e+08 1
001 361 1 1 9.77646e+08 9.77917e+08 9.79206e+08 9.80745e+08 0
000 362 1 1 9.87903e+08 9.88176e+08 9.89464e+08 9.91954e+08 1
000 363 1 0 1.00243e+09 1.00269e+09 1.00398e+09 1.00543e+09 1
001 364 1 0 1.01231e+09 1.01256e+09 1.01316e+09 1.01611e+09 0
001 365 2 0 1.04253e+09 1.04278e+09 1.04338e+09 1.04562e+09 0
000 366 2 1 1.05676e+09 1.05701e+09 1.05761e+09 1.05768e+09 1
001 367 1 0 1.06328e+09 1.06354e+09 1.06414e+09 1.06887e+09 0
001 368 2 0 1.07371e+09 1.07397e+09 1.0745e+09 1.08154e+09 0
000 369 2 1 1.09207e+09 1.09232e+09 1.09285e+09 1.0955e+09 1
001 370 2 1 1.09993e+09 1.10021e+09 1.10117e+09 1.10215e+09 0
001 371 2 1 1.13368e+09 1.13396e+09 1.13453e+09 1.13561e+09 0
001 372 1 1 1.14206e+09 1.14232e+09 1.14292e+09 1.14397e+09 0
000 373 1 0 1.15428e+09 1.15454e+09 1.15514e+09 1.15537e+09 1
001 374 1 0 1.16359e+09 1.16386e+09 1.16461e+09 1.16469e+09 0
001 375 2 0 1.19248e+09 1.19275e+09 1.19361e+09 1.19596e+09 0
000 376 2 0 1.21807e+09 1.21834e+09 1.2192e+09 1.23551e+09 1
000 377 2 1 1.25097e+09 1.25123e+09 1.25209e+09 1.25983e+09 1
001 378 2 0 1.27302e+09 1.27329e+09 1.27421e+09 1.28128e+09 0
000 379 2 1 1.29041e+09 1.29067e+09 1.29158e+09 1.29411e+09 1
001 380 2 1 1.30204e+09 1.3023e+09 1.30347e+09 1.30365e+09 0
001 381 1 0 1.32496e+09 1.32523e+09 1.32595e+09 1.32704e+09 0
001 382 2 0 1.33158e+09 1.33184e+09 1.3324e+09 1.33321e+09 0
000 383 2 1 1.3565e+09 1.35677e+09 1.35733e+09 1.35755e+09 1
001 384 2 0 1.36346e+09 1.36373e+09 1.36501e+09 1.36958e+09 0
000 385 2 1 1.38092e+09 1.38119e+09 1.38247e+09 1.38508e+09 1
001 386 2 0 1.40027e+09 1.40053e+09 1.40188e+09 1.40335e+09 0
000 387 2 1 1.42235e+09 1.42261e+09 1.42395e+09 1.4244e+09 1
001 388 1 1 1.43993e+09 1.44021e+09 1.44147e+09 1.44268e+09 0
000 389 1 1 1.45193e+09 1.4522e+09 1.45345e+09 1.46694e+09 1
000 390 1 0 1.47572e+09 1.47599e+09 1.47725e+09 1.47948e+09 1
001 391 1 0 1.49305e+09 1.4933e+09 1.49387e+09 1.49462e+09 0
001 392 2 0 1.51326e+09 1.51353e+09 1.51416e+09 1.51531e+09 0
000 393 2 0 1.52236e+09 1.52263e+09 1.52327e+09 1.5347e+09 1
000 394 2 0 1.54446e+09 1.54472e+09 1.54536e+09 1.56129e+09 1
000 395 2 1 1.57011e+09 1.57037e+09 1.57101e+09 1.58109e+09 1
001 396 1 0 1.60083e+09 1.60109e+09 1.60209e+09 1.60268e+09 0
001 397 2 0 1.61095e+09 1.61121e+09 1.61212e+09 1.61356e+09 0
000 398 2 0 1.62151e+09 1.62176e+09 1.62267e+09 1.62457e+09 1
000 399 2 0 1.63676e+09 1.63703e+09 1.63793e+09 1.63926e+09 1
000 400 2 1 1.6482e+09 1.64846e+09 1.64937e+09 1.65428e+09 1
001 401 2 1 1.65666e+09 1.65693e+09 1.65746e+09 1.65954e+09 0
001 402 1 1 1.66207e+09 1.66234e+09 1.66334e+09 1.66924e+09 0
000 403 1 1 1.67654e+09 1.67681e+09 1.6778e+09 1.67934e+09 1
000 404 1 1 1.68932e+09 1.68958e+09 1.69058e+09 1.6922e+09 1
000 405 1 0 1.7003e+09 1.70056e+09 1.70156e+09 1.70212e+09 1
001 406 1 1 1.70786e+09 1.70812e+09 1.70924e+09 1.70932e+09 0
000 407 1 0 1.7331e+09 1.73337e+09 1.73449e+09 1.73763e+09 1
001 408 2 0 1.74331e+09 1.74358e+09 1.74433e+09 1.74995e+09 0
000 409 2 0 1.76189e+09 1.76216e+09 1.76291e+09 1.76491e+09 1
000 410 2 0 1.77218e+09 1.77245e+09 1.7732e+09 1.78846e+09 1
000 411 2 0 1.79595e+09 1.79621e+09 1.79696e+09 1.80026e+09 1
000 412 1 1 1.80782e+09 1.80807e+09 1.80867e+09 1.81072e+09 0
000 413 1 0 1.81866e+09 1.81893e+09 1.82037e+09 1.8227e+09 0
001 414 1 0 1.83002e+09 1.83028e+09 1.83091e+09 1.83433e+09 0
001 415 1 1 1.84002e+09 1.84029e+09 1.84165e+09 1.85358e+09 0
000 416 1 1 1.86965e+09 1.86991e+09 1.87126e+09 1.87141e+09 1
000 417 1 1 1.88077e+09 1.88103e+09 1.88239e+09 1.88303e+09 1
000 418 1 1 1.90035e+09 1.90061e+09 1.90197e+09 1.91264e+09 1
000 419 1 1 1.92125e+09 1.92151e+09 1.92292e+09 1.92304e+09 0
000 420 1 1 1.9306e+09 1.93088e+09 1.93178e+09 1.93446e+09 0
000 421 2 1 1.94207e+09 1.94234e+09 1.94349e+09 1.94529e+09 0
001 422 2 1 1.94873e+09 1.949e+09 1.95046e+09 1.95646e+09 0
001 423 2 1 1.96595e+09 1.9662e+09 1.96747e+09 1.96907e+09 0
001 424 2 0 1.97347e+09 1.97374e+09 1.9743e+09 1.97919e+09 0
000 425 2 1 1.98799e+09 1.98825e+09 1.98882e+09 1.99218e+09 1
001 426 1 0 1.99508e+09 1.99535e+09 1.99679e+09 1.99905e+09 0
001 427 1 1 2.00149e+09 2.00175e+09 2.00319e+09 2.00772e+09 0
000 428 1 1 2.01502e+09 2.01529e+09 2.01673e+09 2.01814e+09 1
000 429 1 1 2.03003e+09 2.03029e+09 2.03173e+09 2.03423e+09 1
000 430 1 0 2.04128e+09 2.04154e+09 2.04298e+09 2.04326e+09 1
001 431 1 1 2.04752e+09 2.04778e+09 2.04909e+09 2.05179e+09 0
000 432 1 1 2.06137e+09 2.06163e+09 2.06294e+09 2.06691e+09 1
000 433 1 1 2.07426e+09 2.07452e+09 2.07583e+09 2.07814e+09 1
000 434 1 0 2.08695e+09 2.08721e+09 2.08851e+09 2.08884e+09 1
001 435 1 1 2.10365e+09 2.10392e+09 2.1049e+09 2.10495e+09 0
000 436 1 1 2.11228e+09 2.11254e+09 2.11352e+09 2.11566e+09 1
000 437 1 1 2.13431e+09 2.13457e+09 2.13555e+09 2.13645e+09 1
000 438 1 1 2.14842e+09 2.14868e+09 2.14966e+09 2.15183e+09 1
000 439 2 1 2.15957e+09 2.15984e+09 2.16109e+09 2.16124e+09 0
001 440 2 0 2.16563e+09 2.1659e+09 2.16722e+09 2.16744e+09 0
000 441 2 1 2.17622e+09 2.17648e+09 2.1778e+09 2.18072e+09 1
001 442 2 1 2.18778e+09 2.18803e+09 2.18903e+09 2.19142e+09 0
001 443 2 1 2.208e+09 2.20826e+09 2.20904e+09 2.21088e+09 0
001 444 2 1 2.21678e+09 2.21705e+09 2.21804e+09 2.22129e+09 0
001 445 2 1 2.22555e+09 2.22582e+09 2.22713e+09 2.22777e+09 0
001 446 2 1 2.23295e+09 2.23322e+09 2.23465e+09 2.23564e+09 0
001 447 1 0 2.27534e+09 2.2756e+09 2.27645e+09 2.27721e+09 0
001 448 1 1 2.28585e+09 2.28611e+09 2.28689e+09 2.28694e+09 0
000 449 1 1 2.29796e+09 2.29823e+09 2.299e+09 2.3012e+09 1
000 450 1 0 2.31455e+09 2.31481e+09 2.31559e+09 2.31576e+09 1
001 451 2 1 2.33277e+09 2.33302e+09 2.33401e+09 2.33799e+09 0
001 452 2 0 2.34052e+09 2.34078e+09 2.34172e+09 2.36295e+09 0
000 453 2 1 2.37517e+09 2.37543e+09 2.37637e+09 2.37757e+09 1
001 454 1 0 2.38378e+09 2.38405e+09 2.38537e+09 2.39587e+09 0
001 455 2 1 2.40132e+09 2.40159e+09 2.40221e+09 2.40709e+09 0
001 456 1 0 2.41166e+09 2.41193e+09 2.41292e+09 2.41527e+09 0
001 457 2 0 2.43892e+09 2.43918e+09 2.43987e+09 2.44171e+09 0
000 458 2 0 2.44901e+09 2.44928e+09 2.44998e+09 2.45616e+09 1
000 459 2 1 2.46452e+09 2.46479e+09 2.46548e+09 2.47134e+09 1
001 460 1 0 2.47429e+09 2.47455e+09 2.47533e+09 2.50661e+09 0
001 461 2 0 2.51713e+09 2.5174e+09 2.51864e+09 2.51987e+09 0
000 462 2 0 2.53041e+09 2.53068e+09 2.53191e+09 2.53311e+09 1
000 463 2 0 2.54057e+09 2.54083e+09 2.54207e+09 2.54267e+09 1
000 464 2 0 2.55143e+09 2.5517e+09 2.55293e+09 2.55826e+09 1
000 465 2 0 2.56565e+09 2.56591e+09 2.56671e+09 2.57212e+09 0
000 466 1 0 2.57932e+09 2.57959e+09 2.58017e+09 2.59122e+09 0
001 467 2 1 2.59374e+09 2.59402e+09 2.59474e+09 2.59657e+09 0
001 468 1 0 2.61729e+09 2.61755e+09 2.61836e+09 2.61883e+09 0
001 469 1 1 2.63731e+09 2.63757e+09 2.63882e+09 2.63981e+09 0
000 470 1 0 2.64701e+09 2.64727e+09 2.64851e+09 2.6498e+09 1
001 471 2 0 2.67344e+09 2.6737e+09 2.6745e+09 2.67475e+09 0
000 472 2 0 2.68188e+09 2.68213e+09 2.68292e+09 2.6837e+09 1
000 473 2 0 2.6911e+09 2.69136e+09 2.69215e+09 2.69223e+09 1
000 474 2 0 2.7e+09 2.70027e+09 2.70106e+09 2.70205e+09 1
000 475 1 0 2.7113e+09 2.71157e+09 2.71232e+09 2.71251e+09 0
001 476 1 1 2.71718e+09 2.71745e+09 2.71847e+09 2.72493e+09 0
000 477 1 1 2.73828e+09 2.73854e+09 2.73956e+09 2.74012e+09 1
000 478 1 1 2.75261e+09 2.75288e+09 2.7539e+09 2.75547e+09 1
000 479 1 1 2.76405e+09 2.7643e+09 2.76532e+09 2.7673e+09 1
000 480 2 1 2.77814e+09 2.77845e+09 2.77989e+09 2.78113e+09 0
001 481 1 1 2.78589e+09 2.78615e+09 2.78685e+09 2.78814e+09 0
000 482 1 1 2.79524e+09 2.7955e+09 2.7962e+09 2.79738e+09 1
000 483 1 1 2.81362e+09 2.81388e+09 2.81458e+09 2.81548e+09 1
000 484 1 0 2.82628e+09 2.82654e+09 2.82724e+09 2.82832e+09 1
001 485 1 1 2.83499e+09 2.83524e+09 2.83594e+09 2.83855e+09 0
000 486 1 1 2.85408e+09 2.85434e+09 2.85504e+09 2.85728e+09 1
000 487 1 1 2.8645e+09 2.86477e+09 2.86546e+09 2.86791e+09 1
000 488 1 1 2.88133e+09 2.88159e+09 2.88229e+09 2.88346e+09 1
000 489 1 1 2.89591e+09 2.89617e+09 2.89728e+09 2.8996e+09 0
000 490 2 0 2.90974e+09 2.91002e+09 2.91137e+09 2.91781e+09 0
000 491 1 0 2.92529e+09 2.92555e+09 2.92683e+09 2.92898e+09 0
001 492 1 1 2.93142e+09 2.93169e+09 2.93266e+09 2.93381e+09 0
000 493 1 1 2.94243e+09 2.9427e+09 2.94366e+09 2.95243e+09 1
000 494 1 1 2.95959e+09 2.95985e+09 2.96082e+09 2.96305e+09 1
000 495 1 1 2.97098e+09 2.97124e+09 2.97221e+09 2.97808e+09 1
000 496 2 0 2.99016e+09 2.99043e+09 2.99138e+09 3.00574e+09 0
000 497 2 1 3.01318e+09 3.01345e+09 3.01437e+09 3.01854e+09 0
001 498 2 1 3.02829e+09 3.02854e+09 3.02916e+09 3.03061e+09 0
001 499 1 0 3.04416e+09 3.04442e+09 3.04512e+09 3.04977e+09 0
001 500 1 1 3.05791e+09 3.05817e+09 3.05903e+09 3.06153e+09 0
000 501 1 1 3.06889e+09 3.06915e+09 3.07001e+09 3.07782e+09 1
000 502 1 0 3.08651e+09 3.08677e+09 3.08763e+09 3.09245e+09 1
001 503 2 1 3.0952e+09 3.09546e+09 3.09642e+09 3.09806e+09 0
001 504 1 1 3.10073e+09 3.101e+09 3.10205e+09 3.10245e+09 0
000 505 1 1 3.12697e+09 3.12723e+09 3.12828e+09 3.13226e+09 1
000 506 1 1 3.14031e+09 3.14058e+09 3.14163e+09 3.14236e+09 1
000 507 1 1 3.15528e+09 3.15555e+09 3.1566e+09 3.15941e+09 1
000 508 2 1 3.16973e+09 3.17e+09 3.17104e+09 3.17178e+09 0
001 509 1 1 3.17754e+09 3.1778e+09 3.17839e+09 3.17868e+09 0
000 510 1 1 3.18935e+09 3.18961e+09 3.1902e+09 3.19048e+09 1
000 511 1 0 3.19769e+09 3.19796e+09 3.19855e+09 3.19919e+09 1
001 512 2 0 3.20842e+09 3.20868e+09 3.20957e+09 3.21232e+09 0
000 513 2 0 3.2195e+09 3.21977e+09 3.22066e+09 3.23621e+09 1
000 514 2 1 3.24491e+09 3.24517e+09 3.24606e+09 3.25334e+09 1
001 515 2 0 3.25626e+09 3.25653e+09 3.25775e+09 3.26201e+09 0
000 516 2 1 3.26912e+09 3.26938e+09 3.2706e+09 3.27699e+09 1
001 517 1 0 3.28448e+09 3.28474e+09 3.28598e+09 3.28757e+09 0
001 518 1 1 3.29195e+09 3.29221e+09 3.29315e+09 3.29344e+09 0
000 519 1 1 3.30149e+09 3.30176e+09 3.3027e+09 3.30669e+09 1
000 520 1 1 3.31565e+09 3.31591e+09 3.31684e+09 3.31809e+09 1
000 521 1 1 3.32872e+09 3.32899e+09 3.32993e+09 3.33171e+09 1
000 522 2 0 3.3392e+09 3.33947e+09 3.34008e+09 3.34174e+09 0
000 523 1 0 3.35072e+09 3.35097e+09 3.35194e+09 3.35434e+09 0
001 524 2 1 3.35857e+09 3.35883e+09 3.3598e+09 3.36088e+09 0
001 525 1 1 3.36413e+09 3.36439e+09 3.36527e+09 3.36545e+09 0
000 526 1 0 3.37402e+09 3.37428e+09 3.37516e+09 3.37602e+09 1
001 527 2 1 3.3993e+09 3.39957e+09 3.40024e+09 3.4019e+09 0
001 528 1 0 3.43096e+09 3.43121e+09 3.43195e+09 3.43232e+09 0
001 529 1 1 3.44902e+09 3.44929e+09 3.45021e+09 3.45069e+09 0
000 530 1 0 3.4615e+09 3.46177e+09 3.4627e+09 3.46382e+09 1
001 531 1 0 3.46983e+09 3.47009e+09 3.47105e+09 3.47193e+09 0
001 532 2 0 3.48115e+09 3.48142e+09 3.48223e+09 3.48366e+09 0
000 533 2 1 3.49645e+09 3.4967e+09 3.49751e+09 3.49783e+09 1
001 534 2 1 3.51454e+09 3.5148e+09 3.51581e+09 3.51628e+09 0
001 535 1 0 3.5363e+09 3.53656e+09 3.53777e+09 3.53856e+09 0
001 536 1 1 3.54322e+09 3.54348e+09 3.54466e+09 3.54488e+09 0
000 537 1 1 3.55425e+09 3.5545e+09 3.55569e+09 3.55713e+09 1
000 538 1 0 3.56597e+09 3.56623e+09 3.56741e+09 3.5687e+09 1
001 539 2 0 3.57325e+09 3.57353e+09 3.57479e+09 3.5766e+09 0
000 540 2 0 3.59994e+09 3.60021e+09 3.60148e+09 3.60968e+09 1
000 541 2 0 3.61737e+09 3.61762e+09 3.61889e+09 3.62243e+09 1
000 542 2 1 3.63028e+09 3.63055e+09 3.63181e+09 3.63583e+09 1
001 543 1 0 3.64567e+09 3.64593e+09 3.64713e+09 3.65958e+09 0
001 544 1 1 3.66568e+09 3.66594e+09 3.66651e+09 3.68712e+09 0
000 545 1 1 3.69547e+09 3.69573e+09 3.69629e+09 3.70137e+09 1
000 546 1 1 3.70875e+09 3.70902e+09 3.70958e+09 3.74437e+09 1
000 547 1 0 3.75174e+09 3.752e+09 3.75256e+09 3.75656e+09 1
001 548 2 0 3.75955e+09 3.75982e+09 3.76055e+09 3.77518e+09 0
000 549 2 0 3.78235e+09 3.78262e+09 3.78335e+09 3.81241e+09 1
000 550 2 1 3.81984e+09 3.82009e+09 3.82082e+09 3.83558e+09 1
001 551 2 1 3.83978e+09 3.84005e+09 3.8412e+09 3.86579e+09 0
001 552 1 1 3.86986e+09 3.87012e+09 3.87079e+09 3.88298e+09 0
000 553 1 1 3.89067e+09 3.89093e+09 3.8916e+09 3.90507e+09 1
000 554 1 0 3.91369e+09 3.91396e+09 3.91463e+09 3.91961e+09 1
001 555 2 1 3.92349e+09 3.92376e+09 3.92525e+09 3.92727e+09 0
001 556 1 1 3.93154e+09 3.9318e+09 3.93283e+09 3.93328e+09 0
000 557 1 1 3.94228e+09 3.94255e+09 3.94357e+09 3.95278e+09 1
000 558 1 1 3.95984e+09 3.96009e+09 3.96112e+09 3.96991e+09 1
000 559 1 0 3.97735e+09 3.97762e+09 3.97864e+09 3.98375e+09 1
001 560 2 1 3.98661e+09 3.98687e+09 3.98769e+09 3.9898e+09 0
001 561 2 1 3.99302e+09 3.99328e+09 3.99478e+09 3.99536e+09 0
001 562 2 1 4.00022e+09 4.00048e+09 4.00127e+09 4.00155e+09 0
001 563 2 0 4.01586e+09 4.01612e+09 4.01727e+09 4.0183e+09 0
000 564 2 1 4.02716e+09 4.02743e+09 4.02859e+09 4.03545e+09 1
001 565 1 1 4.03783e+09 4.03811e+09 4.03905e+09 4.04045e+09 0
000 566 1 1 4.05846e+09 4.05873e+09 4.05967e+09 4.06104e+09 1
000 567 1 1 4.06956e+09 4.06982e+09 4.07076e+09 4.07142e+09 1
000 568 1 1 4.07879e+09 4.07905e+09 4.07999e+09 4.0822e+09 1
000 569 1 0 4.08954e+09 4.08981e+09 4.09131e+09 4.09678e+09 0
001 570 2 1 4.10048e+09 4.10075e+09 4.1015e+09 4.10302e+09 0
001 571 1 0 4.1153e+09 4.11556e+09 4.11622e+09 4.11737e+09 0
001 572 2 1 4.12342e+09 4.12369e+09 4.12426e+09 4.13843e+09 0
001 573 1 1 4.14472e+09 4.14498e+09 4.14617e+09 4.15011e+09 0
000 574 1 0 4.15758e+09 4.15785e+09 4.15904e+09 4.16238e+09 1
001 575 2 1 4.1662e+09 4.16645e+09 4.16732e+09 4.16737e+09 0
001 576 2 1 4.17337e+09 4.17363e+09 4.17413e+09 4.17792e+09 0
001 