trial trialType response stillTime stimOnset stimOffset respTime correctionTrial correct
001 1 1 3.07201e+06 3.32748e+06 4.33366e+06 1.28485e+07 0
000 002 1 1 2.0138e+07 2.03885e+07 2.13947e+07 1.69679e+08 1
000 003 1 1 1.90416e+08 1.90682e+08 1.91688e+08 1.91875e+08 1
000 004 1 1 2.07891e+08 2.08145e+08 2.09151e+08 2.105e+08 1
000 005 1 1 2.19685e+08 2.19943e+08 2.20798e+08 2.22966e+08 0
000 006 1 1 2.30315e+08 2.30572e+08 2.31152e+08 2.39289e+08 0
000 007 1 1 2.46424e+08 2.4668e+08 2.47724e+08 2.5386e+08 0
000 008 1 1 2.61328e+08 2.6159e+08 2.6257e+08 2.6608e+08 0
000 009 1 0 2.74074e+08 2.74339e+08 2.75035e+08 2.7789e+08 0
001 010 1 1 2.84374e+08 2.84639e+08 2.85943e+08 2.94269e+08 0
000 011 1 0 3.01751e+08 3.02006e+08 3.0331e+08 3.06219e+08 1
001 012 1 1 3.12453e+08 3.12718e+08 3.13721e+08 3.17354e+08 0
000 013 1 1 3.24898e+08 3.25169e+08 3.26173e+08 3.32998e+08 1
000 014 1 0 3.41846e+08 3.42117e+08 3.43121e+08 3.62184e+08 1
001 015 1 1 3.69874e+08 3.70148e+08 3.70987e+08 3.7108e+08 0
000 016 1 1 3.81192e+08 3.81459e+08 3.82298e+08 3.92944e+08 1
000 017 1 1 4.00329e+08 4.00587e+08 4.01426e+08 4.20849e+08 1
000 018 1 1 4.29704e+08 4.29967e+08 4.30805e+08 4.31349e+08 1
000 019 2 1 4.38768e+08 4.39035e+08 4.3997e+08 4.45317e+08 0
001 020 1 0 4.47963e+08 4.48215e+08 4.4881e+08 4.51224e+08 0
001 021 1 1 4.72407e+08 4.72676e+08 4.73897e+08 4.76488e+08 0
000 022 1 1 4.83715e+08 4.83976e+08 4.85197e+08 4.9e+08 1
000 023 1 1 4.98307e+08 4.98563e+08 4.99784e+08 5.00103e+08 1
000 024 1 1 5.07309e+08 5.07564e+08 5.08785e+08 5.17668e+08 1
000 025 1 1 5.24805e+08 5.25063e+08 5.26267e+08 5.32917e+08 0
000 026 2 1 5.40587e+08 5.40848e+08 5.41545e+08 5.44772e+08 0
001 027 2 1 5.5062e+08 5.5089e+08 5.52045e+08 5.72871e+08 0
001 028 2 1 6.01664e+08 6.01921e+08 6.02827e+08 6.10578e+08 0
001 029 1 1 6.27727e+08 6.27988e+08 6.29323e+08 6.29602e+08 0
000 030 1 1 6.36988e+08 6.37253e+08 6.38588e+08 6.57033e+08 1
000 031 1 1 6.64188e+08 6.64444e+08 6.65779e+08 6.82393e+08 1
000 032 1 1 6.99566e+08 6.99832e+08 7.01167e+08 7.04194e+08 1
000 033 2 0 7.1747e+08 7.17748e+08 7.18773e+08 7.21274e+08 0
000 034 2 1 7.30232e+08 7.30497e+08 7.31209e+08 7.33666e+08 0
001 035 2 1 7.40951e+08 7.41214e+08 7.42613e+08 7.43214e+08 0
001 036 2 1 7.51739e+08 7.52006e+08 7.52524e+08 7.52813e+08 0
001 037 1 1 7.57616e+08 7.57885e+08 7.58732e+08 7.59051e+08 0
000 038 1 1 7.66574e+08 7.66837e+08 7.67684e+08 7.68033e+08 1
000 039 1 1 7.77717e+08 7.77983e+08 7.7883e+08 7.7938e+08 1
000 040 1 0 7.86752e+08 7.87022e+08 7.87868e+08 7.89098e+08 1
001 041 1 0 8.0365e+08 8.03903e+08 8.05163e+08 8.05446e+08 0
001 042 2 1 8.13876e+08 8.14147e+08 8.15636e+08 8.17687e+08 0
001 043 2 1 8.28195e+08 8.28465e+08 8.29487e+08 8.30078e+08 0
001 044 2 0 8.5807e+08 8.58336e+08 8.59637e+08 8.5986e+08 0
000 045 2 1 8.7139e+08 8.71652e+08 8.72953e+08 8.73608e+08 1
001 046 1 1 8.9401e+08 8.94279e+08 8.95488e+08 8.96049e+08 0
000 047 1 1 9.03322e+08 9.03582e+08 9.04791e+08 9.08369e+08 1
000 048 1 1 9.19348e+08 9.19608e+08 9.20817e+08 9.23909e+08 1
000 049 1 1 9.32372e+08 9.32645e+08 9.33854e+08 9.34188e+08 1
000 050 2 1 9.41619e+08 9.41888e+08 9.42927e+08 9.51521e+08 0
001 051 1 1 9.57827e+08 9.58095e+08 9.58778e+08 9.59116e+08 0
000 052 1 1 9.70578e+08 9.70843e+08 9.71527e+08 9.72917e+08 1
000 053 1 0 9.80177e+08 9.80444e+08 9.81127e+08 1.02939e+09 1
001 054 1 1 1.04459e+09 1.04485e+09 1.04585e+09 1.04738e+09 0
000 055 1 1 1.05568e+09 1.05594e+09 1.05694e+09 1.06597e+09 1
000 056 1 1 1.08148e+09 1.08174e+09 1.08274e+09 1.11183e+09 1
000 057 1 1 1.119e+09 1.11927e+09 1.12027e+09 1.13037e+09 1
000 058 2 1 1.13765e+09 1.13792e+09 1.13896e+09 1.14829e+09 0
001 059 2 1 1.15169e+09 1.15196e+09 1.15279e+09 1.15293e+09 0
001 060 2 1 1.1749e+09 1.17516e+09 1.17649e+09 1.17678e+09 0
001 061 1 1 1.19552e+09 1.19578e+09 1.19679e+09 1.197e+09 0
000 062 1 1 1.2065e+09 1.20675e+09 1.20777e+09 1.20907e+09 1
000 063 1 1 1.21616e+09 1.21642e+09 1.21744e+09 1.23651e+09 1
000 064 1 1 1.24479e+09 1.24505e+09 1.24606e+09 1.25245e+09 1
000 065 2 1 1.26531e+09 1.26557e+09 1.26678e+09 1.26722e+09 0
001 066 2 1 1.27664e+09 1.27691e+09 1.27768e+09 1.27828e+09 0
001 067 1 1 1.28799e+09 1.28825e+09 1.28929e+09 1.28959e+09 0
000 068 1 1 1.3005e+09 1.30075e+09 1.30179e+09 1.31266e+09 1
000 069 1 1 1.31993e+09 1.3202e+09 1.32123e+09 1.32601e+09 1
000 070 1 1 1.34461e+09 1.34488e+09 1.34591e+09 1.3461e+09 1
000 071 2 1 1.35348e+09 1.35376e+09 1.35473e+09 1.36392e+09 0
001 072 2 1 1.37636e+09 1.37662e+09 1.37794e+09 1.37855e+09 0
001 073 1 1 1.39521e+09 1.39547e+09 1.39632e+09 1.39666e+09 0
000 074 1 1 1.40414e+09 1.40439e+09 1.40525e+09 1.40549e+09 1
000 075 1 1 1.41727e+09 1.41753e+09 1.41839e+09 1.42902e+09 1
000 076 1 1 1.44158e+09 1.44184e+09 1.4427e+09 1.44828e+09 1
000 077 1 1 1.45541e+09 1.45567e+09 1.45656e+09 1.48508e+09 0
000 078 1 0 1.49219e+09 1.49245e+09 1.49357e+09 1.49461e+09 0
001 079 1 0 1.51487e+09 1.51512e+09 1.51576e+09 1.51589e+09 0
001 080 2 0 1.52506e+09 1.52532e+09 1.52649e+09 1.527e+09 0
000 081 2 1 1.53442e+09 1.53468e+09 1.53585e+09 1.53616e+09 1
001 082 1 1 1.53988e+09 1.54014e+09 1.54099e+09 1.54143e+09 0
000 083 1 1 1.54861e+09 1.54886e+09 1.54971e+09 1.55008e+09 1
000 084 1 1 1.55852e+09 1.55878e+09 1.55962e+09 1.55984e+09 1
000 085 1 1 1.57066e+09 1.57092e+09 1.57177e+09 1.57224e+09 1
000 086 1 1 1.58053e+09 1.5808e+09 1.58211e+09 1.58212e+09 0
000 087 2 1 1.59177e+09 1.59203e+09 1.59282e+09 1.59345e+09 0
001 088 1 1 1.60539e+09 1.60565e+09 1.60666e+09 1.60671e+09 0
000 089 1 1 1.61422e+09 1.61449e+09 1.6155e+09 1.61598e+09 1
000 090 1 1 1.62403e+09 1.62429e+09 1.6253e+09 1.62563e+09 1
000 091 1 1 1.63286e+09 1.63312e+09 1.63414e+09 1.63611e+09 1
000 092 1 0 1.64332e+09 1.64358e+09 1.645e+09 1.65495e+09 0
001 093 2 1 1.65727e+09 1.65753e+09 1.65885e+09 1.66152e+09 0
001 094 2 1 1.66421e+09 1.66447e+09 1.66544e+09 1.6661e+09 0
001 095 2 1 1.67747e+09 1.67772e+09 1.67885e+09 1.67978e+09 0
001 096 1 1 1.69227e+09 1.69254e+09 1.69399e+09 1.69423e+09 0
000 097 1 1 1.70267e+09 1.70293e+09 1.70438e+09 1.70484e+09 1
000 098 1 0 1.71948e+09 1.71974e+09 1.72119e+09 1.72144e+09 1
001 099 2 1 1.74214e+09 1.7424e+09 1.74377e+09 1.74412e+09 0
001 100 2 1 1.75151e+09 1.75177e+09 1.75234e+09 1.75268e+09 0
001 101 2 0 1.78991e+09 1.79018e+09 1.79138e+09 1.79153e+09 0
000 102 2 0 1.80201e+09 1.80227e+09 1.80348e+09 1.80376e+09 1
000 103 2 0 1.81235e+09 1.81262e+09 1.81383e+09 1.81623e+09 1
000 104 2 1 1.82714e+09 1.82743e+09 1.82864e+09 1.82879e+09 1
001 105 1 0 1.83267e+09 1.83292e+09 1.834e+09 1.83424e+09 0
001 106 2 1 1.8441e+09 1.84435e+09 1.84578e+09 1.84616e+09 0
001 107 1 1 1.85344e+09 1.85371e+09 1.85508e+09 1.85514e+09 0
000 108 1 1 1.86257e+09 1.86284e+09 1.86421e+09 1.87298e+09 1
000 109 1 0 1.88032e+09 1.88058e+09 1.88195e+09 1.88229e+09 1
001 110 1 1 1.89324e+09 1.89351e+09 1.89463e+09 1.89487e+09 0
000 111 1 1 1.90464e+09 1.9049e+09 1.90603e+09 1.90623e+09 1
000 112 1 0 1.91393e+09 1.9142e+09 1.91532e+09 1.91786e+09 1
001 113 2 1 1.93278e+09 1.93304e+09 1.93453e+09 1.93541e+09 0
001 114 2 1 1.93876e+09 1.93902e+09 1.94041e+09 1.94111e+09 0
001 115 2 1 1.95949e+09 1.9598e+09 1.96042e+09 1.96101e+09 0
001 116 2 1 1.96828e+09 1.96855e+09 1.96978e+09 1.97e+09 0
001 117 1 1 1.97768e+09 1.97794e+09 1.97911e+09 1.97965e+09 0
000 118 1 1 1.9871e+09 1.98736e+09 1.98853e+09 1.98877e+09 1
000 119 1 1 2.00367e+09 2.00395e+09 2.00512e+09 2.00539e+09 1
000 120 1 1 2.01461e+09 2.01489e+09 2.01606e+09 2.0165e+09 1
000 121 1 1 2.02388e+09 2.02415e+09 2.02561e+09 2.02608e+09 0
000 122 2 1 2.03361e+09 2.03388e+09 2.03513e+09 2.0358e+09 0
001 123 2 0 2.0439e+09 2.04416e+09 2.04512e+09 2.04542e+09 0
000 124 2 1 2.05329e+09 2.05355e+09 2.05451e+09 2.05495e+09 1
001 125 2 1 2.06676e+09 2.06701e+09 2.06766e+09 2.06824e+09 0
001 126 1 1 2.07273e+09 2.073e+09 2.07396e+09 2.07421e+09 0
000 127 1 1 2.08136e+09 2.08162e+09 2.08259e+09 2.08278e+09 1
000 128 1 1 2.08987e+09 2.09013e+09 2.09109e+09 2.09255e+09 1
000 129 1 1 2.10248e+09 2.10274e+09 2.1037e+09 2.10411e+09 1
000 130 2 1 2.11165e+09 2.11192e+09 2.11264e+09 2.12962e+09 0
001 131 1 1 2.14392e+09 2.14419e+09 2.14511e+09 2.14539e+09 0
000 132 1 1 2.15281e+09 2.15307e+09 2.154e+09 2.15453e+09 1
000 133 1 1 2.17202e+09 2.17229e+09 2.17322e+09 2.17361e+09 1
000 134 1 0 2.1842e+09 2.18447e+09 2.1854e+09 2.20716e+09 1
001 135 2 0 2.21134e+09 2.21159e+09 2.21258e+09 2.21267e+09 0
000 136 2 1 2.22648e+09 2.22675e+09 2.22773e+09 2.26351e+09 1
001 137 1 0 2.26997e+09 2.27024e+09 2.27115e+09 2.27145e+09 0
001 138 1 0 2.27552e+09 2.27577e+09 2.27697e+09 2.27738e+09 0
001 139 1 1 2.28426e+09 2.28452e+09 2.28502e+09 2.28771e+09 0
000 140 1 1 2.29517e+09 2.29543e+09 2.29593e+09 2.29612e+09 1
000 141 1 1 2.30326e+09 2.30352e+09 2.30402e+09 2.31434e+09 1
000 142 1 1 2.3244e+09 2.32467e+09 2.32517e+09 2.32536e+09 1
000 143 1 1 2.33508e+09 2.33535e+09 2.3363e+09 2.33662e+09 0
000 144 1 0 2.34535e+09 2.34562e+09 2.34686e+09 2.35189e+09 0
001 145 2 0 2.35432e+09 2.35458e+09 2.35546e+09 2.35571e+09 0
000 146 2 1 2.36345e+09 2.36371e+09 2.36459e+09 2.38111e+09 1
001 147 1 1 2.38439e+09 2.38465e+09 2.38528e+09 2.38627e+09 0
000 148 1 1 2.39649e+09 2.39674e+09 2.39737e+09 2.39775e+09 1
000 149 1 1 2.40662e+09 2.40689e+09 2.40751e+09 2.40776e+09 1
000 150 1 1 2.41654e+09 2.41681e+09 2.41743e+09 2.41767e+09 1
000 151 2 1 2.43415e+09 2.43441e+09 2.43565e+09 2.43617e+09 0
001 152 1 0 2.44702e+09 2.44729e+09 2.44782e+09 2.44814e+09 0
001 153 2 0 2.45674e+09 2.45701e+09 2.45826e+09 2.45835e+09 0
000 154 2 1 2.46648e+09 2.46673e+09 2.46798e+09 2.4682e+09 1
001 155 2 1 2.4723e+09 2.47256e+09 2.47378e+09 2.47384e+09 0
001 156 2 1 2.48391e+09 2.48419e+09 2.48547e+09 2.50654e+09 0
001 157 1 0 2.51494e+09 2.51521e+09 2.51621e+09 2.51667e+09 0
001 158 1 1 2.53823e+09 2.53849e+09 2.53963e+09 2.53977e+09 0
000 159 1 1 2.54854e+09 2.54882e+09 2.54995e+09 2.55156e+09 1
000 160 1 1 2.55948e+09 2.55973e+09 2.56086e+09 2.56644e+09 1
000 161 1 0 2.58658e+09 2.58683e+09 2.58796e+09 2.59224e+09 1
001 162 2 0 2.59773e+09 2.598e+09 2.59859e+09 2.59922e+09 0
000 163 2 1 2.62229e+09 2.62255e+09 2.62315e+09 2.62365e+09 1
001 164 1 1 2.64092e+09 2.64119e+09 2.64246e+09 2.64292e+09 0
000 165 1 1 2.66442e+09 2.66468e+09 2.66595e+09 2.66613e+09 1
000 166 1 1 2.67348e+09 2.67373e+09 2.67501e+09 2.67641e+09 1
000 167 1 0 2.68539e+09 2.68565e+09 2.68692e+09 2.68719e+09 1
001 168 1 1 2.69107e+09 2.69133e+09 2.6923e+09 2.69255e+09 0
000 169 1 1 2.70145e+09 2.70171e+09 2.70268e+09 2.70279e+09 1
000 170 1 1 2.70989e+09 2.71015e+09 2.71112e+09 2.71176e+09 1
000 171 1 0 2.71983e+09 2.72009e+09 2.72106e+09 2.72147e+09 1
001 172 2 1 2.73243e+09 2.73269e+09 2.73358e+09 2.73385e+09 0
001 173 1 1 2.73817e+09 2.73843e+09 2.73934e+09 2.73968e+09 0
000 174 1 1 2.74813e+09 2.74839e+09 2.74929e+09 2.74953e+09 1
000 175 1 0 2.75692e+09 2.75718e+09 2.75809e+09 2.75902e+09 1
001 176 2 0 2.76236e+09 2.76262e+09 2.76316e+09 2.76362e+09 0
000 177 2 1 2.77072e+09 2.77097e+09 2.77151e+09 2.77218e+09 1
001 178 1 1 2.78432e+09 2.78459e+09 2.78575e+09 2.7923e+09 0
000 179 1 1 2.79962e+09 2.79988e+09 2.80105e+09 2.80147e+09 1
000 180 1 1 2.81458e+09 2.81484e+09 2.81601e+09 2.81624e+09 1
000 181 1 0 2.82891e+09 2.82918e+09 2.83034e+09 2.83068e+09 1
001 182 2 0 2.84381e+09 2.84407e+09 2.84521e+09 2.84552e+09 0
000 183 2 0 2.85751e+09 2.85778e+09 2.85892e+09 2.85896e+09 1
000 184 2 1 2.86605e+09 2.86631e+09 2.86745e+09 2.86784e+09 1
001 185 1 1 2.87164e+09 2.87191e+09 2.87275e+09 2.87293e+09 0
000 186 1 1 2.88806e+09 2.88832e+09 2.88916e+09 2.88954e+09 1
000 187 1 1 2.89708e+09 2.89733e+09 2.89817e+09 2.89871e+09 1
000 188 1 1 2.90706e+09 2.90733e+09 2.90817e+09 2.91325e+09 1
000 189 2 1 2.92613e+09 2.92639e+09 2.92729e+09 2.93235e+09 0
001 190 2 1 2.9364e+09 2.93666e+09 2.93751e+09 2.93812e+09 0
001 191 2 0 2.94192e+09 2.94217e+09 2.94304e+09 2.94361e+09 0
000 192 2 0 2.95113e+09 2.9514e+09 2.95227e+09 2.95277e+09 1
000 193 2 1 2.97355e+09 2.97381e+09 2.97468e+09 2.9923e+09 1
001 194 2 0 3.00186e+09 3.00213e+09 3.00284e+09 3.00323e+09 0
000 195 2 1 3.01146e+09 3.01172e+09 3.01243e+09 3.01291e+09 1
001 196 1 0 3.01776e+09 3.01802e+09 3.01883e+09 3.01916e+09 0
001 197 1 0 3.03159e+09 3.03185e+09 3.03321e+09 3.03357e+09 0
001 198 1 1 3.04242e+09 3.04268e+09 3.044e+09 3.04432e+09 0
000 199 1 1 3.05155e+09 3.0518e+09 3.05312e+09 3.0592e+09 1
000 200 1 0 3.0664e+09 3.06667e+09 3.06798e+09 3.06839e+09 1
001 201 2 1 3.07429e+09 3.07455e+09 3.07527e+09 3.07566e+09 0
001 202 1 0 3.08001e+09 3.08027e+09 3.08135e+09 3.08164e+09 0
001 203 1 1 3.08572e+09 3.08597e+09 3.08664e+09 3.08708e+09 0
000 204 1 1 3.10133e+09 3.1016e+09 3.10226e+09 3.10246e+09 1
000 205 1 1 3.1097e+09 3.10996e+09 3.11062e+09 3.11102e+09 1
000 206 1 1 3.11837e+09 3.11863e+09 3.1193e+09 3.1305e+09 1
000 207 1 1 3.13807e+09 3.13834e+09 3.13966e+09 3.14013e+09 0
000 208 2 1 3.14724e+09 3.1475e+09 3.14844e+09 3.14901e+09 0
001 209 1 1 3.15647e+09 3.15674e+09 3.15756e+09 3.15772e+09 0
000 210 1 1 3.1702e+09 3.17046e+09 3.17128e+09 3.1715e+09 1
000 211 1 1 3.18141e+09 3.18166e+09 3.18248e+09 3.18267e+09 1
000 212 1 1 3.19016e+09 3.19042e+09 3.19124e+09 3.19185e+09 1
000 213 1 1 3.20699e+09 3.20725e+09 3.20839e+09 3.20873e+09 0
000 214 2 1 3.22864e+09 3.2289e+09 3.23004e+09 3.23067e+09 0
001 215 2 1 3.23528e+09 3.23554e+09 3.23683e+09 3.23723e+09 0
001 216 1 1 3.24149e+09 3.24175e+09 3.24278e+09 3.24337e+09 0
000 217 1 1 3.25493e+09 3.25519e+09 3.25621e+09 3.2563e+09 1
000 218 1 1 3.26632e+09 3.26659e+09 3.26761e+09 3.26787e+09 1
000 219 1 1 3.27517e+09 3.27545e+09 3.27647e+09 3.27662e+09 1
000 220 2 0 3.28957e+09 3.28984e+09 3.29057e+09 3.29109e+09 0
000 221 1 1 3.30365e+09 3.3039e+09 3.30532e+09 3.30574e+09 0
000 222 2 1 3.31318e+09 3.31343e+09 3.31454e+09 3.31515e+09 0
001 223 1 0 3.31899e+09 3.31925e+09 3.32046e+09 3.32167e+09 0
001 224 2 1 3.3246e+09 3.32487e+09 3.32571e+09 3.32588e+09 0
001 225 1 1 3.3302e+09 3.33046e+09 3.33112e+09 3.33129e+09 0
000 226 1 1 3.34171e+09 3.34196e+09 3.34262e+09 3.34305e+09 1
000 227 1 1 3.35046e+09 3.35073e+09 3.35138e+09 3.35167e+09 1
000 228 1 0 3.36654e+09 3.3668e+09 3.36746e+09 3.36765e+09 1
001 229 2 0 3.38289e+09 3.38315e+09 3.38385e+09 3.38431e+09 0
000 230 2 0 3.39258e+09 3.39284e+09 3.39354e+09 3.39389e+09 1
000 231 2 1 3.40819e+09 3.40844e+09 3.40915e+09 3.40952e+09 1
001 232 1 1 3.41415e+09 3.41442e+09 3.41507e+09 3.41708e+09 0
000 233 1 1 3.42422e+09 3.42448e+09 3.42513e+09 3.42562e+09 1
000 234 1 1 3.44569e+09 3.44596e+09 3.44661e+09 3.44703e+09 1
000 235 1 1 3.45957e+09 3.45982e+09 3.46047e+09 3.46255e+09 1
000 236 2 0 3.47063e+09 3.47088e+09 3.47138e+09 3.50604e+09 0
000 237 1 1 3.51709e+09 3.51734e+09 3.51829e+09 3.52756e+09 0
000 238 1 1 3.53465e+09 3.53492e+09 3.53612e+09 3.53631e+09 0
000 239 1 1 3.54767e+09 3.54793e+09 3.54935e+09 3.55363e+09 0
000 240 2 1 3.56098e+09 3.56123e+09 3.56272e+09 3.56845e+09 0
001 241 2 0 3.57178e+09 3.57205e+09 3.57297e+09 3.57327e+09 0
000 242 2 0 3.58824e+09 3.5885e+09 3.58943e+09 3.58948e+09 1
000 243 2 1 3.59924e+09 3.59951e+09 3.60043e+09 3.60928e+09 1
001 244 1 1 3.61162e+09 3.61187e+09 3.61323e+09 3.63003e+09 0
000 245 1 1 3.63755e+09 3.6378e+09 3.63916e+09 3.64331e+09 1
000 246 1 1 3.65118e+09 3.65145e+09 3.6528e+09 3.6531e+09 1
000 247 1 1 3.66244e+09 3.66271e+09 3.66407e+09 3.66443e+09 1
000 248 2 1 3.67347e+09 3.67374e+09 3.6744e+09 3.68106e+09 0
001 249 2 1 3.69164e+09 3.69191e+09 3.69283e+09 3.69361e+09 0
001 250 1 1 3.69776e+09 3.69802e+09 3.69911e+09 3.69996e+09 0
000 251 1 0 3.70823e+09 3.7085e+09 3.70959e+09 3.71e+09 1
001 252 2 1 3.71371e+09 3.71398e+09 3.7153e+09 3.71563e+09 0
001 253 1 1 3.72326e+09 3.72353e+09 3.72502e+09 3.72528e+09 0
000 254 1 1 3.73327e+09 3.73353e+09 3.73502e+09 3.73614e+09 1
000 255 1 0 3.74495e+09 3.74523e+09 3.74671e+09 3.74715e+09 1
001 256 1 1 3.75119e+09 3.75144e+09 3.75224e+09 3.75306e+09 0
000 257 1 1 3.76032e+09 3.76058e+09 3.76138e+09 3.7627e+09 1
000 258 1 0 3.76998e+09 3.77024e+09 3.77104e+09 3.77134e+09 1
001 259 1 1 3.77534e+09 3.77559e+09 3.77668e+09 3.77707e+09 0
000 260 1 1 3.78414e+09 3.78439e+09 3.78547e+09 3.80494e+09 1
000 261 1 1 3.81662e+09 3.81688e+09 3.81797e+09 3.81825e+09 1
000 262 1 1 3.83004e+09 3.83029e+09 3.83137e+09 3.83147e+09 1
000 263 1 1 3.83856e+09 3.83881e+09 3.84002e+09 3.84075e+09 0
000 264 1 0 3.84869e+09 3.84895e+09 3.84963e+09 3.85162e+09 0
001 265 1 1 3.85452e+09 3.85478e+09 3.85569e+09 3.85617e+09 0
000 266 1 1 3.87059e+09 3.87084e+09 3.87175e+09 3.87216e+09 1
000 267 1 1 3.8795e+09 3.87977e+09 3.88068e+09 3.88111e+09 1
000 268 1 1 3.88843e+09 3.88868e+09 3.88959e+09 3.90956e+09 1
000 269 2 1 3.91687e+09 3.91713e+09 3.91859e+09 3.91904e+09 0
001 270 2 0 3.92949e+09 3.92975e+09 3.93077e+09 3.931e+09 0
000 271 2 0 3.94065e+09 3.94092e+09 3.94193e+09 3.94203e+09 1
000 272 2 1 3.95068e+09 3.95094e+09 3.95196e+09 3.95313e+09 1
001 273 2 0 3.9567e+09 3.95697e+09 3.95795e+09 3.95836e+09 0
000 274 2 1 3.96567e+09 3.96592e+09 3.9669e+09 3.96721e+09 1
001 275 2 1 3.97161e+09 3.97187e+09 3.9729e+09 3.9734e+09 0
001 276 2 1 3.97708e+09 3.97734e+09 3.97831e+09 3.97852e+09 0
001 277 1 1 3.98264e+09 3.9829e+09 3.98439e+09 3.98482e+09 0
000 278 1 0 3.99207e+09 3.99232e+09 3.99381e+09 3.99693e+09 1
001 279 1 1 4.00198e+09 4.00224e+09 4.00343e+09 4.00412e+09 0
000 280 1 0 4.01132e+09 4.01157e+09 4.01276e+09 4.05426e+09 1
001 281 1 1 4.05706e+09 4.05733e+09 4.05853e+09 4.05899e+09 0
000 282 1 0 4.0722e+09 4.07246e+09 4.07365e+09 4.07399e+09 1
001 283 2 1 4.07916e+09 4.07942e+09 4.08014e+09 4.0807e+09 0
001 284 2 1 4.08486e+09 4.08513e+09 4.08635e+09 4.08717e+09 0
001 285 2 1 4.09024e+09 4.09051e+09 4.09108e+09 4.11077e+09 0
001 286 1 1 4.11348e+09 4.11373e+09 4.11496e+09 4.11529e+09 0
000 287 1 1 4.12825e+09 4.12852e+09 4.12974e+09 4.12977e+09 1
000 288 1 1 4.13688e+09 4.13715e+09 4.13837e+09 4.1398e+09 1
000 289 1 1 4.14795e+09 4.1482e+09 4.14943e+09 4.14984e+09 1
000 290 2 1 4.15767e+09 4.15792e+09 4.15883e+09 4.15917e+09 0
001 291 2 0 4.16324e+09 4.16351e+09 4.16467e+09 4.16547e+09 0
000 292 2 1 4.17612e+09 4.17638e+09 4.17754e+09 4.17792e+09 1
001 293 2 1 4.19011e+09 4.19037e+09 4.19162e+09 4.19193e+09 0
001 294 2 1 4.2004e+09 4.20065e+09 4.2014e+09 4.20212e+09 0
001 295 1 1 4.20623e+09 4.20649e+09 4.20719e+09 4.2073e+09 0
000 296 1 1 4.2166e+09 4.21687e+09 4.21757e+09 4.21848e+09 1
000 297 1 1 4.2258e+09 4.22607e+09 4.22677e+09 4.22709e+09 1
000 298 1 0 4.24222e+09 4.24248e+09 4.24318e+09 4.24355e+09 1
001 299 2 1 4.25666e+09 4.25693e+09 4.25783e+09 4.25808e+09 0
001 300 2 0 4.26223e+09 4.2625e+09 4.26391e+09 4.26401e+09 0
000 301 2 1 4.27112e+09 4.27138e+09 4.27279e+09 4.27331e+09 1
001 302 1 1 4.27672e+09 4.27697e+09 4.27805e+09 4.2783e+09 0
000 303 1 1 4.29026e+09 4.29052e+09 4.29159e+09 4.29181e+09 1
000 304 1 1 8.14184e+06 8.399e+06 9.47501e+06 9.70988e+06 1
000 305 1 1 2.33953e+07 2.36522e+07 2.47282e+07 2.50015e+07 1
000 306 2 1 3.60684e+07 3.63266e+07 3.68333e+07 3.6864e+07 0
001 307 2 1 4.17956e+07 4.20527e+07 4.29641e+07 4.70022e+07 0
001 308 1 0 5.08969e+07 5.11643e+07 5.23562e+07 5.25834e+07 0
001 309 2 1 5.6276e+07 5.65373e+07 5.80284e+07 5.82756e+07 0
001 310 2 0 6.20503e+07 6.23015e+07 6.35996e+07 6.36836e+07 0
000 311 2 0 7.08854e+07 7.11374e+07 7.24354e+07 7.26388e+07 1
000 312 2 0 7.9828e+07 8.00896e+07 8.13876e+07 8.22098e+07 1
000 313 2 1 8.93051e+07 8.95534e+07 9.08514e+07 9.27616e+07 1
001 314 2 1 9.61976e+07 9.65079e+07 9.7211e+07 9.75728e+07 0
001 315 2 1 1.09137e+08 1.09396e+08 1.10507e+08 1.10816e+08 0
001 316 1 1 1.14755e+08 1.15011e+08 1.15545e+08 1.16323e+08 0
000 317 1 1 1.23738e+08 1.23995e+08 1.24528e+08 1.25137e+08 1
000 318 1 1 1.32399e+08 1.32663e+08 1.33197e+08 1.33367e+08 1
000 319 1 1 1.44588e+08 1.44845e+08 1.45378e+08 1.4578e+08 1
000 320 1 0 1.53385e+08 1.5365e+08 1.54738e+08 1.54955e+08 0
001 321 1 0 1.6577e+08 1.66044e+08 1.67124e+08 1.67441e+08 0
001 322 2 0 1.71891e+08 1.72163e+08 1.73285e+08 1.73542e+08 0
000 323 2 0 1.80718e+08 1.80972e+08 1.82093e+08 1.82478e+08 1
000 324 2 0 1.91954e+08 1.9221e+08 1.93332e+08 1.93776e+08 1
000 325 2 0 2.04224e+08 2.04477e+08 2.05599e+08 2.06039e+08 1
000 326 2 1 2.17514e+08 2.17784e+08 2.18496e+08 2.19149e+08 0
001 327 1 1 2.24173e+08 2.24433e+08 2.25302e+08 2.25787e+08 0
000 328 1 1 2.33034e+08 2.33294e+08 2.34163e+08 2.34694e+08 1
000 329 1 1 2.41774e+08 2.42036e+08 2.42905e+08 2.43148e+08 1
000 330 1 1 2.50288e+08 2.50551e+08 2.5142e+08 2.51609e+08 1
000 331 1 1 2.62449e+08 2.62717e+08 2.64032e+08 2.64298e+08 0
000 332 1 1 2.78687e+08 2.78947e+08 2.80011e+08 2.80167e+08 0
000 333 1 1 2.87632e+08 2.87898e+08 2.88771e+08 3.08306e+08 0
000 334 2 1 3.16422e+08 3.16679e+08 3.17855e+08 3.43317e+08 0
001 335 2 0 3.46011e+08 3.46268e+08 3.47182e+08 3.49112e+08 0
000 336 2 0 3.57659e+08 3.57922e+08 3.58837e+08 3.59241e+08 1
000 337 2 1 3.66537e+08 3.66796e+08 3.67711e+08 3.68107e+08 1
001 338 1 0 3.72339e+08 3.72591e+08 3.73756e+08 3.74049e+08 0
001 339 1 1 3.78762e+08 3.79021e+08 3.79582e+08 3.79676e+08 0
000 340 1 1 3.93921e+08 3.94189e+08 3.9475e+08 3.94966e+08 1
000 341 1 1 4.025e+08 4.02766e+08 4.03327e+08 4.03767e+08 1
000 342 1 1 4.14446e+08 4.14716e+08 4.15277e+08 4.15455e+08 1
000 343 1 1 4.23177e+08 4.23437e+08 4.247e+08 4.26139e+08 0
000 344 2 1 4.33268e+08 4.33521e+08 4.34333e+08 4.34632e+08 0
001 345 2 1 4.40377e+08 4.40635e+08 4.41202e+08 4.41261e+08 0
001 346 1 1 4.45979e+08 4.46236e+08 4.4771e+08 4.47976e+08 0
000 347 1 0 4.55039e+08 4.55291e+08 4.56765e+08 4.5712e+08 1
001 348 2 1 4.61223e+08 4.61478e+08 4.6283e+08 4.63274e+08 0
001 349 2 1 4.66582e+08 4.66849e+08 4.67897e+08 4.69481e+08 0
001 350 1 1 4.72906e+08 4.73161e+08 4.74494e+08 4.74688e+08 0
000 351 1 1 4.82596e+08 4.82849e+08 4.84182e+08 4.84271e+08 1
000 352 1 1 4.91438e+08 4.91694e+08 4.93027e+08 4.93416e+08 1
000 353 1 0 5.01404e+08 5.01659e+08 5.02993e+08 5.03138e+08 1
001 354 1 0 5.07653e+08 5.07911e+08 5.08437e+08 5.08532e+08 0
001 355 2 1 5.13369e+08 5.13637e+08 5.14185e+08 5.14755e+08 0
001 356 2 1 5.23107e+08 5.23367e+08 5.24522e+08 5.26628e+08 0
001 357 2 1 5.2933e+08 5.29589e+08 5.31067e+08 5.67444e+08 0
001 358 1 1 5.74336e+08 5.74606e+08 5.75738e+08 5.76229e+08 0
000 359 1 0 5.8351e+08 5.83778e+08 5.84909e+08 5.85177e+08 1
001 360 2 1 5.97298e+08 5.97552e+08 5.98874e+08 5.99139e+08 0
001 361 2 0 6.06843e+08 6.07105e+08 6.07908e+08 6.07959e+08 0
000 362 2 1 6.1511e+08 6.15385e+08 6.16188e+08 6.16473e+08 1
001 363 1 1 6.20961e+08 6.21227e+08 6.22625e+08 6.22923e+08 0
000 364 1 0 6.3429e+08 6.3456e+08 6.35958e+08 6.36554e+08 1
001 365 2 0 6.40048e+08 6.40314e+08 6.4084e+08 6.40957e+08 0
000 366 2 1 6.57473e+08 6.57737e+08 6.58263e+08 6.5854e+08 1
001 367 2 1 6.63265e+08 6.63538e+08 6.64842e+08 6.64878e+08 0
001 368 1 0 6.78288e+08 6.78553e+08 6.79478e+08 6.79834e+08 0
001 369 2 0 6.96095e+08 6.96355e+08 6.96992e+08 6.97604e+08 0
000 370 2 0 7.04963e+08 7.05219e+08 7.05856e+08 7.06588e+08 1
000 371 2 1 7.14112e+08 7.1437e+08 7.15007e+08 7.15338e+08 1
001 372 1 1 7.25883e+08 7.26141e+08 7.27359e+08 7.29107e+08 0
000 373 1 1 7.37307e+08 7.37558e+08 7.38776e+08 7.38992e+08 1
000 374 1 0 7.46432e+08 7.46689e+08 7.47907e+08 7.47975e+08 1
001 375 1 1 7.5193e+08 7.52194e+08 7.53366e+08 7.55142e+08 0
000 376 1 1 7.65997e+08 7.66247e+08 7.6742e+08 7.67553e+08 1
000 377 1 1 7.75017e+08 7.75281e+08 7.76453e+08 7.76706e+08 1
000 378 1 1 7.85567e+08 7.85819e+08 7.86991e+08 7.88152e+08 1
000 379 1 0 7.9556e+08 7.95816e+08 7.96422e+08 7.9675e+08 0
001 380 2 0 8.05758e+08 8.06021e+08 8.07399e+08 8.07623e+08 0
000 381 2 1 8.15143e+08 8.15407e+08 8.16784e+08 8.17053e+08 1
001 382 1 1 8.21609e+08 8.2187e+08 8.23168e+08 8.23723e+08 0
000 383 1 1 8.31169e+08 8.31428e+08 8.32725e+08 8.32875e+08 1
000 384 1 0 8.44134e+08 8.444e+08 8.45698e+08 8.45935e+08 1
001 385 2 1 8.49974e+08 8.50235e+08 8.51354e+08 8.51668e+08 0
001 386 1 1 8.55584e+08 8.5585e+08 8.56979e+08 8.57158e+08 0
000 387 1 1 8.64689e+08 8.64947e+08 8.66076e+08 8.66607e+08 1
000 388 1 1 8.73862e+08 8.74129e+08 8.75258e+08 8.8012e+08 1
000 389 1 1 8.87576e+08 8.87832e+08 8.88961e+08 8.89391e+08 1
000 390 2 0 8.97015e+08 8.97272e+08 8.98134e+08 8.9842e+08 0
000 391 1 1 9.05534e+08 9.058e+08 9.0728e+08 9.08085e+08 0
000 392 2 1 9.16697e+08 9.16961e+08 9.18457e+08 9.39098e+08 0
001 393 2 0 9.52102e+08 9.52354e+08 9.53208e+08 9.53603e+08 0
000 394 2 0 9.6083e+08 9.61087e+08 9.61941e+08 9.62934e+08 1
000 395 2 0 9.70427e+08 9.70686e+08 9.7154e+08 9.71642e+08 1
000 396 2 1 9.83475e+08 9.83738e+08 9.84592e+08 9.91756e+08 1
001 397 1 1 9.98573e+08 9.98835e+08 9.99355e+08 1.00003e+09 0
000 398 1 1 1.00878e+09 1.00904e+09 1.00956e+09 1.00985e+09 1
000 399 1 1 1.01723e+09 1.0175e+09 1.01802e+09 1.01832e+09 1
000 400 1 1 1.02544e+09 1.02569e+09 1.02621e+09 1.02696e+09 1
000 401 1 1 1.03511e+09 1.03537e+09 1.03601e+09 1.06305e+09 0
000 402 1 1 1.07304e+09 1.0733e+09 1.07467e+09 1.07602e+09 0
000 403 2 1 1.08335e+09 1.08361e+09 1.08436e+09 1.11389e+09 0
001 404 2 1 1.11651e+09 1.11677e+09 1.11793e+09 1.13979e+09 0
001 405 2 0 1.14245e+09 1.14271e+09 1.14394e+09 1.1597e+09 0
000 406 2 1 1.16811e+09 1.16837e+09 1.1696e+09 1.20665e+09 1
001 407 1 1 1.20948e+09 1.20973e+09 1.2107e+09 1.22165e+09 0
000 408 1 1 1.22973e+09 1.22998e+09 1.23096e+09 1.27905e+09 1
000 409 1 1 1.28614e+09 1.28639e+09 1.28737e+09 1.28826e+09 1
000 410 1 1 1.29552e+09 1.29579e+09 1.29676e+09 1.30229e+09 1
000 411 1 1 1.30952e+09 1.30977e+09 1.31052e+09 1.32821e+09 0
000 412 2 0 1.33761e+09 1.33787e+09 1.3389e+09 1.34384e+09 0
000 413 1 1 1.35115e+09 1.3514e+09 1.3525e+09 1.36575e+09 0
000 414 1 1 1.37316e+09 1.37342e+09 1.37468e+09 1.37494e+09 0
000 415 1 1 1.38226e+09 1.38252e+09 1.38311e+09 1.47487e+09 0
000 416 1 1 1.48226e+09 1.48252e+09 1.48369e+09 1.48798e+09 0
000 417 1 1 1.49529e+09 1.49556e+09 1.49686e+09 1.4971e+09 0
000 418 1 1 1.50431e+09 1.50456e+09 1.50602e+09 1.51854e+09 0
000 419 2 0 1.52591e+09 1.52617e+09 1.52718e+09 1.53861e+09 0
000 420 2 1 1.54583e+09 1.54609e+09 1.5473e+09 1.55378e+09 0
001 421 2 1 1.55638e+09 1.55663e+09 1.55717e+09 1.55782e+09 0
001 422 1 1 1.56216e+09 1.56243e+09 1.56369e+09 1.56389e+09 0
000 423 1 1 1.57113e+09 1.57139e+09 1.57265e+09 1.6624e+09 1
000 424 1 1 1.6706e+09 1.67087e+09 1.67213e+09 1.68076e+09 1
000 425 1 1 1.68823e+09 1.68849e+09 1.68975e+09 1.6912e+09 1
000 426 2 1 1.69833e+09 1.69859e+09 1.69946e+09 1.71571e+09 0
001 427 2 1 1.71902e+09 1.71928e+09 1.72048e+09 1.72081e+09 0
001 428 1 0 1.72466e+09 1.72492e+09 1.72564e+09 1.72863e+09 0
001 429 2 1 1.73143e+09 1.73169e+09 1.7331e+09 1.84873e+09 0
001 430 1 1 1.85108e+09 1.85135e+09 1.85262e+09 1.8567e+09 0
000 431 1 0 1.86642e+09 1.86668e+09 1.86796e+09 1.86838e+09 1
001 432 2 1 1.87238e+09 1.87264e+09 1.87317e+09 1.8752e+09 0
001 433 1 1 1.878e+09 1.87826e+09 1.87892e+09 1.88004e+09 0
000 434 1 1 1.88737e+09 1.88763e+09 1.88828e+09 1.8883e+09 1
000 435 1 1 1.89983e+09 1.9001e+09 1.90075e+09 1.90102e+09 1
000 436 1 1 1.90836e+09 1.90861e+09 1.90927e+09 1.91106e+09 1
000 437 2 1 1.91829e+09 1.91856e+09 1.91919e+09 1.92322e+09 0
001 438 1 1 1.92599e+09 1.92625e+09 1.92765e+09 1.96967e+09 0
000 439 1 1 1.97704e+09 1.9773e+09 1.97869e+09 1.98609e+09 1
000 440 1 1 1.99317e+09 1.99342e+09 1.99482e+09 2.03117e+09 1
000 441 1 1 2.03865e+09 2.0389e+09 2.0403e+09 2.09527e+09 1
000 442 1 1 2.10264e+09 2.1029e+09 2.10395e+09 2.10414e+09 0
000 443 2 1 2.11544e+09 2.1157e+09 2.11673e+09 2.11791e+09 0
001 444 1 1 2.12092e+09 2.12118e+09 2.12231e+09 2.1624e+09 0
000 445 1 1 2.16944e+09 2.1697e+09 2.17083e+09 2.17123e+09 1
000 446 1 1 2.17858e+09 2.17884e+09 2.17997e+09 2.18033e+09 1
000 447 1 1 2.18771e+09 2.18798e+09 2.18911e+09 2.20243e+09 1
000 448 1 0 2.21072e+09 2.21098e+09 2.21176e+09 2.22814e+09 0
001 449 2 1 2.23075e+09 2.23101e+09 2.23216e+09 2.23289e+09 0
001 450 2 0 2.23699e+09 2.23725e+09 2.23848e+09 2.42918e+09 0
000 451 2 1 2.43642e+09 2.43668e+09 2.43791e+09 2.43888e+09 1
001 452 1 1 2.44195e+09 2.4422e+09 2.44322e+09 2.44427e+09 0
000 453 1 1 2.45493e+09 2.45519e+09 2.45621e+09 2.47103e+09 1
000 454 1 1 2.47824e+09 2.4785e+09 2.47952e+09 2.48123e+09 1
000 455 1 0 2.48834e+09 2.4886e+09 2.48962e+09 2.49479e+09 1
001 456 1 1 2.49721e+09 2.49747e+09 2.49873e+09 2.5757e+09 0
000 457 1 1 2.58321e+09 2.58346e+09 2.58472e+09 2.59772e+09 1
000 458 1 1 2.60501e+09 2.60528e+09 2.60653e+09 2.64821e+09 1
000 459 1 1 2.65898e+09 2.65925e+09 2.66051e+09 2.67737e+09 1
000 460 2 0 2.68891e+09 2.68917e+09 2.68973e+09 2.69021e+09 0
000 461 2 1 2.69761e+09 2.69788e+09 2.69887e+09 2.70039e+09 0
001 462 1 1 2.70312e+09 2.70338e+09 2.70403e+09 2.70408e+09 0
000 463 1 1 2.71154e+09 2.71181e+09 2.71246e+09 2.71283e+09 1
000 464 1 1 2.72052e+09 2.72079e+09 2.72145e+09 2.72166e+09 1
000 465 1 1 2.72989e+09 2.73016e+09 2.73081e+09 2.75444e+09 1
000 466 2 1 2.76164e+09 2.7619e+09 2.76246e+