trial trialType response stillTime stimOnset stimOffset respTime correctionTrial correct
001 1 0 3.15291e+06 3.47332e+06 4.81522e+06 1.53222e+07 0
001 002 1 0 1.78924e+07 1.81725e+07 1.87765e+07 3.42108e+08 0
001 003 2 1 3.44963e+08 3.4523e+08 3.46102e+08 3.47054e+08 0
001 004 1 0 3.50509e+08 3.50772e+08 3.51749e+08 3.5201e+08 0
001 005 1 0 3.7288e+08 3.73136e+08 3.73664e+08 3.7542e+08 0
001 006 2 1 3.91967e+08 3.92244e+08 3.9345e+08 3.94056e+08 0
001 007 2 1 3.98506e+08 3.98768e+08 3.99512e+08 4.00351e+08 0
001 008 1 1 4.09059e+08 4.09317e+08 4.0984e+08 4.10036e+08 0
000 009 1 1 4.23717e+08 4.23979e+08 4.24503e+08 4.24689e+08 1
000 010 1 1 4.32989e+08 4.33243e+08 4.33767e+08 4.34976e+08 1
000 011 1 1 4.4377e+08 4.4405e+08 4.44573e+08 5.04345e+08 1
000 012 1 1 5.12846e+08 5.13107e+08 5.14599e+08 5.16279e+08 0
000 013 2 1 5.23864e+08 5.24135e+08 5.24965e+08 5.39393e+08 0
001 014 1 1 5.42155e+08 5.4242e+08 5.43904e+08 5.52893e+08 0
000 015 1 1 5.60431e+08 5.60702e+08 5.62186e+08 5.74593e+08 1
000 016 1 1 5.81656e+08 5.8193e+08 5.83414e+08 5.88841e+08 1
000 017 1 1 5.96218e+08 5.96484e+08 5.97968e+08 5.9797e+08 1
000 018 2 1 6.05292e+08 6.05558e+08 6.06907e+08 6.19594e+08 0
001 019 2 1 6.23936e+08 6.24202e+08 6.2547e+08 6.28544e+08 0
001 020 1 1 6.30959e+08 6.3122e+08 6.32496e+08 6.34861e+08 0
000 021 1 1 6.52424e+08 6.52699e+08 6.53975e+08 6.56965e+08 1
000 022 1 1 6.70819e+08 6.71083e+08 6.72359e+08 6.78298e+08 1
000 023 1 1 6.8694e+08 6.87211e+08 6.88487e+08 6.90735e+08 1
000 024 1 1 7.06716e+08 7.06978e+08 7.08107e+08 7.14766e+08 0
000 025 1 1 7.23167e+08 7.23439e+08 7.24361e+08 7.26861e+08 0
000 026 2 1 7.34382e+08 7.34644e+08 7.3554e+08 7.42709e+08 0
001 027 2 1 7.45942e+08 7.46204e+08 7.46739e+08 7.49922e+08 0
001 028 1 1 7.54761e+08 7.55032e+08 7.55531e+08 7.72931e+08 0
000 029 1 0 7.8029e+08 7.80564e+08 7.81064e+08 7.83748e+08 1
001 030 2 1 7.86789e+08 7.87047e+08 7.88155e+08 7.99872e+08 0
001 031 1 1 8.03001e+08 8.03271e+08 8.03862e+08 8.37152e+08 0
000 032 1 1 8.44526e+08 8.44794e+08 8.45385e+08 8.47181e+08 1
000 033 1 0 8.60677e+08 8.60953e+08 8.61543e+08 8.64032e+08 1
001 034 1 0 8.66664e+08 8.66937e+08 8.68314e+08 8.69754e+08 0
001 035 2 0 8.94888e+08 8.95153e+08 8.96322e+08 9.03346e+08 0
000 036 2 1 9.10528e+08 9.10795e+08 9.11964e+08 9.14065e+08 1
001 037 1 1 9.64123e+08 9.644e+08 9.64908e+08 9.70608e+08 0
000 038 1 1 9.77818e+08 9.7809e+08 9.78597e+08 9.82212e+08 1
000 039 1 1 9.89345e+08 9.89599e+08 9.90106e+08 9.91382e+08 1
000 040 1 1 9.98964e+08 9.99224e+08 9.99731e+08 1.00127e+09 1
000 041 1 1 1.01031e+09 1.01057e+09 1.01198e+09 1.01637e+09 0
000 042 1 1 1.02375e+09 1.02401e+09 1.02531e+09 1.02896e+09 0
000 043 1 1 1.03643e+09 1.03668e+09 1.03746e+09 1.04054e+09 0
000 044 1 1 1.05901e+09 1.05928e+09 1.06062e+09 1.0622e+09 0
000 045 2 1 1.06976e+09 1.07002e+09 1.07056e+09 1.08543e+09 0
001 046 2 1 1.09265e+09 1.09292e+09 1.09365e+09 1.1037e+09 0
001 047 2 0 1.10625e+09 1.10653e+09 1.10743e+09 1.11293e+09 0
000 048 2 1 1.12115e+09 1.12141e+09 1.12232e+09 1.12578e+09 1
001 049 2 1 1.13739e+09 1.13765e+09 1.13882e+09 1.14039e+09 0
001 050 1 1 1.15883e+09 1.15909e+09 1.1603e+09 1.16039e+09 0
000 051 1 1 1.17716e+09 1.17742e+09 1.17863e+09 1.18319e+09 1
000 052 1 1 1.19039e+09 1.19066e+09 1.19187e+09 1.19243e+09 1
000 053 1 1 1.20156e+09 1.20182e+09 1.20303e+09 1.2145e+09 1
000 054 2 1 1.22893e+09 1.22921e+09 1.22981e+09 1.23227e+09 0
001 055 2 1 1.24444e+09 1.2447e+09 1.24567e+09 1.24972e+09 0
001 056 2 1 1.25331e+09 1.25357e+09 1.25408e+09 1.25932e+09 0
001 057 2 0 1.26773e+09 1.26801e+09 1.26932e+09 1.2698e+09 0
000 058 2 1 1.30431e+09 1.30457e+09 1.30588e+09 1.30668e+09 1
001 059 2 0 1.31481e+09 1.31507e+09 1.31651e+09 1.32757e+09 0
000 060 2 1 1.3366e+09 1.33685e+09 1.33829e+09 1.35541e+09 1
001 061 1 1 1.35794e+09 1.35821e+09 1.35909e+09 1.37129e+09 0
000 062 1 1 1.37879e+09 1.37905e+09 1.37993e+09 1.38048e+09 1
000 063 1 1 1.38759e+09 1.38785e+09 1.38872e+09 1.39609e+09 1
000 064 1 1 1.40532e+09 1.40559e+09 1.40646e+09 1.42054e+09 1
000 065 2 1 1.42806e+09 1.42833e+09 1.42952e+09 1.43325e+09 0
001 066 2 1 1.43897e+09 1.43924e+09 1.44022e+09 1.44789e+09 0
001 067 2 1 1.45339e+09 1.45366e+09 1.45455e+09 1.48266e+09 0
001 068 2 1 1.48538e+09 1.48565e+09 1.48637e+09 1.54068e+09 0
001 069 2 1 1.54877e+09 1.54905e+09 1.54994e+09 1.55218e+09 0
001 070 2 0 1.55763e+09 1.55791e+09 1.55906e+09 1.56419e+09 0
000 071 2 0 1.59225e+09 1.5925e+09 1.59365e+09 1.59492e+09 1
000 072 2 0 1.60906e+09 1.60933e+09 1.61048e+09 1.61106e+09 1
000 073 2 0 1.61825e+09 1.61851e+09 1.61966e+09 1.6299e+09 1
000 074 1 0 1.63699e+09 1.63726e+09 1.63834e+09 1.64046e+09 0
001 075 1 0 1.65186e+09 1.65213e+09 1.65354e+09 1.65527e+09 0
001 076 1 0 1.65976e+09 1.66003e+09 1.6615e+09 1.6645e+09 0
001 077 1 1 1.67069e+09 1.67096e+09 1.67229e+09 1.6848e+09 0
000 078 1 1 1.69287e+09 1.69314e+09 1.69447e+09 1.69971e+09 1
000 079 1 1 1.71161e+09 1.71188e+09 1.71321e+09 1.71811e+09 1
000 080 1 1 1.72823e+09 1.7285e+09 1.72983e+09 1.73101e+09 1
000 081 1 1 1.7382e+09 1.73845e+09 1.7397e+09 1.74238e+09 0
000 082 1 1 1.75529e+09 1.75555e+09 1.75641e+09 1.75829e+09 0
000 083 2 1 1.76898e+09 1.76925e+09 1.7701e+09 1.77042e+09 0
001 084 2 1 1.77564e+09 1.7759e+09 1.77676e+09 1.78166e+09 0
001 085 1 1 1.78493e+09 1.78519e+09 1.78583e+09 1.79487e+09 0
000 086 1 1 1.80675e+09 1.80703e+09 1.80767e+09 1.8165e+09 1
000 087 1 1 1.82365e+09 1.82391e+09 1.82455e+09 1.82911e+09 1
000 088 1 1 1.83669e+09 1.83695e+09 1.83759e+09 1.84185e+09 1
000 089 1 1 1.84937e+09 1.84968e+09 1.85095e+09 1.85341e+09 0
000 090 1 1 1.86103e+09 1.86129e+09 1.86258e+09 1.86335e+09 0
000 091 2 0 1.87063e+09 1.8709e+09 1.87176e+09 1.88062e+09 0
000 092 2 0 1.88831e+09 1.88857e+09 1.88931e+09 1.88999e+09 0
000 093 2 1 1.89895e+09 1.89922e+09 1.89974e+09 1.90361e+09 0
001 094 1 1 1.91613e+09 1.91639e+09 1.91746e+09 1.91835e+09 0
000 095 1 1 1.92606e+09 1.92632e+09 1.92738e+09 1.94445e+09 1
000 096 1 1 1.95157e+09 1.95183e+09 1.9529e+09 1.95505e+09 1
000 097 1 1 1.96333e+09 1.96359e+09 1.96466e+09 1.97056e+09 1
000 098 1 1 1.97798e+09 1.97824e+09 1.97958e+09 1.98196e+09 0
000 099 2 1 1.98948e+09 1.98975e+09 1.99102e+09 1.99346e+09 0
001 100 2 1 2.00099e+09 2.00124e+09 2.00192e+09 2.00534e+09 0
001 101 2 1 2.009e+09 2.00927e+09 2.01021e+09 2.01821e+09 0
001 102 1 0 2.042e+09 2.04226e+09 2.04368e+09 2.05117e+09 0
001 103 2 0 2.05677e+09 2.05702e+09 2.05808e+09 2.06244e+09 0
000 104 2 0 2.07139e+09 2.07165e+09 2.07271e+09 2.07733e+09 1
000 105 2 1 2.08802e+09 2.08828e+09 2.08934e+09 2.09077e+09 1
001 106 2 1 2.09643e+09 2.09669e+09 2.09812e+09 2.10908e+09 0
001 107 2 1 2.12774e+09 2.128e+09 2.12943e+09 2.13259e+09 0
001 108 1 1 2.14269e+09 2.14296e+09 2.14427e+09 2.15104e+09 0
000 109 1 0 2.16017e+09 2.16044e+09 2.16174e+09 2.16264e+09 1
001 110 2 1 2.16697e+09 2.16723e+09 2.16833e+09 2.17271e+09 0
001 111 1 0 2.17626e+09 2.17653e+09 2.1777e+09 2.18053e+09 0
001 112 2 0 2.1842e+09 2.18446e+09 2.18558e+09 2.18787e+09 0
000 113 2 1 2.19591e+09 2.19618e+09 2.19729e+09 2.20329e+09 1
001 114 1 1 2.20647e+09 2.20674e+09 2.20776e+09 2.21308e+09 0
000 115 1 1 2.22491e+09 2.22518e+09 2.2262e+09 2.23466e+09 1
000 116 1 1 2.24374e+09 2.24401e+09 2.24503e+09 2.24703e+09 1
000 117 1 1 2.26057e+09 2.26084e+09 2.26186e+09 2.26538e+09 1
000 118 1 1 2.29262e+09 2.2929e+09 2.29342e+09 2.29403e+09 0
000 119 2 0 2.30238e+09 2.30265e+09 2.30326e+09 2.30566e+09 0
000 120 1 1 2.31441e+09 2.31468e+09 2.31597e+09 2.31611e+09 0
000 121 2 0 2.32688e+09 2.32717e+09 2.32807e+09 2.32813e+09 0
000 122 1 1 2.33536e+09 2.33562e+09 2.33653e+09 2.33737e+09 0
000 123 2 0 2.35299e+09 2.35325e+09 2.354e+09 2.35465e+09 0
000 124 1 1 2.37656e+09 2.37682e+09 2.37794e+09 2.38026e+09 0
000 125 1 1 2.39002e+09 2.39028e+09 2.39142e+09 2.39668e+09 0
000 126 1 1 2.40543e+09 2.40568e+09 2.40714e+09 2.40914e+09 0
000 127 1 1 2.41765e+09 2.41791e+09 2.41936e+09 2.42476e+09 0
000 128 2 1 2.43188e+09 2.43213e+09 2.43353e+09 2.43733e+09 0
001 129 2 0 2.44121e+09 2.44147e+09 2.4422e+09 2.44571e+09 0
000 130 2 0 2.45379e+09 2.45406e+09 2.45478e+09 2.45489e+09 1
000 131 2 0 2.4651e+09 2.46535e+09 2.46608e+09 2.46611e+09 1
000 132 2 0 2.47354e+09 2.47381e+09 2.47453e+09 2.48089e+09 1
000 133 2 0 2.48805e+09 2.48831e+09 2.489e+09 2.48944e+09 0
000 134 1 1 2.49687e+09 2.49714e+09 2.49852e+09 2.51601e+09 0
000 135 2 0 2.52454e+09 2.5248e+09 2.52562e+09 2.52709e+09 0
000 136 2 0 2.54095e+09 2.54121e+09 2.54254e+09 2.55304e+09 0
000 137 1 1 2.56032e+09 2.56058e+09 2.56151e+09 2.56452e+09 0
000 138 2 1 2.57296e+09 2.57323e+09 2.57413e+09 2.57563e+09 0
001 139 2 1 2.58108e+09 2.58134e+09 2.58238e+09 2.5843e+09 0
001 140 1 0 2.58819e+09 2.58846e+09 2.58957e+09 2.59083e+09 0
001 141 1 1 2.59418e+09 2.59445e+09 2.59542e+09 2.60045e+09 0
000 142 1 0 2.61439e+09 2.61465e+09 2.61562e+09 2.61758e+09 1
001 143 2 1 2.62408e+09 2.62434e+09 2.62563e+09 2.63102e+09 0
001 144 2 0 2.63395e+09 2.63421e+09 2.63531e+09 2.64467e+09 0
000 145 2 1 2.65496e+09 2.65522e+09 2.65632e+09 2.66402e+09 1
001 146 1 1 2.66821e+09 2.66854e+09 2.66918e+09 2.68984e+09 0
000 147 1 0 2.69902e+09 2.69927e+09 2.69991e+09 2.70004e+09 1
001 148 1 1 2.70456e+09 2.70483e+09 2.70583e+09 2.70801e+09 0
000 149 1 1 2.71549e+09 2.71577e+09 2.71677e+09 2.71845e+09 1
000 150 1 1 2.72972e+09 2.72998e+09 2.73099e+09 2.73109e+09 1
000 151 1 0 2.74583e+09 2.74608e+09 2.74709e+09 2.75129e+09 1
001 152 1 0 2.7537e+09 2.75398e+09 2.75534e+09 2.75568e+09 0
001 153 1 1 2.7611e+09 2.76137e+09 2.76246e+09 2.76283e+09 0
000 154 1 1 2.77458e+09 2.77484e+09 2.77593e+09 2.79282e+09 1
000 155 1 1 2.80437e+09 2.80464e+09 2.80573e+09 2.81337e+09 1
000 156 1 0 2.82307e+09 2.82333e+09 2.82442e+09 2.83026e+09 1
001 157 2 0 2.83319e+09 2.83346e+09 2.83472e+09 2.83586e+09 0
000 158 2 1 2.84545e+09 2.84571e+09 2.84697e+09 2.85418e+09 1
001 159 1 1 2.85953e+09 2.8598e+09 2.86036e+09 2.89142e+09 0
000 160 1 0 2.90869e+09 2.90895e+09 2.90951e+09 2.91221e+09 1
001 161 2 0 2.91654e+09 2.9168e+09 2.91737e+09 2.91817e+09 0
000 162 2 1 2.9273e+09 2.92756e+09 2.92813e+09 2.93407e+09 1
001 163 1 1 2.94493e+09 2.94519e+09 2.94576e+09 2.95503e+09 0
000 164 1 1 2.96267e+09 2.96293e+09 2.9635e+09 2.96452e+09 1
000 165 1 1 2.97331e+09 2.97357e+09 2.97413e+09 3.00018e+09 1
000 166 1 1 3.00872e+09 3.00898e+09 3.00955e+09 3.03144e+09 1
000 167 2 1 3.03874e+09 3.039e+09 3.03992e+09 3.07673e+09 0
001 168 2 1 3.07988e+09 3.08013e+09 3.08141e+09 3.10082e+09 0
001 169 2 1 3.10903e+09 3.1093e+09 3.11079e+09 3.12736e+09 0
001 170 1 0 3.13336e+09 3.13362e+09 3.13441e+09 3.15654e+09 0
001 171 1 1 3.16045e+09 3.16072e+09 3.16124e+09 3.19574e+09 0
000 172 1 1 3.20319e+09 3.20345e+09 3.20397e+09 3.22182e+09 1
000 173 1 1 3.22923e+09 3.22951e+09 3.23003e+09 3.23268e+09 1
000 174 1 1 3.24025e+09 3.24052e+09 3.24104e+09 3.25624e+09 1
000 175 2 1 3.26367e+09 3.26393e+09 3.26446e+09 3.27958e+09 0
001 176 1 1 3.28252e+09 3.2828e+09 3.28337e+09 3.28713e+09 0
000 177 1 1 3.29669e+09 3.29696e+09 3.29753e+09 3.3413e+09 1
000 178 1 1 3.3485e+09 3.34877e+09 3.34934e+09 3.35376e+09 1
000 179 1 1 3.36102e+09 3.36129e+09 3.36186e+09 3.375e+09 1
000 180 2 1 3.38823e+09 3.3885e+09 3.38922e+09 3.39511e+09 0
001 181 1 0 3.39949e+09 3.39975e+09 3.40075e+09 3.40659e+09 0
001 182 1 0 3.41881e+09 3.41908e+09 3.41983e+09 3.42154e+09 0
001 183 2 0 3.42715e+09 3.42742e+09 3.42858e+09 3.42922e+09 0
000 184 2 0 3.43697e+09 3.43724e+09 3.43839e+09 3.44284e+09 1
000 185 2 1 3.45316e+09 3.45343e+09 3.45458e+09 3.45679e+09 1
001 186 2 0 3.462e+09 3.46225e+09 3.46362e+09 3.47059e+09 0
000 187 2 0 3.48074e+09 3.481e+09 3.48237e+09 3.48564e+09 1
000 188 2 0 3.4936e+09 3.49386e+09 3.49523e+09 3.50222e+09 1
000 189 2 1 3.51012e+09 3.51039e+09 3.51176e+09 3.54392e+09 1
001 190 1 1 3.55581e+09 3.55607e+09 3.55702e+09 3.55885e+09 0
000 191 1 1 3.56604e+09 3.5663e+09 3.56726e+09 3.5751e+09 1
000 192 1 1 3.58262e+09 3.58288e+09 3.58383e+09 3.60018e+09 1
000 193 1 1 3.60752e+09 3.6078e+09 3.60875e+09 3.61766e+09 1
000 194 1 1 3.62562e+09 3.62588e+09 3.62699e+09 3.63146e+09 0
000 195 1 1 3.63867e+09 3.63893e+09 3.63958e+09 3.64618e+09 0
000 196 1 1 3.6542e+09 3.65447e+09 3.65584e+09 3.66358e+09 0
000 197 1 1 3.67144e+09 3.67172e+09 3.67237e+09 3.68292e+09 0
000 198 1 1 3.69422e+09 3.69449e+09 3.69545e+09 3.69975e+09 0
000 199 2 1 3.70701e+09 3.70728e+09 3.70819e+09 3.70856e+09 0
001 200 1 1 3.71547e+09 3.71572e+09 3.71626e+09 3.72041e+09 0
000 201 1 1 3.72979e+09 3.73007e+09 3.7306e+09 3.74525e+09 1
000 202 1 1 3.75259e+09 3.75285e+09 3.75338e+09 3.77915e+09 1
000 203 1 1 3.79227e+09 3.79255e+09 3.79308e+09 3.79495e+09 1
000 204 2 1 3.81076e+09 3.81104e+09 3.8125e+09 3.82652e+09 0
001 205 1 1 3.82906e+09 3.82932e+09 3.83018e+09 3.83671e+09 0
000 206 1 0 3.84408e+09 3.84435e+09 3.84521e+09 3.84916e+09 1
001 207 1 1 3.8526e+09 3.85286e+09 3.85424e+09 3.85558e+09 0
000 208 1 1 3.86266e+09 3.86292e+09 3.8643e+09 3.90615e+09 1
000 209 1 1 3.91338e+09 3.91365e+09 3.91503e+09 3.9369e+09 1
000 210 1 1 3.94524e+09 3.94551e+09 3.94689e+09 3.97756e+09 1
000 211 1 1 3.98777e+09 3.98803e+09 3.98908e+09 4.00235e+09 0
000 212 1 1 4.00978e+09 4.01004e+09 4.01143e+09 4.01214e+09 0
000 213 1 1 4.01955e+09 4.01981e+09 4.02034e+09 4.03454e+09 0
000 214 2 1 4.04183e+09 4.0421e+09 4.04266e+09 4.04771e+09 0
001 215 1 0 4.05188e+09 4.05214e+09 4.05357e+09 4.05436e+09 0
001 216 2 0 4.06014e+09 4.06039e+09 4.06168e+09 4.08587e+09 0
000 217 2 1 4.09707e+09 4.09733e+09 4.09862e+09 4.10433e+09 1
001 218 2 0 4.10836e+09 4.10862e+09 4.10965e+09 4.11078e+09 0
000 219 2 1 4.12181e+09 4.12212e+09 4.12315e+09 4.12659e+09 1
001 220 2 1 4.14536e+09 4.14562e+09 4.14705e+09 4.14956e+09 0
001 221 2 1 4.15452e+09 4.15479e+09 4.15613e+09 4.16139e+09 0
001 222 1 1 4.17372e+09 4.17398e+09 4.17535e+09 4.18105e+09 0
000 223 1 0 4.19963e+09 4.1999e+09 4.20127e+09 4.2018e+09 1
001 224 2 1 4.21091e+09 4.21118e+09 4.21217e+09 4.22321e+09 0
001 225 2 1 4.22665e+09 4.22691e+09 4.2277e+09 4.2376e+09 0
001 226 1 1 4.255e+09 4.25526e+09 4.25583e+09 4.26389e+09 0
000 227 1 0 4.28282e+09 4.28309e+09 4.28366e+09 4.2848e+09 1
001 228 1 1 4.28881e+09 4.28906e+09 4.28972e+09 2.74914e+06 0
000 229 1 1 9.84782e+06 1.01004e+07 1.07597e+07 2.25757e+07 1
000 230 1 1 3.0164e+07 3.04225e+07 3.10819e+07 4.10176e+07 1
000 231 1 1 5.10177e+07 5.12773e+07 5.19367e+07 5.22406e+07 1
000 232 1 1 5.9777e+07 6.00339e+07 6.12453e+07 6.56633e+07 0
000 233 2 1 7.29703e+07 7.32334e+07 7.43793e+07 7.79133e+07 0
001 234 1 1 8.46971e+07 8.49795e+07 8.55968e+07 9.10033e+07 0
000 235 1 1 9.83153e+07 9.8577e+07 9.91943e+07 9.99959e+07 1
000 236 1 0 1.0902e+08 1.09283e+08 1.099e+08 1.12712e+08 1
001 237 1 0 1.16554e+08 1.16818e+08 1.179e+08 1.19245e+08 0
001 238 2 0 1.21913e+08 1.22168e+08 1.23487e+08 1.27463e+08 0
000 239 2 0 1.39266e+08 1.39525e+08 1.40843e+08 1.42249e+08 1
000 240 2 0 1.50881e+08 1.51144e+08 1.52462e+08 1.52581e+08 1
000 241 2 1 1.62084e+08 1.62337e+08 1.63655e+08 1.63758e+08 1
001 242 2 1 1.86877e+08 1.87141e+08 1.8789e+08 1.89563e+08 0
001 243 1 1 1.9448e+08 1.94739e+08 1.96119e+08 1.99369e+08 0
000 244 1 1 2.103e+08 2.10566e+08 2.11946e+08 2.29968e+08 1
000 245 1 0 2.48231e+08 2.48502e+08 2.49882e+08 2.53127e+08 1
001 246 2 1 2.59572e+08 2.59841e+08 2.61246e+08 2.61527e+08 0
001 247 2 0 2.82137e+08 2.82408e+08 2.83168e+08 2.83358e+08 0
000 248 2 1 2.97103e+08 2.97362e+08 2.98122e+08 2.98405e+08 1
001 249 1 0 3.33132e+08 3.33403e+08 3.34505e+08 3.36758e+08 0
001 250 1 0 3.51246e+08 3.51506e+08 3.52277e+08 3.54813e+08 0
001 251 1 1 3.60802e+08 3.61056e+08 3.62001e+08 3.65654e+08 0
000 252 1 1 3.75238e+08 3.75501e+08 3.76446e+08 3.76521e+08 1
000 253 1 0 4.0031e+08 4.00567e+08 4.01513e+08 4.0558e+08 1
001 254 2 1 4.2198e+08 4.22238e+08 4.22758e+08 4.23069e+08 0
001 255 2 1 4.30211e+08 4.3047e+08 4.31852e+08 4.50151e+08 0
001 256 1 1 4.80672e+08 4.80935e+08 4.81943e+08 4.82898e+08 0
000 257 1 1 4.93491e+08 4.93746e+08 4.94753e+08 4.96097e+08 1
000 258 1 0 5.03384e+08 5.03648e+08 5.04655e+08 5.1878e+08 1
001 259 2 1 5.25215e+08 5.25474e+08 5.26815e+08 5.28762e+08 0
001 260 1 1 5.3183e+08 5.32097e+08 5.3307e+08 5.36461e+08 0
000 261 1 1 5.55679e+08 5.55945e+08 5.56918e+08 5.62158e+08 1
000 262 1 0 5.7864e+08 5.78892e+08 5.79865e+08 5.81095e+08 1
001 263 1 1 5.84135e+08 5.84397e+08 5.85035e+08 5.8576e+08 0
000 264 1 0 5.93294e+08 5.93552e+08 5.9419e+08 5.95019e+08 1
001 265 2 0 5.99105e+08 5.99372e+08 6.0002e+08 6.14122e+08 0
000 266 2 1 6.21384e+08 6.21655e+08 6.22303e+08 6.22369e+08 1
001 267 1 0 6.26784e+08 6.27037e+08 6.28419e+08 6.3678e+08 0
001 268 2 1 6.39376e+08 6.39644e+08 6.4031e+08 6.62261e+08 0
001 269 2 1 6.66373e+08 6.66632e+08 6.67393e+08 6.75028e+08 0
001 270 2 1 6.77969e+08 6.7823e+08 6.7944e+08 6.97369e+08 0
001 271 1 1 7.02564e+08 7.02834e+08 7.03535e+08 7.04891e+08 0
000 272 1 1 7.13568e+08 7.13825e+08 7.14526e+08 7.18171e+08 1
000 273 1 1 7.30478e+08 7.3074e+08 7.31441e+08 7.34362e+08 1
000 274 1 0 7.50147e+08 7.50407e+08 7.51108e+08 7.51598e+08 1
001 275 2 0 7.60444e+08 7.60706e+08 7.6184e+08 7.62366e+08 0
000 276 2 1 7.70333e+08 7.70589e+08 7.71723e+08 7.72047e+08 1
001 277 2 1 7.76548e+08 7.76803e+08 7.78026e+08 7.79613e+08 0
001 278 1 0 7.82554e+08 7.82819e+08 7.8368e+08 7.95701e+08 0
001 279 1 0 8.15223e+08 8.15501e+08 8.16422e+08 8.19522e+08 0
001 280 1 0 8.23918e+08 8.2418e+08 8.24935e+08 8.31314e+08 0
001 281 2 0 8.54083e+08 8.54348e+08 8.55151e+08 8.65062e+08 0
000 282 2 1 8.8002e+08 8.80291e+08 8.81093e+08 8.87992e+08 1
001 283 1 1 8.93489e+08 8.93753e+08 8.94763e+08 8.97691e+08 0
000 284 1 1 9.11706e+08 9.11966e+08 9.12975e+08 9.16178e+08 1
000 285 1 1 9.26297e+08 9.26567e+08 9.27576e+08 9.3328e+08 1
000 286 1 0 9.40713e+08 9.40984e+08 9.41994e+08 9.42221e+08 1
001 287 2 1 9.47613e+08 9.47875e+08 9.4873e+08 9.54583e+08 0
001 288 2 1 9.58e+08 9.58259e+08 9.59163e+08 9.64597e+08 0
001 289 2 1 9.74404e+08 9.74655e+08 9.75756e+08 9.77305e+08 0
001 290 1 1 9.79963e+08 9.80226e+08 9.81049e+08 9.85052e+08 0
000 291 1 1 9.92304e+08 9.9257e+08 9.93393e+08 9.96127e+08 1
000 292 1 1 1.0033e+09 1.00357e+09 1.00439e+09 1.01237e+09 1
000 293 1 1 1.01946e+09 1.01971e+09 1.02054e+09 1.04279e+09 1
000 294 2 1 1.05157e+09 1.05182e+09 1.05328e+09 1.05727e+09 0
001 295 1 1 1.06135e+09 1.0616e+09 1.06224e+09 1.06238e+09 0
000 296 1 1 1.06989e+09 1.07014e+09 1.07078e+09 1.0847e+09 1
000 297 1 1 1.09225e+09 1.0925e+09 1.09314e+09 1.0983e+09 1
000 298 1 1 1.10568e+09 1.10593e+09 1.10657e+09 1.12461e+09 1
000 299 2 0 1.132e+09 1.13226e+09 1.13374e+09 1.14228e+09 0
000 300 1 1 1.14954e+09 1.14981e+09 1.1505e+09 1.15845e+09 0
000 301 1 1 1.17545e+09 1.17571e+09 1.17668e+09 1.18472e+09 0
000 302 2 1 1.19203e+09 1.19234e+09 1.19292e+09 1.20876e+09 0
001 303 2 1 1.21123e+09 1.21149e+09 1.21292e+09 1.24674e+09 0
001 304 1 0 1.24943e+09 1.2497e+09 1.25076e+09 1.29383e+09 0
001 305 2 1 1.29903e+09 1.29929e+09 1.29986e+09 1.30056e+09 0
001 306 2 1 1.30487e+09 1.30514e+09 1.3065e+09 1.30795e+09 0
001 307 2 1 1.31065e+09 1.31093e+09 1.31235e+09 1.31275e+09 0
001 308 2 1 1.33554e+09 1.3358e+09 1.33643e+09 1.34091e+09 0
001 309 1 1 1.34514e+09 1.3454e+09 1.34615e+09 1.3516e+09 0
000 310 1 0 1.35904e+09 1.3593e+09 1.36004e+09 1.3696e+09 1
001 311 2 0 1.37209e+09 1.37235e+09 1.37365e+09 1.37382e+09 0
000 312 2 1 1.39651e+09 1.39677e+09 1.39807e+09 1.41455e+09 1
001 313 2 0 1.41695e+09 1.41721e+09 1.41817e+09 1.47398e+09 0
000 314 2 1 1.48111e+09 1.48136e+09 1.48232e+09 1.48284e+09 1
001 315 1 1 1.48668e+09 1.48694e+09 1.48814e+09 1.49004e+09 0
000 316 1 1 1.50557e+09 1.50582e+09 1.50702e+09 1.50854e+09 1
000 317 1 1 1.51595e+09 1.51621e+09 1.51742e+09 1.52181e+09 1
000 318 1 1 1.53048e+09 1.53075e+09 1.53195e+09 1.53767e+09 1
000 319 2 1 1.54513e+09 1.54539e+09 1.5466e+09 1.5575e+09 0
001 320 1 1 1.56023e+09 1.5605e+09 1.56186e+09 1.57064e+09 0
000 321 1 1 1.58767e+09 1.58793e+09 1.58929e+09 1.59131e+09 1
000 322 1 1 1.59967e+09 1.59992e+09 1.60128e+09 1.60558e+09 1
000 323 1 0 1.61325e+09 1.61352e+09 1.61487e+09 1.61536e+09 1
001 324 2 1 1.61882e+09 1.61908e+09 1.62056e+09 1.62441e+09 0
001 325 1 0 1.62702e+09 1.62727e+09 1.62816e+09 1.62838e+09 0
001 326 1 1 1.64055e+09 1.64081e+09 1.64186e+09 1.64681e+09 0
000 327 1 1 1.65797e+09 1.65823e+09 1.65928e+09 1.66822e+09 1
000 328 1 0 1.67944e+09 1.67971e+09 1.68075e+09 1.68194e+09 1
001 329 2 0 1.68573e+09 1.686e+09 1.68676e+09 1.69185e+09 0
000 330 2 1 1.69897e+09 1.69923e+09 1.69999e+09 1.7455e+09 1
001 331 2 1 1.7494e+09 1.74966e+09 1.75059e+09 1.75112e+09 0
001 332 1 1 1.75517e+09 1.75543e+09 1.75623e+09 1.77182e+09 0
000 333 1 0 1.78151e+09 1.78177e+09 1.78257e+09 1.79702e+09 1
001 334 1 1 1.80123e+09 1.80149e+09 1.80281e+09 1.80592e+09 0
000 335 1 1 1.82018e+09 1.82044e+09 1.82176e+09 1.82236e+09 1
000 336 1 1 1.83618e+09 1.83644e+09 1.83776e+09 1.90571e+09 1
000 337 1 1 1.9141e+09 1.91436e+09 1.91568e+09 1.91883e+09 1
000 338 1 1 1.92637e+09 1.92663e+09 1.92773e+09 1.95127e+09 0
000 339 2 1 1.96163e+09 1.9619e+09 1.96265e+09 1.96372e+09 0
001 340 1 0 1.97144e+09 1.9717e+09 1.97295e+09 1.97797e+09 0
001 341 2 1 1.98613e+09 1.9864e+09 1.9872e+09 1.9954e+09 0
001 342 1 1 2.00063e+09 2.0009e+09 2.00188e+09 2.00263e+09 0
000 343 1 1 2.01014e+09 2.0104e+09 2.01138e+09 2.01559e+09 1
000 344 1 1 2.02367e+09 2.02393e+09 2.02491e+09 2.0278e+09 1
000 345 1 1 2.03551e+09 2.03576e+09 2.03674e+09 2.03743e+09 1
000 346 2 1 2.04567e+09 2.04592e+09 2.04674e+09 2.06328e+09 0
001 347 1 1 2.06563e+09 2.0659e+09 2.06705e+09 2.07594e+09 0
000 348 1 1 2.08781e+09 2.08808e+09 2.08923e+09 2.09054e+09 1
000 349 1 1 2.09797e+09 2.09829e+09 2.09944e+09 2.1016e+09 1
000 350 1 0 2.109e+09 2.10925e+09 2.1104e+09 2.11286e+09 1
001 351 2 1 2.11532e+09 2.11558e+09 2.11672e+09 2.11936e+09 0
001 352 2 0 2.12183e+09 2.12214e+09 2.12288e+09 2.12865e+09 0
000 353 2 0 2.13609e+09 2.13635e+09 2.13709e+09 2.13879e+09 1
000 354 2 0 2.1462e+09 2.14647e+09 2.14721e+09 2.15175e+09 1
000 355 2 1 2.15952e+09 2.15978e+09 2.16052e+09 2.16227e+09 1
001 356 1 1 2.16838e+09 2.16865e+09 2.16976e+09 2.17582e+09 0
000 357 1 1 2.18374e+09 2.184e+09 2.18512e+09 2.20856e+09 1
000 358 1 0 2.22211e+09 2.22237e+09 2.22348e+09 2.2339e+09 1
001 359 2 0 2.23705e+09 2.23732e+09 2.23793e+09 2.23875e+09 0
000 360 2 0 2.24671e+09 2.24696e+09 2.24757e+09 2.24773e+09 1
000 361 2 1 2.25507e+09 2.25533e+09 2.25594e+09 2.27114e+09 1
001 362 1 0 2.27582e+09 2.27609e+09 2.27719e+09 2.27859e+09 0
001 363 1 0 2.28693e+09 2.28719e+09 2.28817e+09 2.2932e+09 0
001 364 1 0 2.29656e+09 2.29682e+09 2.29765e+09 2.2983e+09 0
001 365 2 0 2.30244e+09 2.30271e+09 2.30413e+09 2.30424e+09 0
000 366 2 1 2.31395e+09 2.31422e+09 2.31564e+09 2.31719e+09 1
001 367 2 0 2.32219e+09 2.32245e+09 2.3238e+09 2.32493e+09 0
000 368 2 1 2.33253e+09 2.33279e+09 2.33413e+09 2.33813e+09 1
001 369 1 1 2.3485e+09 2.34875e+09 2.3498e+09 2.3552e+09 0
000 370 1 1 2.36299e+09 2.36326e+09 2.3643e+09 2.37263e+09 1
000 371 1 0 2.38153e+09 2.38178e+09 2.38283e+09 2.40445e+09 1
001 372 1 1 2.40691e+09 2.40718e+09 2.40819e+09 2.42103e+09 0
000 373 1 1 2.43845e+09 2.43871e+09 2.43973e+09 2.45088e+09 1
000 374 1 1 2.45933e+09 2.4596e+09 2.46062e+09 2.46518e+09 1
000 375 1 1 2.47369e+09 2.47395e+09 2.47497e+09 2.48332e+09 1
000 376 2 1 2.4918e+09 2.49206e+09 2.49271e+09 2.49688e+09 0
001 377 2 0 2.50782e+09 2.50808e+09 2.50891e+09 2.50934e+09 0
000 378 2 0 2.51854e+09 2.5188e+09 2.51963e+09 2.52302e+09 1
000 379 2 0 2.53641e+09 2.53667e+09 2.5375e+09 2.53785e+09 1
000 380 2 0 2.54584e+09 2.54611e+09 2.54694e+09 2.55528e+09 1
000 381 2 0 2.56369e+09 2.56395e+09 2.56543e+09 2.56597e+09 0
000 382 1 0 2.57314e+09 2.57342e+09 2.57399e+09 2.58188e+09 0
001 383 2 0 2.58582e+09 2.58607e+09 2.58756e+09 2.59165e+09 0
000 384 2 0 2.60046e+09 2.60071e+09 2.6022e+09 2.60354e+09 1
000 385 2 0 2.61105e+09 2.61132e+09 2.6128e+09 2.62489e+09 1
000 386 2 0 2.63443e+09 2.6347e+09 2.63619e+09 2.65838e+09 1
000 387 2 0 2.6662e+09 2.66648e+09 2.66731e+09 2.67203e+09 0
000 388 2 1 2.68019e+09 2.68046e+09 2.68157e+09 2.68207e+09 0
001 389 1 0 2.6869e+09 2.68717e+09 2.68802e+09 2.69229e+09 0
001 390 1 1 2.69663e+09 2.6969e+09 2.69742e+09 2.69908e+09 0
000 391 1 1 2.71054e+09 2.71081e+09 2.71133e+09 2.71557e+09 1
000 392 1 1 2.72289e+09 2.72316e+09 2.72367e+09 2.74061e+09 1
000 393 1 1 2.74767e+09 2.74794e+09 2.74846e+09 2.74957e+09 1
000 394 2 1 2.75979e+09 2.76005e+09 2.76111e+09 2.76905e+09 0
001 395 1 1 2.77194e+09 2.77221e+09 2.77345e+09 2.77394e+09 0
000 396 1 1 2.7849e+09 2.78516e+09 2.7864e+09 2.78735e+09 1
000 397 1 1 2.79822e+09 2.79849e+09 2.79972e+09 2.80501e+09 1
000 398 1 1 2.81628e+09 2.81655e+09 2.81778e+09 2.8216e+09 1
000 399 1 1 2.82904e+09 2.82932e+09 2.83023e+09 2.84341e+09 0
000 400 1 1 2.85128e+09 2.85156e+09 2.85219e+09 2.8642e+09 0
000 401 2 1 2.87135e+09 2.87162e+09 2.8725e+09 2.88062e+09 0
001 402 1 1 2.88383e+09 2.8841e+09 2.88517e+09 2.90684e+09 0
000 403 1 1 2.91413e+09 2.9144e+09 2.91546e+09 2.92978e+09 1
000 404 1 1 2.9371e+09 2.93737e+09 2.93844e+09 2.9799e+09 1
000 405 1 1 2.99022e+09 2.99049e+09 2.99155e+09 3.01493e+09 1
000 406 2 1 3.02383e+09 3.02411e+09 3.02535e+09 3.02868e+09 0
001 407 1 1 3.03227e+09 3.03253e+09 3.03373e+09 3.0341e+09 0
000 408 1 1 3.04661e+09 3.04687e+09 3.04807e+09 3.05543e+09 1
000 409 1 1 3.06417e+09 3.06444e+09 3.06565e+09 3.06831e+09 1
000 410 1 1 3.07559e+09 3.07586e+09 3.07706e+09 3.08656e+09 1
000 411 2 1 3.09547e+09 3.09574e+09 3.09664e+09 3.109e+09 0
001 412 2 1 3.11203e+09 3.1123e+09 3.1132e+09 3.11358e+09 0
001 413 2 1 3.11769e+09 3.11795e+09 3.11933e+09 3.1206e+09 0
001 414 2 1 3.12916e+09 3.12944e+09 3.13038e+09 3.13504e+09 0
001 415 1 1 3.13839e+09 3.13866e+09 3.13976e+09 3.15168e+09 0
000 416 1 1 3.16355e+09 3.16382e+09 3.16492e+09 3.16623e+09 1
000 417 1 1 3.17411e+09 3.17437e+09 3.17547e+09 3.1791e+09 1
000 418 1 1 3.18628e+09 3.18655e+09 3.18764e+09 3.19959e+09 1
000 419 1 0 3.20697e+09 3.20723e+09 3.20863e+09 3.21655e+09 0
001 420 1 1 3.23752e+09 3.2378e+09 3.23844e+09 3.24482e+09 0
000 421 1 1 3.25559e+09 3.25585e+09 3.2565e+09 3.26317e+09 1
000 422 1 1 3.27278e+09 3.27305e+09 3.27369e+09 3.29457e+09 1
000 423 1 0 3.30683e+09 3.3071e+09 3.30775e+09 3.30824e+09 1
001 424 2 1 3.31551e+09 3.31577e+09 3.31683e+09 3.31759e+09 0
001 425 1 1 3.32094e+09 3.32121e+09 3.32181e+09 3.32701e+09 0
000 426 1 0 3.33718e+09 3.33744e+09 3.33805e+09 3.33968e+09 1
001 427 2 1 3.34484e+09 3.3451e+09 3.34605e+09 3.37145e+09 0
001 428 1 1 3.37985e+09 3.38011e+09 3.38153e+09 3.38702e+09 0
000 429 1 1 3.41696e+09 3.41723e+09 3.41865e+09 3.41871e+09 1
000 430 1 1 3.43433e+09 3.43459e+09 3.43601e+09 3.43887e+09 1
000 431 1 1 3.44683e+09 3.4471e+09 3.44852e+09 3.44927e+09 1
000 432 2 1 3.45666e+09 3.45692e+09 3.45831e+09 3.47291e+09 0
001 433 1 1 3.47583e+09 3.47614e+09 3.47699e+09 3.47896e+09 0
000 434 1 1 3.48847e+09 3.48874e+09 3.48959e+09 3.49052e+09 1
000 435 1 1 3.5353e+09 3.53558e+09 3.53643e+09 3.53846e+09 1
000 436 1 1 3.54818e+09 3.54845e+09 3.5493e+09 3.55148e+09 1
000 437 1 1 3.55873e+09 3.55901e+09 3.56036e+09 3.5634e+09 0
000 438 1 1 3.57698e+09 3.57724e+09 3.57822e+09 3.58757e+09 0
000 439 1 1 3.59903e+09 3.59929e+09 3.6006e+09 3.60306e+09 0
000 440 1 1 3.61017e+09 3.61043e+09 3.6111e+09 3.62026e+09 0
000 441 2 1 3.63077e+09 3.63104e+09 3.63156e+09 3.63485e+09 0
001 442 1 1 3.63822e+09 3.63848e+09 3.63982e+09 3.64042e+09 0
000 443 1 1 3.64949e+09 3.64974e+09 3.65108e+09 3.67606e+09 1
000 444 1 1 3.68321e+09 3.68347e+09 3.68481e+09 3.6955e+09 1
000 445 1 1 3.70256e+09 3.70283e+09 3.70417e+09 3.70724e+09 1
000 446 2 1 3.71521e+09 3.71548e+09 3.71686e+09 3.71704e+09 0
001 447 2 1 3.72187e+09 3.72214e+09 3.72306e+09 3.74394e+09 0
001 448 2 1 3.74756e+09 3.74782e+09 3.74894e+09 3.75176e+09 0
001 449 1 1 3.75646e+09 3.75672e+09 3.7573e+09 3.75769e+09 0
000 450 1 0 3.76475e+09 3.76502e+09 3.7656e+09 3.76853e+09 1
001 451 2 1 3.77124e+09 3.7715e+09 3.77287e+09 3.775e+09 0
001 452 1 0 3.7821e+09 3.78236e+09 3.7838e+09 3.78529e+09 0
001 453 1 0 3.79151e+09 3.79177e+09 3.7931e+09 3.79431e+09 0
001 454 2 0 3.79845e+09 3.79872e+09 3.79975e+09 3.80496e+09 0
000 455 2 1 3.82485e+09 3.82512e+09 3.82615e+09 3.82683e+09 1
001 456 2 0 3.84164e+09 3.8419e+09 3.84247e+09 3.84251e+09 0
000 457 2 1 3.85061e+09 3.85088e+09 3.85144e+09 3.85496e+09 1
001 458 2 1 3.86985e+09 3.87011e+09 3.87146e+09 3.87156e+09 0
001 459 1 1 3.87757e+09 3.87785e+09 3.8784e+09 3.87859e+09 0
000 460 1 0 3.89309e+09 3.89335e+09 3.89391e+09 3.89478e+09 1
001 461 2 1 3.9001e+09 3.90037e+09 3.90147e+09 3.90453e+09 0
001 462 2 1 3.90702e+09 3.90728e+09 3.9082e+09 3.91122e+09 0
001 463 1 1 3.91405e+09 3.91433e+09 3.91537e+09 3.92759e+09 0
000 464 1 1 3.94722e+09 3.94748e+09 3.94852e+09 3.96446e+09 1
000 465 1 0 3.98177e+09 3.98203e+09 3.98307e+09 4.00689e+09 1
001 466 1 0 4.014e+09 4.01427e+09 4.01507e+09 4.01573e+09 0
001 467 2 1 4.02601e+09 4.02629e+09 4.02692e+09 4.03312e+09 0
001 468 2 1 4.04004e+09 4.04031e+09 4.04093e+09 4.0494e+09 0
001 469 1 1 4.06504e+09 4.06531e+09 4.06623e+09 4.06628e+09 0
000 470 1 1 4.07969e+09 4.07995e+09 4.08087e+09 4.08155e+09 1
000 471 1 1 4.09422e+09 4.0945e+09 4.09542e+09 4.11173e+09 1
000 472 1 1 4.12111e+09 4.12137e+09 4.12229e+09 4.13602e+09 1
000 473 1 1 4.14522e+09 4.14548e+09 4.14653e+09 4.14706e+09 0
000 474 2 0 4.15449e+09 4.15475e+09 4.15585e+09 4.15694e+09 0
000 475 2 1 4.16658e+09 4.16685e+09 4.16809e+09 4.20874e+09 0
001 476 1 1 4.21285e+09 4.21313e+09 4.2143e+09 4.21555e+09 0
000 477 1 0 4.23127e+09 4.23154e+09 4.23271e+09 4.24909e+09 1
001 478 2 1 4.25202e+09 4.25229e+09 4.25292e+09 4.25719e+09 0
001 479 1 1 4.26043e+09 4.26069e+09 4.26213e+09 4.26686e+09 0
000 480 1 1 4.27777e+09 4.27805e+09 4.27948e+09 4.28235e+09 1
000 481 1 1 4.2898e+09 4.29007e+09 4.2915e+09 4.76944e+06 1
000 482 1 1 1.2629e+07 1.2912e+07 1.43437e+07 1.84662e+07 1
000 483 1 1 3.01159e+07 3.03891e+07 3.18273e+07 3.46246e+07 0
000 484 2 1 4.53397e+07 4.56034e+07 4.63341e+07 4.76514e+07 0
001 485 2 1 5.09901e+07 5.1246e+07 5.26875e+07 5.66219e+07 0
001 486 1 1 5.91841e+07 5.94507e+07 6.08775e+07 1.8006e+08 0
000 487 1 1 1.87272e+08 1.87538e+08 1.88964e+08 2.05311e+08 1
000 488 1 1 2.12712e+08 2.1297e+08 2.14397e+08 2.15982e+08 1
000 489 1 1 2.30861e+08 2.31131e+08 2.32558e+08 2.35933e+08 1
000 490 2 0 2.4346e+08 2.43717e+08 2.44755e+08 2.55336e+08 0
000 491 1 1 2.6282e+08 2.63084e+08 2.64332e+08 2.92809e+08 0
000 492 1 1 2.99978e+08 3.00248e+08 3.01455e+08 3.05439e+08 0
000 493 2 1 3.12736e+08 3.12999e+08 3.13945e+08 3.60267e+08 0
001 494 1 1 3.63794e+08 3.64055e+08 3.64678e+08 3.68616e+08 0
000 495 1 1 3.80732e+08 3.80993e+08 3.81615e+08 3.82001e+08 1
000 496 1 0 4.01872e+08 4.02133e+08 4.02756e+08 6.39891e+08 1
001 497 2 1 6.436e+08 6.439e+08 6.44915e+08 6.45428e+08 0
001 498 1 1 6.71953e+08 6.7221e+08 6.72786e+08 6.772e+08 0
000 499 1 1 6.8741e+08 6.87672e+08 6.88248e+08 6.88499e+08 1
000 500 1 1 7.00516e+08 7.00789e+08 7.01365e+08 7.10805e+08 1
000 501 1 1 7.18695e+08 7.18952e+08 7.19528e+08 7.21662e+08 1
000 502 2 1 7.29156e+08 7.29427e+08 7.30114e+08 7.30977e+08 0
001 503 2 1 7.34951e+08 7.35216e+08 7.35767e+08 7.38114e+08 0
001 504 2 1 7.42438e+08 7.42709e+08 7.44082e+08 7.44706e+08 0
001 505 2 1 7.68567e+08 7.68844e+08 7.69748e+08 7.84477e+08 0
001 506 1 1 7.87022e+08 7.87286e+08 7.8829e+08 7.89514e+08 0
000 507 1 1 7.98767e+08 7.99033e+08 8.00037e+08 8.04928e+08 1
000 508 1 1 8.14251e+08 8.14521e+08 8.15526e+08 8.22788e+08 1
000 509 1 1 8.32645e+08 8.3291e+08 8.33915e+08 8.34193e+08 1
000 510 1 1 8.41506e+08 8.4177e+08 8.42633e+08 8.49723e+08 0
000 511 1 1 8.58754e+08 8.59022e+08 8.59922e+08 8.63438e+08 0
000 512 2 0 8.70974e+08 8.71246e+08 8.72506e+08 8.85302e+08 0
000 513 2 1 8.92513e+08 8.92769e+08 8.93625e+08 9.41657e+08 0
001 514 1 0 9.45999e+08 9.4626e+08 9.46858e+08 9.48118e+08 0
001 515 2 1 9.5264e+08 9.52904e+08 9.54291e+08 9.57795e+08 0
001 516 1 1 9.66284e+08 9.66551e+08 9.6745e+08 9.74161e+08 0
000 517 1 1 9.82469e+08 9.8273e+08 9.8363e+08 9.9559e+08 1
000 518 1 0 1.00267e+09 1.00293e+09 1.00383e+09 1.02619e+09 1
001 519 2 1 1.03107e+09 1.03134e+09 1.03195e+09 1.0429e+09 0
001 520 1 0 1.04581e+09 1.04607e+09 1.04747e+09 1.06076e+09 0
001 521 1 1 1.06657e+09 1.06684e+09 1.06822e+09 1.10077e+09 0
000 522 1 0 1.10858e+09 1.10885e+09 1.11024e+09 1.11382e+09 1
001 523 1 1 1.1253e+09 1.12557e+09 1.12643e+09 1.13295e+09 0
000 524 1 1 1.14002e+09 1.14027e+09 1.14114e+09 1.2386e+09 1
000 525 1 0 1.24567e+09 1.24595e+09 1.24681e+09 1.36496e+09 1
001 526 1 1 1.36785e+09 1.36814e+09 1.36869e+09 1.36966e+09 0
000 527 1 1 1.37714e+09 1.37741e+09 1.37797e+09 1.381e+09 1
000 528 1 1 1.38815e+09 1.38842e+09 1.38897e+09 1.42833e+09 1
000 529 1 1 1.43547e+09 1.43574e+09 1.43629e+09 1.44493e+09 1
000 530 1 1 1.45218e+09 1.45244e+09 1.4535e+09 1.4773e+09 0
000 531 1 1 1.48511e+09 1.48538e+09 1.48665e+09 1.66376e+09 0
000 532 1 1 1.67117e+09 1.67144e+09 1.67288e+09 1.69851e+09 0
000 533 1 0 1.7057e+09 1.70597e+09 1.70687e+09 1.75032