trial trialType response stillTime stimOnset stimOffset respTime correctionTrial correct
001 1 1 3.05768e+06 3.36348e+06 4.73011e+06 1.0319e+07 0
000 002 1 1 1.7622e+07 1.78865e+07 1.92531e+07 2.22661e+08 1
000 003 1 0 2.29791e+08 2.30058e+08 2.31425e+08 2.32456e+08 1
001 004 1 0 2.37997e+08 2.38257e+08 2.39704e+08 2.43647e+08 0
001 005 1 1 2.52089e+08 2.52344e+08 2.53618e+08 2.55388e+08 0
000 006 1 1 2.63149e+08 2.63401e+08 2.64674e+08 2.65451e+08 1
000 007 1 1 2.75445e+08 2.75702e+08 2.76976e+08 2.82897e+08 1
000 008 1 1 2.91066e+08 2.91329e+08 2.92603e+08 2.93509e+08 1
000 009 2 0 3.09932e+08 3.10188e+08 3.11111e+08 3.12058e+08 0
000 010 2 1 3.28964e+08 3.29219e+08 3.30465e+08 3.30833e+08 0
001 011 2 0 3.41158e+08 3.41432e+08 3.4258e+08 3.42901e+08 0
000 012 2 1 3.51247e+08 3.51517e+08 3.52666e+08 3.56324e+08 1
001 013 2 0 3.61941e+08 3.62201e+08 3.63327e+08 3.70776e+08 0
000 014 2 0 3.77867e+08 3.7814e+08 3.79266e+08 3.80003e+08 1
000 015 2 1 4.15261e+08 4.15518e+08 4.16644e+08 4.20439e+08 1
001 016 1 1 4.23213e+08 4.2348e+08 4.24683e+08 4.26287e+08 0
000 017 1 0 4.36466e+08 4.36734e+08 4.37938e+08 4.43427e+08 1
001 018 2 0 4.50233e+08 4.50496e+08 4.5182e+08 4.53611e+08 0
000 019 2 0 4.62608e+08 4.62881e+08 4.64205e+08 4.64847e+08 1
000 020 2 0 4.72408e+08 4.72669e+08 4.73993e+08 4.77936e+08 1
000 021 2 0 4.91468e+08 4.91735e+08 4.93059e+08 4.93772e+08 1
000 022 1 0 5.0758e+08 5.07841e+08 5.08365e+08 5.08647e+08 0
001 023 2 1 5.15157e+08 5.15419e+08 5.16336e+08 5.16584e+08 0
001 024 2 1 5.20693e+08 5.20964e+08 5.22108e+08 5.51693e+08 0
001 025 1 1 5.54045e+08 5.54322e+08 5.55383e+08 5.80346e+08 0
000 026 1 1 5.91732e+08 5.9199e+08 5.93051e+08 5.9493e+08 1
000 027 1 1 6.02072e+08 6.02326e+08 6.03388e+08 6.04038e+08 1
000 028 1 1 6.14065e+08 6.14335e+08 6.15396e+08 6.19831e+08 1
000 029 1 0 6.33069e+08 6.33335e+08 6.34042e+08 6.34516e+08 0
001 030 2 0 6.43475e+08 6.43743e+08 6.44756e+08 6.4491e+08 0
000 031 2 0 6.53134e+08 6.53396e+08 6.54409e+08 6.57788e+08 1
000 032 2 0 6.67069e+08 6.67344e+08 6.68357e+08 6.71278e+08 1
000 033 2 0 6.78337e+08 6.78602e+08 6.79615e+08 6.80115e+08 1
000 034 2 0 6.88686e+08 6.8896e+08 6.89463e+08 6.91309e+08 0
000 035 1 0 7.01268e+08 7.01541e+08 7.02945e+08 7.0493e+08 0
001 036 1 0 7.07904e+08 7.08175e+08 7.09026e+08 7.13551e+08 0
001 037 1 1 7.16343e+08 7.16612e+08 7.17185e+08 7.28514e+08 0
000 038 1 0 7.35706e+08 7.35972e+08 7.36545e+08 7.37263e+08 1
001 039 1 0 7.41182e+08 7.41445e+08 7.42028e+08 7.60981e+08 0
001 040 1 0 7.6362e+08 7.63885e+08 7.64596e+08 7.8212e+08 0
001 041 1 0 7.84905e+08 7.85176e+08 7.85713e+08 8.11111e+08 0
001 042 1 0 8.13594e+08 8.13866e+08 8.14433e+08 8.31269e+08 0
001 043 2 0 8.33982e+08 8.3425e+08 8.35431e+08 8.44204e+08 0
000 044 2 0 8.52845e+08 8.5311e+08 8.54292e+08 8.56239e+08 1
000 045 2 0 8.66364e+08 8.66625e+08 8.67806e+08 8.68569e+08 1
000 046 2 0 8.75897e+08 8.76148e+08 8.7733e+08 8.78851e+08 1
000 047 1 0 8.88515e+08 8.88781e+08 8.89645e+08 8.89937e+08 0
001 048 2 0 8.95346e+08 8.9561e+08 8.96866e+08 8.98211e+08 0
000 049 2 0 9.05454e+08 9.05722e+08 9.06978e+08 9.09117e+08 1
000 050 2 0 9.17004e+08 9.17263e+08 9.18519e+08 9.1878e+08 1
000 051 2 0 9.30942e+08 9.31214e+08 9.3247e+08 9.32712e+08 1
000 052 2 0 9.43721e+08 9.43993e+08 9.44707e+08 9.45536e+08 0
000 053 2 1 9.56783e+08 9.57056e+08 9.57631e+08 9.59363e+08 0
001 054 2 1 9.65385e+08 9.65644e+08 9.66832e+08 9.67621e+08 0
001 055 1 1 9.773e+08 9.7757e+08 9.78235e+08 9.83894e+08 0
000 056 1 1 9.91443e+08 9.9171e+08 9.92375e+08 9.96287e+08 1
000 057 1 1 1.00635e+09 1.00662e+09 1.00728e+09 1.01133e+09 1
000 058 1 1 1.01968e+09 1.01995e+09 1.02061e+09 1.02176e+09 1
000 059 1 1 1.03282e+09 1.03308e+09 1.03452e+09 1.03564e+09 0
000 060 2 0 1.04461e+09 1.04487e+09 1.04574e+09 1.04866e+09 0
000 061 1 1 1.05757e+09 1.05784e+09 1.05864e+09 1.06041e+09 0
000 062 2 0 1.07166e+09 1.07192e+09 1.07339e+09 1.07575e+09 0
000 063 2 0 1.08319e+09 1.08345e+09 1.0846e+09 1.08466e+09 0
000 064 2 1 1.09208e+09 1.09236e+09 1.09287e+09 1.09465e+09 0
001 065 1 0 1.09881e+09 1.09907e+09 1.10053e+09 1.10154e+09 0
001 066 1 1 1.10596e+09 1.10623e+09 1.10739e+09 1.10854e+09 0
000 067 1 1 1.11612e+09 1.11638e+09 1.11754e+09 1.11911e+09 1
000 068 1 1 1.12929e+09 1.12957e+09 1.13073e+09 1.13236e+09 1
000 069 1 1 1.14875e+09 1.14901e+09 1.15017e+09 1.15089e+09 1
000 070 2 1 1.1584e+09 1.15867e+09 1.15948e+09 1.16449e+09 0
001 071 1 1 1.1671e+09 1.16736e+09 1.16789e+09 1.17014e+09 0
000 072 1 1 1.18094e+09 1.18121e+09 1.18174e+09 1.18381e+09 1
000 073 1 0 1.19109e+09 1.19136e+09 1.19189e+09 1.19227e+09 1
001 074 2 0 1.19735e+09 1.19761e+09 1.19864e+09 1.20028e+09 0
000 075 2 0 1.20874e+09 1.209e+09 1.21002e+09 1.21289e+09 1
000 076 2 0 1.23154e+09 1.23183e+09 1.23286e+09 1.23615e+09 1
000 077 2 0 1.24792e+09 1.24819e+09 1.24921e+09 1.25285e+09 1
000 078 2 0 1.26394e+09 1.2642e+09 1.26477e+09 1.26509e+09 0
000 079 2 1 1.27985e+09 1.28012e+09 1.28106e+09 1.28636e+09 0
001 080 1 0 1.28885e+09 1.28912e+09 1.29019e+09 1.30201e+09 0
001 081 2 0 1.30466e+09 1.30493e+09 1.30617e+09 1.30921e+09 0
000 082 2 1 1.32115e+09 1.32141e+09 1.32265e+09 1.32363e+09 1
001 083 1 1 1.32925e+09 1.32951e+09 1.33011e+09 1.33068e+09 0
000 084 1 0 1.33803e+09 1.33829e+09 1.33889e+09 1.34035e+09 1
001 085 1 1 1.3434e+09 1.34366e+09 1.3446e+09 1.34544e+09 0
000 086 1 0 1.35458e+09 1.35484e+09 1.35579e+09 1.3567e+09 1
001 087 2 1 1.36004e+09 1.36032e+09 1.36086e+09 1.37101e+09 0
001 088 2 1 1.37482e+09 1.37509e+09 1.37646e+09 1.38271e+09 0
001 089 2 0 1.38556e+09 1.38582e+09 1.38721e+09 1.39996e+09 0
000 090 2 0 1.41106e+09 1.41133e+09 1.41272e+09 1.41382e+09 1
000 091 2 0 1.42221e+09 1.42247e+09 1.42386e+09 1.42789e+09 1
000 092 2 1 1.43576e+09 1.43603e+09 1.43742e+09 1.44026e+09 1
001 093 2 0 1.44351e+09 1.44378e+09 1.44441e+09 1.44551e+09 0
000 094 2 0 1.45425e+09 1.45451e+09 1.45514e+09 1.45517e+09 1
000 095 2 0 1.46704e+09 1.46731e+09 1.46794e+09 1.46887e+09 1
000 096 2 0 1.47599e+09 1.47625e+09 1.47688e+09 1.47866e+09 1
000 097 1 0 1.48739e+09 1.48766e+09 1.48875e+09 1.49009e+09 0
001 098 2 1 1.4938e+09 1.49407e+09 1.49524e+09 1.50743e+09 0
001 099 2 0 1.51115e+09 1.51141e+09 1.51288e+09 1.51713e+09 0
000 100 2 0 1.52516e+09 1.52542e+09 1.52689e+09 1.5332e+09 1
000 101 2 0 1.54029e+09 1.54056e+09 1.54203e+09 1.54365e+09 1
000 102 2 1 1.5566e+09 1.55687e+09 1.55834e+09 1.56564e+09 1
001 103 1 0 1.5696e+09 1.56987e+09 1.57123e+09 1.5857e+09 0
001 104 2 0 1.58835e+09 1.58861e+09 1.58913e+09 1.59477e+09 0
000 105 2 0 1.60195e+09 1.60221e+09 1.60273e+09 1.60288e+09 1
000 106 2 1 1.61148e+09 1.61175e+09 1.61227e+09 1.61422e+09 1
001 107 1 1 1.61728e+09 1.61754e+09 1.61901e+09 1.6221e+09 0
000 108 1 0 1.63085e+09 1.63112e+09 1.63259e+09 1.63872e+09 1
001 109 1 0 1.65178e+09 1.65204e+09 1.65268e+09 1.65429e+09 0
001 110 2 1 1.66275e+09 1.663e+09 1.66353e+09 1.68283e+09 0
001 111 2 0 1.68525e+09 1.68552e+09 1.68634e+09 1.693e+09 0
000 112 2 0 1.70029e+09 1.70055e+09 1.70137e+09 1.70424e+09 1
000 113 2 0 1.71297e+09 1.71324e+09 1.71406e+09 1.7144e+09 1
000 114 2 0 1.72908e+09 1.72933e+09 1.73016e+09 1.73153e+09 1
000 115 1 0 1.73875e+09 1.73902e+09 1.73968e+09 1.74453e+09 0
001 116 1 0 1.74715e+09 1.74741e+09 1.74842e+09 1.74941e+09 0
001 117 1 0 1.75269e+09 1.75295e+09 1.75406e+09 1.75826e+09 0
001 118 1 1 1.76333e+09 1.7636e+09 1.7649e+09 1.76939e+09 0
000 119 1 0 1.7769e+09 1.77716e+09 1.77846e+09 1.77986e+09 1
001 120 2 1 1.79565e+09 1.79592e+09 1.79728e+09 1.80216e+09 0
001 121 1 1 1.80718e+09 1.80744e+09 1.80824e+09 1.80865e+09 0
000 122 1 0 1.81833e+09 1.8186e+09 1.8194e+09 1.82659e+09 1
001 123 2 1 1.829e+09 1.82926e+09 1.83059e+09 1.83531e+09 0
001 124 2 0 1.83812e+09 1.83838e+09 1.83897e+09 1.84101e+09 0
000 125 2 0 1.86296e+09 1.86322e+09 1.86382e+09 1.86523e+09 1
000 126 2 1 1.90591e+09 1.90618e+09 1.90678e+09 1.91148e+09 1
001 127 1 1 1.91486e+09 1.91512e+09 1.91564e+09 1.91702e+09 0
000 128 1 0 1.93395e+09 1.93421e+09 1.93473e+09 1.93571e+09 1
001 129 2 0 1.93937e+09 1.93963e+09 1.94063e+09 1.94073e+09 0
000 130 2 0 1.9485e+09 1.94875e+09 1.94976e+09 1.95072e+09 1
000 131 2 0 1.97713e+09 1.9774e+09 1.97841e+09 1.98042e+09 1
000 132 2 0 1.99735e+09 1.99762e+09 1.99862e+09 2.00088e+09 1
000 133 2 0 2.00969e+09 2.00996e+09 2.01061e+09 2.01446e+09 0
000 134 2 1 2.02246e+09 2.02273e+09 2.02341e+09 2.02579e+09 0
001 135 2 0 2.0293e+09 2.02956e+09 2.03069e+09 2.03092e+09 0
000 136 2 1 2.0469e+09 2.04717e+09 2.0483e+09 2.05147e+09 1
001 137 2 1 2.05462e+09 2.05491e+09 2.05626e+09 2.06777e+09 0
001 138 2 1 2.07068e+09 2.07094e+09 2.07157e+09 2.07256e+09 0
001 139 1 1 2.07912e+09 2.07939e+09 2.08055e+09 2.08473e+09 0
000 140 1 0 2.09676e+09 2.09702e+09 2.09819e+09 2.09986e+09 1
001 141 1 0 2.10473e+09 2.105e+09 2.10624e+09 2.11085e+09 0
001 142 1 0 2.11359e+09 2.11385e+09 2.11455e+09 2.12071e+09 0
001 143 1 0 2.12327e+09 2.12354e+09 2.12417e+09 2.12994e+09 0
001 144 2 0 2.13335e+09 2.13361e+09 2.13457e+09 2.1389e+09 0
000 145 2 0 2.15119e+09 2.15146e+09 2.15242e+09 2.15245e+09 1
000 146 2 1 2.16511e+09 2.16537e+09 2.16633e+09 2.16677e+09 1
001 147 1 1 2.1768e+09 2.17707e+09 2.17803e+09 2.17919e+09 0
000 148 1 0 2.19722e+09 2.19749e+09 2.19845e+09 2.20287e+09 1
001 149 2 0 2.20628e+09 2.20654e+09 2.20758e+09 2.20861e+09 0
000 150 2 1 2.21702e+09 2.21729e+09 2.21833e+09 2.21891e+09 1
001 151 1 0 2.22343e+09 2.22369e+09 2.22436e+09 2.22533e+09 0
001 152 1 0 2.22932e+09 2.22959e+09 2.23063e+09 2.23399e+09 0
001 153 2 0 2.23752e+09 2.23779e+09 2.23899e+09 2.24314e+09 0
000 154 2 1 2.25378e+09 2.25404e+09 2.25525e+09 2.25725e+09 1
001 155 1 0 2.26473e+09 2.265e+09 2.26638e+09 2.27276e+09 0
001 156 2 1 2.27551e+09 2.27576e+09 2.27665e+09 2.27775e+09 0
001 157 1 0 2.2812e+09 2.28146e+09 2.28275e+09 2.28409e+09 0
001 158 1 0 2.28733e+09 2.28759e+09 2.28833e+09 2.29001e+09 0
001 159 1 0 2.29308e+09 2.29334e+09 2.29423e+09 2.29772e+09 0
001 160 1 0 2.30133e+09 2.30159e+09 2.30283e+09 2.31599e+09 0
001 161 1 0 2.32014e+09 2.3204e+09 2.32127e+09 2.32306e+09 0
001 162 2 0 2.32605e+09 2.32632e+09 2.32772e+09 2.35025e+09 0
000 163 2 0 2.36398e+09 2.36424e+09 2.36564e+09 2.36587e+09 1
000 164 2 0 2.37563e+09 2.3759e+09 2.3773e+09 2.37734e+09 1
000 165 2 1 2.38794e+09 2.3882e+09 2.3896e+09 2.39238e+09 1
001 166 2 0 2.39541e+09 2.39567e+09 2.39677e+09 2.39765e+09 0
000 167 2 1 2.41121e+09 2.41148e+09 2.41258e+09 2.4166e+09 1
001 168 2 0 2.42701e+09 2.42726e+09 2.42809e+09 2.4296e+09 0
000 169 2 1 2.43871e+09 2.43896e+09 2.43979e+09 2.44018e+09 1
001 170 2 0 2.44407e+09 2.44434e+09 2.44493e+09 2.4468e+09 0
000 171 2 0 2.45543e+09 2.4557e+09 2.45629e+09 2.45843e+09 1
000 172 2 1 2.46976e+09 2.47003e+09 2.47062e+09 2.47925e+09 1
001 173 1 0 2.48306e+09 2.48331e+09 2.48471e+09 2.4848e+09 0
001 174 2 1 2.48883e+09 2.4891e+09 2.48976e+09 2.49052e+09 0
001 175 1 0 2.49486e+09 2.49514e+09 2.49635e+09 2.49671e+09 0
001 176 1 1 2.50175e+09 2.50202e+09 2.50343e+09 2.50344e+09 0
000 177 1 0 2.51257e+09 2.51285e+09 2.51426e+09 2.51452e+09 1
001 178 2 0 2.52314e+09 2.52339e+09 2.52419e+09 2.54513e+09 0
000 179 2 0 2.55231e+09 2.55258e+09 2.55338e+09 2.55635e+09 1
000 180 2 0 2.56567e+09 2.56593e+09 2.56673e+09 2.56778e+09 1
000 181 2 0 2.57754e+09 2.57781e+09 2.57861e+09 2.58048e+09 1
000 182 2 1 2.58854e+09 2.5888e+09 2.5894e+09 2.59351e+09 0
001 183 2 1 2.59837e+09 2.59863e+09 2.59921e+09 2.59989e+09 0
001 184 1 1 2.60819e+09 2.60847e+09 2.6093e+09 2.61059e+09 0
000 185 1 0 2.61962e+09 2.61988e+09 2.62071e+09 2.62431e+09 1
001 186 2 0 2.62808e+09 2.62834e+09 2.62911e+09 2.64546e+09 0
000 187 2 0 2.653e+09 2.65326e+09 2.65404e+09 2.65735e+09 1
000 188 2 0 2.66478e+09 2.66505e+09 2.66582e+09 2.68188e+09 1
000 189 2 0 2.68904e+09 2.68932e+09 2.69009e+09 2.69368e+09 1
000 190 2 0 2.70297e+09 2.70325e+09 2.70392e+09 2.70506e+09 0
000 191 2 1 2.71363e+09 2.71389e+09 2.71471e+09 2.71586e+09 0
001 192 1 0 2.73048e+09 2.73074e+09 2.73218e+09 2.73326e+09 0
001 193 2 0 2.73605e+09 2.73632e+09 2.73742e+09 2.75106e+09 0
000 194 2 0 2.75914e+09 2.75941e+09 2.76052e+09 2.76057e+09 1
000 195 2 0 2.76774e+09 2.76801e+09 2.76911e+09 2.76959e+09 1
000 196 2 1 2.77668e+09 2.77694e+09 2.77804e+09 2.78171e+09 1
001 197 1 1 2.78409e+09 2.78435e+09 2.78572e+09 2.788e+09 0
000 198 1 1 2.79506e+09 2.79532e+09 2.79669e+09 2.79714e+09 1
000 199 1 1 2.81045e+09 2.81071e+09 2.81208e+09 2.81307e+09 1
000 200 1 0 2.82295e+09 2.82322e+09 2.82459e+09 2.82818e+09 1
001 201 2 0 2.83086e+09 2.83113e+09 2.83176e+09 2.83181e+09 0
000 202 2 0 2.84079e+09 2.84105e+09 2.84168e+09 2.84407e+09 1
000 203 2 1 2.85143e+09 2.85171e+09 2.85234e+09 2.85622e+09 1
001 204 2 1 2.86119e+09 2.86145e+09 2.86277e+09 2.86765e+09 0
001 205 1 0 2.87017e+09 2.87044e+09 2.87178e+09 2.87236e+09 0
001 206 1 0 2.87641e+09 2.87667e+09 2.87739e+09 2.87752e+09 0
001 207 2 0 2.88398e+09 2.88425e+09 2.88479e+09 2.8885e+09 0
000 208 2 0 2.89722e+09 2.89748e+09 2.89802e+09 2.89972e+09 1
000 209 2 0 2.91115e+09 2.91141e+09 2.91195e+09 2.92081e+09 1
000 210 2 1 2.93154e+09 2.93181e+09 2.93235e+09 2.93629e+09 1
001 211 1 1 2.93868e+09 2.93895e+09 2.94013e+09 2.94462e+09 0
000 212 1 0 2.95171e+09 2.95198e+09 2.95316e+09 2.95717e+09 1
001 213 2 1 2.96143e+09 2.96169e+09 2.96316e+09 2.96746e+09 0
001 214 1 1 2.97e+09 2.97027e+09 2.97097e+09 2.97247e+09 0
000 215 1 0 2.98172e+09 2.98198e+09 2.98269e+09 2.98416e+09 1
001 216 2 0 2.98755e+09 2.98781e+09 2.9888e+09 2.98911e+09 0
000 217 2 1 2.99647e+09 2.99674e+09 2.99773e+09 3.00475e+09 1
001 218 1 0 3.00851e+09 3.00878e+09 3.00987e+09 3.01081e+09 0
001 219 1 1 3.02163e+09 3.02189e+09 3.02272e+09 3.02572e+09 0
000 220 1 1 3.03486e+09 3.03512e+09 3.03595e+09 3.03666e+09 1
000 221 1 0 3.04973e+09 3.04999e+09 3.05082e+09 3.05102e+09 1
001 222 1 1 3.06209e+09 3.06236e+09 3.06302e+09 3.06371e+09 0
000 223 1 0 3.07252e+09 3.07278e+09 3.07345e+09 3.07742e+09 1
001 224 2 0 3.08878e+09 3.08904e+09 3.08999e+09 3.09236e+09 0
000 225 2 0 3.09968e+09 3.09994e+09 3.10089e+09 3.10824e+09 1
000 226 2 0 3.11879e+09 3.11905e+09 3.12e+09 3.12008e+09 1
000 227 2 0 3.13058e+09 3.13084e+09 3.13179e+09 3.1327e+09 1
000 228 2 0 3.14324e+09 3.1435e+09 3.14424e+09 3.14516e+09 0
000 229 2 0 3.1523e+09 3.15257e+09 3.15335e+09 3.15491e+09 0
000 230 1 1 3.16281e+09 3.16308e+09 3.16447e+09 3.16621e+09 0
000 231 2 0 3.17788e+09 3.17814e+09 3.17866e+09 3.18287e+09 0
000 232 2 0 3.19001e+09 3.19028e+09 3.19174e+09 3.20053e+09 0
000 233 1 1 3.20783e+09 3.20809e+09 3.20922e+09 3.21051e+09 0
000 234 1 1 3.2214e+09 3.22165e+09 3.22275e+09 3.22508e+09 0
000 235 1 1 3.23356e+09 3.23383e+09 3.23512e+09 3.24563e+09 0
000 236 1 0 3.25333e+09 3.2536e+09 3.25447e+09 3.25636e+09 0
001 237 1 1 3.26072e+09 3.26098e+09 3.26164e+09 3.27322e+09 0
000 238 1 1 3.28028e+09 3.28054e+09 3.28121e+09 3.28157e+09 1
000 239 1 0 3.29326e+09 3.29353e+09 3.2942e+09 3.29424e+09 1
001 240 2 0 3.29995e+09 3.30021e+09 3.30147e+09 3.3022e+09 0
000 241 2 0 3.30942e+09 3.30968e+09 3.31095e+09 3.31374e+09 1
000 242 2 0 3.32123e+09 3.3215e+09 3.32277e+09 3.33979e+09 1
000 243 2 0 3.34719e+09 3.34745e+09 3.34872e+09 3.35756e+09 1
000 244 2 0 3.36464e+09 3.3649e+09 3.36615e+09 3.37267e+09 0
000 245 1 0 3.3802e+09 3.38046e+09 3.38151e+09 3.38233e+09 0
001 246 2 0 3.38868e+09 3.38894e+09 3.39012e+09 3.39158e+09 0
000 247 2 0 3.40202e+09 3.40228e+09 3.40345e+09 3.42933e+09 1
000 248 2 0 3.43733e+09 3.43759e+09 3.43877e+09 3.46567e+09 1
000 249 2 1 3.47297e+09 3.47324e+09 3.47441e+09 3.4767e+09 1
001 250 2 0 3.47938e+09 3.47965e+09 3.48063e+09 3.48342e+09 0
000 251 2 0 3.4908e+09 3.49106e+09 3.49205e+09 3.49369e+09 1
000 252 2 0 3.50217e+09 3.50243e+09 3.50341e+09 3.50347e+09 1
000 253 2 0 3.51101e+09 3.51127e+09 3.51226e+09 3.51233e+09 1
000 254 2 0 3.51991e+09 3.52019e+09 3.52119e+09 3.52337e+09 0
000 255 1 0 3.53815e+09 3.53841e+09 3.53893e+09 3.53935e+09 0
001 256 1 1 3.55057e+09 3.55084e+09 3.55225e+09 3.55457e+09 0
000 257 1 0 3.56229e+09 3.56255e+09 3.56396e+09 3.56553e+09 1
001 258 1 1 3.56893e+09 3.5692e+09 3.56971e+09 3.57025e+09 0
000 259 1 0 3.58691e+09 3.58718e+09 3.58768e+09 3.58891e+09 1
001 260 1 0 3.59229e+09 3.59255e+09 3.59341e+09 3.60647e+09 0
001 261 1 1 3.61636e+09 3.61662e+09 3.61731e+09 3.62149e+09 0
000 262 1 1 3.6314e+09 3.63166e+09 3.63234e+09 3.6333e+09 1
000 263 1 0 3.64077e+09 3.64103e+09 3.64172e+09 3.65132e+09 1
001 264 2 1 3.65476e+09 3.65503e+09 3.65579e+09 3.6606e+09 0
001 265 2 0 3.67255e+09 3.67281e+09 3.67348e+09 3.67449e+09 0
000 266 2 1 3.6821e+09 3.68236e+09 3.68303e+09 3.68368e+09 1
001 267 2 1 3.68902e+09 3.68928e+09 3.69029e+09 3.69151e+09 0
001 268 2 1 3.6964e+09 3.69665e+09 3.69736e+09 3.70132e+09 0
001 269 2 1 3.7062e+09 3.70646e+09 3.70739e+09 3.70805e+09 0
001 270 1 1 3.71299e+09 3.71325e+09 3.71469e+09 3.71558e+09 0
000 271 1 1 3.72344e+09 3.72371e+09 3.72515e+09 3.72629e+09 1
000 272 1 1 3.73359e+09 3.73385e+09 3.73529e+09 3.73531e+09 1
000 273 1 1 3.74708e+09 3.74734e+09 3.74878e+09 3.7488e+09 1
000 274 1 1 3.75686e+09 3.75712e+09 3.75795e+09 3.75914e+09 0
000 275 2 1 3.77e+09 3.77027e+09 3.7715e+09 3.77217e+09 0
001 276 1 1 3.77616e+09 3.77641e+09 3.77757e+09 3.78034e+09 0
000 277 1 1 3.78837e+09 3.78863e+09 3.78979e+09 3.7902e+09 1
000 278 1 1 3.79949e+09 3.79976e+09 3.80091e+09 3.80232e+09 1
000 279 1 1 3.81286e+09 3.81313e+09 3.81428e+09 3.81541e+09 1
000 280 1 1 3.82264e+09 3.8229e+09 3.82405e+09 3.82881e+09 0
000 281 2 0 3.84069e+09 3.84096e+09 3.84214e+09 3.84878e+09 0
000 282 1 1 3.85987e+09 3.86014e+09 3.86119e+09 3.86372e+09 0
000 283 2 1 3.87208e+09 3.87234e+09 3.87296e+09 3.87545e+09 0
001 284 2 1 3.8835e+09 3.88376e+09 3.88498e+09 3.88647e+09 0
001 285 1 0 3.88926e+09 3.88953e+09 3.89047e+09 3.89229e+09 0
001 286 1 1 3.89736e+09 3.89763e+09 3.89909e+09 3.9002e+09 0
000 287 1 1 3.90869e+09 3.90896e+09 3.91043e+09 3.92405e+09 1
000 288 1 1 3.93117e+09 3.93144e+09 3.9329e+09 3.93318e+09 1
000 289 1 1 3.94388e+09 3.94414e+09 3.94561e+09 3.94659e+09 1
000 290 1 1 3.95612e+09 3.95638e+09 3.95713e+09 3.96245e+09 0
000 291 2 1 3.96977e+09 3.97003e+09 3.97075e+09 3.97418e+09 0
001 292 2 1 3.97665e+09 3.97691e+09 3.97742e+09 3.9798e+09 0
001 293 2 1 3.98308e+09 3.98334e+09 3.98439e+09 3.98932e+09 0
001 294 1 1 3.99446e+09 3.99473e+09 3.99599e+09 3.99755e+09 0
000 295 1 1 4.0087e+09 4.00896e+09 4.01022e+09 4.01537e+09 1
000 296 1 1 4.02252e+09 4.02278e+09 4.02404e+09 4.02486e+09 1
000 297 1 1 4.03296e+09 4.03322e+09 4.03448e+09 4.04198e+09 1
000 298 2 0 4.04942e+09 4.04967e+09 4.05049e+09 4.0525e+09 0
000 299 1 1 4.06029e+09 4.06055e+09 4.06123e+09 4.06975e+09 0
000 300 2 1 4.07844e+09 4.0787e+09 4.07991e+09 4.08162e+09 0
001 301 1 1 4.08476e+09 4.08502e+09 4.08612e+09 4.08655e+09 0
000 302 1 1 4.09453e+09 4.09481e+09 4.09591e+09 4.09689e+09 1
000 303 1 0 4.1082e+09 4.10846e+09 4.10957e+09 4.11133e+09 1
001 304 2 1 4.11582e+09 4.11609e+09 4.11699e+09 4.1269e+09 0
001 305 1 1 4.13478e+09 4.13505e+09 4.13583e+09 4.15317e+09 0
000 306 1 1 4.16067e+09 4.16092e+09 4.16171e+09 4.1634e+09 1
000 307 1 1 4.17111e+09 4.17136e+09 4.17214e+09 4.17555e+09 1
000 308 1 0 4.18289e+09 4.18314e+09 4.18392e+09 4.18396e+09 1
001 309 1 1 4.18824e+09 4.18851e+09 4.18986e+09 4.1921e+09 0
000 310 1 0 4.20156e+09 4.20182e+09 4.20317e+09 4.20662e+09 1
001 311 2 0 4.20912e+09 4.20937e+09 4.21075e+09 4.21083e+09 0
000 312 2 0 4.21802e+09 4.21828e+09 4.21966e+09 4.22833e+09 1
000 313 2 1 4.23544e+09 4.2357e+09 4.23708e+09 4.23834e+09 1
001 314 1 0 4.2409e+09 4.24115e+09 4.24178e+09 4.25329e+09 0
001 315 2 0 4.25601e+09 4.25628e+09 4.25776e+09 4.25801e+09 0
000 316 2 0 4.26786e+09 4.26812e+09 4.2696e+09 4.27483e+09 1
000 317 2 1 4.28406e+09 4.28433e+09 4.28581e+09 4.28649e+09 1
001 318 2 0 4.2949e+09 202636 1.25048e+06 5.71066e+06 0
000 319 2 0 1.31369e+07 1.33959e+07 1.44437e+07 2.25335e+07 1
000 320 2 1 2.9694e+07 2.99493e+07 3.09971e+07 4.42226e+07 1
001 321 1 0 4.93107e+07 4.95696e+07 5.04758e+07 5.42482e+07 0
001 322 1 1 5.80874e+07 5.83566e+07 5.89534e+07 5.94854e+07 0
000 323 1 0 6.66716e+07 6.69295e+07 6.75263e+07 6.7667e+07 1
001 324 2 0 7.21255e+07 7.23938e+07 7.38183e+07 9.3708e+07 0
000 325 2 0 1.02419e+08 1.0268e+08 1.04104e+08 1.05976e+08 1
000 326 2 0 1.14198e+08 1.14464e+08 1.15889e+08 1.44248e+08 1
000 327 2 0 1.5142e+08 1.51681e+08 1.53105e+08 1.53798e+08 1
000 328 2 1 1.61085e+08 1.6135e+08 1.62015e+08 1.62933e+08 0
001 329 2 0 1.67493e+08 1.67753e+08 1.69152e+08 1.7531e+08 0
000 330 2 1 1.82453e+08 1.82714e+08 1.84113e+08 1.85459e+08 1
001 331 1 0 1.95919e+08 1.96187e+08 1.97654e+08 1.99022e+08 0
001 332 2 0 2.10497e+08 2.10761e+08 2.12203e+08 2.12541e+08 0
000 333 2 1 2.24466e+08 2.24726e+08 2.26168e+08 2.27338e+08 1
001 334 2 0 2.33658e+08 2.33924e+08 2.35246e+08 2.35502e+08 0
000 335 2 0 2.53716e+08 2.5398e+08 2.55301e+08 2.64194e+08 1
000 336 2 0 2.71875e+08 2.7213e+08 2.73451e+08 2.77007e+08 1
000 337 2 1 2.87906e+08 2.88163e+08 2.89485e+08 2.89946e+08 1
001 338 1 0 2.95168e+08 2.95431e+08 2.96376e+08 3.01991e+08 0
001 339 1 1 3.04943e+08 3.0521e+08 3.06577e+08 3.09398e+08 0
000 340 1 1 3.43056e+08 3.43321e+08 3.44688e+08 3.45145e+08 1
000 341 1 0 3.53513e+08 3.53778e+08 3.55145e+08 3.556e+08 1
001 342 2 0 3.74943e+08 3.75208e+08 3.7595e+08 3.76584e+08 0
000 343 2 1 3.88212e+08 3.88475e+08 3.89217e+08 3.89659e+08 1
001 344 1 1 3.95411e+08 3.95669e+08 3.97111e+08 4.01775e+08 0
000 345 1 1 4.10819e+08 4.11081e+08 4.12523e+08 4.14323e+08 1
000 346 1 1 4.2513e+08 4.2539e+08 4.26832e+08 4.30479e+08 1
000 347 1 1 4.39727e+08 4.39984e+08 4.41427e+08 4.41487e+08 1
000 348 2 0 4.52772e+08 4.53034e+08 4.54064e+08 4.54502e+08 0
000 349 1 0 4.67669e+08 4.67936e+08 4.68907e+08 4.69415e+08 0
001 350 1 0 4.75977e+08 4.76247e+08 4.77124e+08 4.79085e+08 0
001 351 2 0 5.06825e+08 5.07081e+08 5.07966e+08 5.12791e+08 0
000 352 2 0 5.22919e+08 5.2319e+08 5.24075e+08 5.26942e+08 1
000 353 2 0 5.36316e+08 5.36575e+08 5.3746e+08 5.37478e+08 1
000 354 2 0 5.52923e+08 5.53193e+08 5.54078e+08 5.55742e+08 1
000 355 1 1 5.65401e+08 5.65668e+08 5.67134e+08 5.6947e+08 0
000 356 1 1 5.84817e+08 5.85073e+08 5.85573e+08 5.91311e+08 0
000 357 2 1 6.02981e+08 6.03245e+08 6.04172e+08 6.08158e+08 0
001 358 1 0 6.1108e+08 6.11341e+08 6.12664e+08 6.15421e+08 0
001 359 1 1 6.26913e+08 6.2718e+08 6.28316e+08 6.28682e+08 0
000 360 1 0 6.37373e+08 6.37633e+08 6.38769e+08 6.39602e+08 1
001 361 2 1 6.61504e+08 6.61771e+08 6.62415e+08 6.63177e+08 0
001 362 1 0 6.72377e+08 6.72635e+08 6.73269e+08 6.74067e+08 0
001 363 1 1 6.96462e+08 6.96729e+08 6.98149e+08 7.00913e+08 0
000 364 1 0 7.09275e+08 7.09537e+08 7.10957e+08 7.16744e+08 1
001 365 1 0 7.31356e+08 7.31616e+08 7.3243e+08 7.39452e+08 0
001 366 1 0 7.57517e+08 7.57793e+08 7.58887e+08 7.60235e+08 0
001 367 2 1 7.75637e+08 7.75895e+08 7.7673e+08 7.76765e+08 0
001 368 1 0 7.97193e+08 7.97464e+08 7.98154e+08 7.98218e+08 0
001 369 2 0 8.09262e+08 8.09523e+08 8.10028e+08 8.1105e+08 0
000 370 2 1 8.18409e+08 8.18681e+08 8.19187e+08 8.20435e+08 1
001 371 1 1 8.45677e+08 8.45942e+08 8.46711e+08 8.46899e+08 0
000 372 1 1 8.70832e+08 8.71104e+08 8.71873e+08 8.72194e+08 1
000 373 1 1 8.93826e+08 8.94085e+08 8.94854e+08 8.9887e+08 1
000 374 1 1 9.08482e+08 9.08753e+08 9.09522e+08 9.15288e+08 1
000 375 2 1 9.26327e+08 9.26601e+08 9.28093e+08 9.28477e+08 0
001 376 2 1 9.75017e+08 9.75281e+08 9.76384e+08 9.78745e+08 0
001 377 1 0 9.89214e+08 9.89476e+08 9.90784e+08 9.93362e+08 0
001 378 2 1 1.01103e+09 1.0113e+09 1.01263e+09 1.01366e+09 0
001 379 1 0 1.02618e+09 1.02643e+09 1.02737e+09 1.02906e+09 0
001 380 2 0 1.04987e+09 1.05013e+09 1.05146e+09 1.05298e+09 0
000 381 2 0 1.06426e+09 1.06454e+09 1.06587e+09 1.06665e+09 1
000 382 2 1 1.07394e+09 1.07421e+09 1.07554e+09 1.07736e+09 1
001 383 1 1 1.08139e+09 1.08166e+09 1.08235e+09 1.08768e+09 0
000 384 1 0 1.10161e+09 1.10186e+09 1.10255e+09 1.10807e+09 1
001 385 2 0 1.11917e+09 1.11944e+09 1.12083e+09 1.13107e+09 0
000 386 2 0 1.14126e+09 1.14153e+09 1.14293e+09 1.14521e+09 1
000 387 2 1 1.15273e+09 1.15299e+09 1.15438e+09 1.15471e+09 1
001 388 2 0 1.15945e+09 1.15971e+09 1.16023e+09 1.16212e+09 0
000 389 2 1 1.16956e+09 1.16982e+09 1.17035e+09 1.1725e+09 1
001 390 1 0 1.18118e+09 1.18145e+09 1.18238e+09 1.18576e+09 0
001 391 1 1 1.20078e+09 1.20106e+09 1.20221e+09 1.20345e+09 0
000 392 1 1 1.23874e+09 1.23905e+09 1.2402e+09 1.24101e+09 1
000 393 1 0 1.24806e+09 1.24833e+09 1.24948e+09 1.25056e+09 1
001 394 2 1 1.25947e+09 1.25974e+09 1.26091e+09 1.26298e+09 0
001 395 2 0 1.28252e+09 1.28278e+09 1.28338e+09 1.28425e+09 0
000 396 2 1 1.2928e+09 1.29306e+09 1.29366e+09 1.31851e+09 1
001 397 1 0 1.33211e+09 1.33237e+09 1.33383e+09 1.33607e+09 0
001 398 1 1 1.34831e+09 1.34856e+09 1.34939e+09 1.35032e+09 0
000 399 1 0 1.37375e+09 1.37402e+09 1.37484e+09 1.37703e+09 1
001 400 1 0 1.38046e+09 1.38073e+09 1.38196e+09 1.38428e+09 0
001 401 1 0 1.38885e+09 1.38912e+09 1.39056e+09 1.39097e+09 0
001 402 2 1 1.3979e+09 1.39816e+09 1.39873e+09 1.39896e+09 0
001 403 2 0 1.40975e+09 1.41002e+09 1.41069e+09 1.41281e+09 0
000 404 2 0 1.42478e+09 1.42504e+09 1.42572e+09 1.42807e+09 1
000 405 2 0 1.43848e+09 1.43874e+09 1.43941e+09 1.43953e+09 1
000 406 2 1 1.44997e+09 1.45023e+09 1.45091e+09 1.45443e+09 1
001 407 2 1 1.45891e+09 1.45917e+09 1.46016e+09 1.46159e+09 0
001 408 1 1 1.47841e+09 1.47868e+09 1.47997e+09 1.48105e+09 0
000 409 1 1 1.49063e+09 1.4909e+09 1.4922e+09 1.49394e+09 1
000 410 1 1 1.50774e+09 1.50802e+09 1.50931e+09 1.50963e+09 1
000 411 1 1 1.51683e+09 1.5171e+09 1.51839e+09 1.51997e+09 1
000 412 2 1 1.5349e+09 1.53517e+09 1.53647e+09 1.53652e+09 0
001 413 1 1 1.54556e+09 1.54582e+09 1.54675e+09 1.55244e+09 0
000 414 1 0 1.56332e+09 1.56359e+09 1.56452e+09 1.56513e+09 1
001 415 2 1 1.57594e+09 1.5762e+09 1.5776e+09 1.57773e+09 0
001 416 2 0 1.58785e+09 1.58811e+09 1.58959e+09 1.59087e+09 0
000 417 2 0 1.60182e+09 1.60209e+09 1.60356e+09 1.60402e+09 1
000 418 2 0 1.62506e+09 1.62532e+09 1.62679e+09 1.62796e+09 1
000 419 2 1 1.63562e+09 1.63588e+09 1.63735e+09 1.65285e+09 1
001 420 2 1 1.65593e+09 1.65619e+09 1.65734e+09 1.65855e+09 0
001 421 1 1 1.672e+09 1.67227e+09 1.67353e+09 1.67355e+09 0
000 422 1 1 1.68246e+09 1.68272e+09 1.68397e+09 1.70854e+09 1
000 423 1 0 1.71771e+09 1.71797e+09 1.71923e+09 1.72126e+09 1
001 424 2 0 1.7335e+09 1.73376e+09 1.7352e+09 1.73818e+09 0
000 425 2 0 1.74846e+09 1.74871e+09 1.75015e+09 1.7515e+09 1
000 426 2 1 1.76129e+09 1.76156e+09 1.763e+09 1.76361e+09 1
001 427 2 1 1.78168e+09 1.78195e+09 1.78328e+09 1.78403e+09 0
001 428 1 0 1.79049e+09 1.79075e+09 1.79221e+09 1.79251e+09 0
001 429 2 1 1.79634e+09 1.79661e+09 1.79798e+09 1.8028e+09 0
001 430 2 1 1.80577e+09 1.80603e+09 1.80658e+09 1.80991e+09 0
001 431 1 0 1.8196e+09 1.81987e+09 1.82058e+09 1.82173e+09 0
001 432 2 1 1.82954e+09 1.82979e+09 1.83082e+09 1.83972e+09 0
001 433 1 0 1.85175e+09 1.85202e+09 1.85259e+09 1.85363e+09 0
001 434 1 1 1.85772e+09 1.85797e+09 1.85935e+09 1.86183e+09 0
000 435 1 1 1.87279e+09 1.87305e+09 1.87442e+09 1.87473e+09 1
000 436 1 1 1.88328e+09 1.88354e+09 1.88491e+09 1.88625e+09 1
000 437 1 1 1.89344e+09 1.89371e+09 1.89508e+09 1.89924e+09 1
000 438 1 0 1.90795e+09 1.90822e+09 1.9092e+09 1.91084e+09 0
001 439 1 1 1.91383e+09 1.9141e+09 1.91526e+09 1.91646e+09 0
000 440 1 0 1.92353e+09 1.9238e+09 1.92496e+09 1.93237e+09 1
001 441 1 0 1.94185e+09 1.94211e+09 1.94349e+09 1.94821e+09 0
001 442 1 1 1.95735e+09 1.95762e+09 1.95863e+09 1.96295e+09 0
000 443 1 1 1.97028e+09 1.97055e+09 1.97157e+09 1.97159e+09 1
000 444 1 1 1.97958e+09 1.97985e+09 1.98086e+09 1.9846e+09 1
000 445 1 1 1.99165e+09 1.99192e+09 1.99294e+09 1.99512e+09 1
000 446 2 1 2.00226e+09 2.00253e+09 2.00377e+09 2.01219e+09 0
001 447 2 0 2.01675e+09 2.01702e+09 2.01772e+09 2.01803e+09 0
000 448 2 1 2.02904e+09 2.02931e+09 2.03001e+09 2.03054e+09 1
001 449 1 1 2.0592e+09 2.05946e+09 2.06e+09 2.06018e+09 0
000 450 1 1 2.06725e+09 2.06751e+09 2.06806e+09 2.06857e+09 1
000 451 1 1 2.07581e+09 2.07607e+09 2.07661e+09 2.11086e+09 1
000 452 1 0 2.13057e+09 2.13084e+09 2.13138e+09 2.1314e+09 1
001 453 2 1 2.14415e+09 2.1444e+09 2.14533e+09 2.14641e+09 0
001 454 2 1 2.14959e+09 2.14987e+09 2.15056e+09 2.15185e+09 0
001 455 1 1 2.15833e+09 2.1586e+09 2.15971e+09 2.17237e+09 0
000 456 1 0 2.17948e+09 2.17974e+09 2.18085e+09 2.18262e+09 1
001 457 2 0 2.18602e+09 2.18628e+09 2.1874e+09 2.20604e+09 0
000 458 2 0 2.21349e+09 2.21375e+09 2.21487e+09 2.21741e+09 1
000 459 2 0 2.22486e+09 2.22513e+09 2.22625e+09 2.22842e+09 1
000 460 2 0 2.23581e+09 2.23608e+09 2.2372e+09 2.23763e+09 1
000 461 1 0 2.24502e+09 2.24528e+09 2.24619e+09 2.2486e+09 0
001 462 2 1 2.25196e+09 2.25223e+09 2.25331e+09 2.25337e+09 0
001 463 2 0 2.29457e+09 2.29483e+09 2.29541e+09 2.29825e+09 0
000 464 2 1 2.30551e+09 2.30577e+09 2.30635e+09 2.30769e+09 1
001 465 1 1 2.32089e+09 2.32116e+09 2.3217e+09 2.3231e+09 0
000 466 1 1 2.33027e+09 2.33054e+09 2.33108e+09 2.33302e+09 1
000 467 1 1 2.34024e+09 2.3405e+09 2.34105e+09 2.34855e+09 1
000 468 1 0 2.35711e+09 2.35737e+09 2.35792e+09 2.36087e+09 1
001 469 2 0 2.37047e+09 2.37074e+09 2.37222e+09 2.37772e+09 0
000 470 2 1 2.38688e+09 2.38714e+09 2.38862e+09 2.39654e+09 1
001 471 2 1 2.40032e+09 2.40058e+09 2.40172e+09 2.40246e+09 0
001 472 1 0 2.41913e+09 2.4194e+09 2.4206e+09 2.42107e+09 0
001 473 1 1 2.43523e+09 2.4355e+09 2.43645e+09 2.44011e+09 0
000 474 1 0 2.45678e+09 2.45704e+09 2.45799e+09 2.46001e+09 1
001 475 1 1 2.4682e+09 2.46846e+09 2.46926e+09 2.47521e+09 0
000 476 1 0 2.483e+09 2.48326e+09 2.48406e+09 2.49696e+09 1
001 477 2 1 2.50774e+09 2.50801e+09 2.50861e+09 2.50881e+09 0
001 478 1 1 2.52289e+09 2.52315e+09 2.52373e+09 2.52385e+09 0
000 479 1 0 2.53493e+09 2.53519e+09 2.53577e+09 2.53595e+09 1
001 480 1 0 2.54253e+09 2.54278e+09 2.54357e+09 2.5446e+09 0
001 481 1 1 2.5483e+09 2.54857e+09 2.5492e+09 2.5497e+09 0
000 482 1 0 2.56427e+09 2.56453e+09 2.56516e+09 2.56598e+09 1
001 483 1 0 2.57746e+09 2.57772e+09 2.5784e+09 2.58244e+09 0
001 484 1 0 2.59503e+09 2.5953e+09 2.59637e+09 2.59787e+09 0
001 485 1 1 2.60353e+09 2.60379e+09 2.6044e+09 2.60616e+09 0
000 486 1 0 2.61382e+09 2.61409e+09 2.61469e+09 2.61761e+09 1
001 487 2 0 2.62367e+09 2.62393e+09 2.62529e+09 2.62824e+09 0
000 488 2 0 2.63565e+09 2.63591e+09 2.63727e+09 2.63748e+09 1
000 489 2 0 2.64483e+09 2.64508e+09 2.64643e+09 2.64682e+09 1
000 490 2 0 2.65424e+09 2.65449e+09 2.65584e+09 2.65974e+09 1
000 491 1 1 2.66721e+09 2.66747e+09 2.66804e+09 2.66806e+09 0
000 492 2 1 2.67636e+09 2.67662e+09 2.67781e+09 2.68232e+09 0
001 493 1 0 2.69947e+09 2.69974e+09 2.7012e+09 2.70303e+09 0
001 494 1 0 2.70967e+09 2.70993e+09 2.71122e+09 2.7141e+09 0
001 495 2 1 2.71654e+09 2.7168e+09 2.71749e+09 2.72204e+09 0
001 496 1 1 2.72484e+09 2.72511e+09 2.7261e+09 2.72823e+09 0
000 497 1 0 2.73564e+09 2.7359e+09 2.73689e+09 2.74203e+09 1
001 498 2 1 2.74483e+09 2.74508e+09 2.74605e+09 2.74665e+09 0
001 499 2 0 2.75038e+09 2.75065e+09 2.75148e+09 2.75152e+09 0
000 500 2 1 2.76141e+09 2.76168e+09 2.76251e+09 2.76308e+09 1
001 501 1 0 2.76808e+09 2.76835e+09 2.7693e+09 2.77138e+09 0
001 502 1 0 2.77395e+09 2.77421e+09 2.77499e+09 2.78221e+09 0
001 503 2 1 2.78495e+09 2.78521e+09 2.78595e+09 2.79133e+09 0
001 504 2 0 2.80143e+09 2.80169e+09 2.8023e+09 2.80305e+09 0
000 505 2 1 2.81063e+09 2.81089e+09 2.8115e+09 2.82406e+09 1
001 506 1 1 2.83539e+09 2.83567e+09 2.83637e+09 2.84554e+09 0
000 507 1 0 2.85276e+09 2.85302e+09 2.85372e+09 2.85666e+09 1
001 508 1 1 2.86404e+09 2.8643e+09 2.86521e+09 2.86538e+09 0
000 509 1 1 2.87256e+09 2.87281e+09 2.87372e+09 2.87445e+09 1
000 510 1 0 2.88218e+09 2.88244e+09 2.88335e+09 2.88368e+09 1
001 511 2 0 2.88778e+09 2.88805e+09 2.88931e+09 2.89245e+09 0
000 512 2 1 2.90064e+09 2.90089e+09 2.90215e+09 2.90326e+09 1
001 513 2 1 2.90696e+09 2.90724e+09 2.9082e+09 2.90961e+09 0
001 514 2 0 2.91417e+09 2.91443e+09 2.91593e+09 2.91617e+09 0
000 515 2 0 2.92342e+09 2.92368e+09 2.92517e+09 2.92701e+09 1
000 516 2 1 2.93661e+09 2.93687e+09 2.93836e+09 2.94236e+09 1
001 517 2 1 2.9471e+09 2.94736e+09 2.94855e+09 2.95011e+09 0
001 518 2 1 2.95404e+09 2.9543e+09 2.95539e+09 2.95913e+09 0
001 519 1 1 2.9671e+09 2.96737e+09 2.96858e+09 2.96904e+09 0
000 520 1 1 2.97642e+09 2.97669e+09 2.9779e+09 2.98222e+09 1
000 521 1 0 2.98956e+09 2.98982e+09 2.99104e+09 3.01315e+09 1
001 522 2 1 3.016e+09 3.01627e+09 3.01747e+09 3.01776e+09 0
001 523 2 0 3.02632e+09 3.02658e+09 3.02801e+09 3.02988e+09 0
000 524 2 0 3.03694e+09 3.0372e+09 3.03863e+09 3.03888e+09 1
000 525 2 1 3.04605e+09 3.04631e+09 3.04774e+09 3.05397e+09 1
001 526 2 1 3.06102e+09 3.06128e+09 3.06268e+09 3.06313e+09 0
001 527 2 1 3.06677e+09 3.06702e+09 3.06827e+09 3.06854e+09 0
001 528 1 1 3.07334e+09 3.07359e+09 3.07495e+09 3.07577e+09 0
000 529 1 1 3.09156e+09 3.09184e+09 3.09319e+09 3.09319e+09 1
000 530 1 0 3.1004e+09 3.10067e+09 3.10202e+09 3.14697e+09 1
001 531 2 1 3.14945e+09 3.14971e+09 3.15047e+09 3.15193e+09 0
001 532 1 1 3.16116e+09 3.16144e+09 3.16274e+09 3.17162e+09 0
000 533 1 1 3.17877e+09 3.17904e+09 3.18035e+09 3.18199e+09 1
000 534 1 1 3.18947e+09 3.18974e+09 3.19104e+09 3.20594e+09 1
000 535 1 1 3.21328e+09 3.21354e+09 3.21485e+09 3.22521e+09 1
000 536 1 1 3.23231e+09 3.23256e+09 3.23338e+09 3.30246e+09 0
000 537 1 1 3.30975e+09 3.31001e+09 3.311e+09 3.33857e+09 0
000 538 2 1 3.34588e+09 3.34614e+09 3.34711e+09 3.38029e+09 0
001 539 2 0 3.38506e+09 3.38531e+09 3.38614e+09 3.45923e+09 0
000 540 2 0 3.46771e+09 3.46797e+09 3.4688e+09 3.47239e+09 1
000 541 2 0 3.47987e+09 3.48012e+09 3.48096e+09 3.52998e+09 1
000 542 2 0 3.53726e+09 3.53751e+09 3.53834e+09 3.54599e+09 1
000 543 2 0 3.55337e+09 3.55362e+09 3.55482e+09 3.56263e+09 0
000 544 2 1 3.56989e+09 3.57016e+09 3.57096e+09 3.59164e+09 0
001 545 1 0 3.60732e+09 3.60759e+09 3.60886e+09 3.6125e+09 0
001 546 1 1 3.61957e+09 3.61983e+09 3.6212e+09 3.64399e+09 0
000 547 1 0 3.65108e+09 3.65133e+09 3.65269e+09 3.65315e+09 1
001 548 2 0 3.65851e+09 3.65878e+09 3.66013e+09 3.74549e+09 0
000 549 2 1 3.75267e+09 3.75294e+09 3.75428e+09 3.7581e+09 1
001 550 2 1 3.76506e+09 3.76532e+09 3.76669e+09 3.77135e+09 0
001 551 1 1 3.77999e+09 3.78025e+09 3.78101e+09 3.78759e+09 0
000 552 1 1 3.79508e+09 3.79535e+09 3.79611e+09 3.8234e+09 1
000 553 1 0 3.83092e+09 3.83117e+09 3.83192e+09 3.86072e+09 1
001 554 2 1 3.86314e+09 3.8634e+09 3.86414e+09 3.88632e+09 0
001 555 2 1 3.88937e+09 3.88963e+09 3.89058e+09 3.9236e+09 0
001 556 1 0 3.92861e+09 3.92887e+09 3.93021e+09 3.93951e+09 0
001 557 1 0 3.94235e+09 3.94261e+09 3.94364e+09 3.94845e+09 0
001 558 1 1 3.95083e+09 3.95108e+09 3.95246e+09 3.96779e+09 0
000 559 1 1 3.97522e+09 3.97548e+09 3.97686e+09 4.06528e+09 1
000 560 1 1 4.07282e+09 4.07309e+09 4.07447e+09 4.08094e+09 1
000 561 1 1 4.0882e+09 4.08846e+09 4.08984e+09 4.09209e+09 1
000 