trial trialType response stillTime stimOnset stimOffset respTime correctionTrial correct
001 2 0 3.07713e+06 3.37575e+06 4.0342e+06 8.02586e+06 0
000 002 2 1 1.53293e+07 1.5593e+07 1.62514e+07 8.26861e+08 1
001 003 2 0 8.29353e+08 8.29621e+08 8.30494e+08 8.30986e+08 0
000 004 2 0 8.4143e+08 8.4169e+08 8.42563e+08 8.42645e+08 1
000 005 2 1 8.51829e+08 8.52084e+08 8.52957e+08 8.55189e+08 1
001 006 1 0 8.60796e+08 8.61065e+08 8.62285e+08 8.63905e+08 0
001 007 2 1 8.81091e+08 8.81344e+08 8.82061e+08 8.95843e+08 0
001 008 1 1 9.02448e+08 9.02702e+08 9.04026e+08 9.17191e+08 0
000 009 1 1 9.26782e+08 9.27042e+08 9.28367e+08 9.28507e+08 1
000 010 1 1 9.3866e+08 9.38912e+08 9.40236e+08 9.40466e+08 1
000 011 1 1 9.48151e+08 9.48406e+08 9.4973e+08 9.52094e+08 1
000 012 1 1 9.59546e+08 9.59805e+08 9.6115e+08 9.64796e+08 0
000 013 2 1 9.75015e+08 9.75278e+08 9.76757e+08 9.77529e+08 0
001 014 2 1 9.80477e+08 9.80735e+08 9.81809e+08 9.81867e+08 0
001 015 1 1 9.974e+08 9.97673e+08 9.98953e+08 1.00356e+09 0
000 016 1 1 1.01187e+09 1.01214e+09 1.01342e+09 1.01365e+09 1
000 017 1 1 1.03154e+09 1.03181e+09 1.03309e+09 1.03678e+09 1
000 018 1 1 1.04406e+09 1.04432e+09 1.0456e+09 1.06874e+09 1
000 019 2 1 1.07616e+09 1.07642e+09 1.07792e+09 1.08761e+09 0
001 020 2 1 1.09265e+09 1.09291e+09 1.09419e+09 1.11278e+09 0
001 021 2 1 1.11953e+09 1.1198e+09 1.12047e+09 1.13358e+09 0
001 022 2 0 1.14194e+09 1.1422e+09 1.1428e+09 1.15094e+09 0
000 023 2 1 1.16355e+09 1.1638e+09 1.1644e+09 1.16483e+09 1
001 024 1 1 1.17558e+09 1.17584e+09 1.177e+09 1.17705e+09 0
000 025 1 0 1.1906e+09 1.19086e+09 1.19202e+09 1.19244e+09 1
001 026 2 1 1.20118e+09 1.20145e+09 1.20196e+09 1.21351e+09 0
001 027 2 0 1.2269e+09 1.22717e+09 1.22824e+09 1.23216e+09 0
000 028 2 0 1.23952e+09 1.23977e+09 1.24085e+09 1.24099e+09 1
000 029 2 1 1.24866e+09 1.24891e+09 1.24999e+09 1.26219e+09 1
001 030 2 0 1.26913e+09 1.26939e+09 1.27062e+09 1.27244e+09 0
000 031 2 1 1.28046e+09 1.28072e+09 1.28195e+09 1.28197e+09 1
001 032 2 1 1.31385e+09 1.31412e+09 1.31483e+09 1.31824e+09 0
001 033 1 1 1.32384e+09 1.32411e+09 1.32554e+09 1.32573e+09 0
000 034 1 1 1.3404e+09 1.34066e+09 1.34209e+09 1.34554e+09 1
000 035 1 0 1.35702e+09 1.35727e+09 1.3587e+09 1.37892e+09 1
001 036 1 1 1.38755e+09 1.3878e+09 1.38893e+09 1.4039e+09 0
000 037 1 1 1.41874e+09 1.419e+09 1.42014e+09 1.42063e+09 1
000 038 1 1 1.42973e+09 1.42999e+09 1.43112e+09 1.43147e+09 1
000 039 1 1 1.43938e+09 1.43963e+09 1.44076e+09 1.46815e+09 1
000 040 2 1 1.48581e+09 1.48607e+09 1.48695e+09 1.48801e+09 0
001 041 2 1 1.49182e+09 1.49208e+09 1.49319e+09 1.51611e+09 0
001 042 1 1 1.52117e+09 1.52143e+09 1.52272e+09 1.52787e+09 0
000 043 1 0 1.5353e+09 1.53556e+09 1.53684e+09 1.53923e+09 1
001 044 2 1 1.54924e+09 1.5495e+09 1.5501e+09 1.55035e+09 0
001 045 1 1 1.56592e+09 1.56618e+09 1.56756e+09 1.57631e+09 0
000 046 1 0 1.58361e+09 1.58387e+09 1.58524e+09 1.58557e+09 1
001 047 2 1 1.5912e+09 1.59145e+09 1.59247e+09 1.59554e+09 0
001 048 1 1 1.59954e+09 1.59979e+09 1.60116e+09 1.60321e+09 0
000 049 1 1 1.61371e+09 1.61396e+09 1.61533e+09 1.61844e+09 1
000 050 1 1 1.63045e+09 1.63071e+09 1.63208e+09 1.63222e+09 1
000 051 1 0 1.63928e+09 1.63953e+09 1.6409e+09 1.67244e+09 1
001 052 1 1 1.67541e+09 1.67567e+09 1.67708e+09 1.6774e+09 0
000 053 1 1 1.68687e+09 1.68712e+09 1.68853e+09 1.69766e+09 1
000 054 1 1 1.71178e+09 1.71203e+09 1.71344e+09 1.71784e+09 1
000 055 1 0 1.72782e+09 1.72807e+09 1.72948e+09 1.72977e+09 1
001 056 2 1 1.74106e+09 1.74131e+09 1.74279e+09 1.74643e+09 0
001 057 2 1 1.75019e+09 1.75046e+09 1.75148e+09 1.75551e+09 0
001 058 1 1 1.75887e+09 1.75913e+09 1.75997e+09 1.7644e+09 0
000 059 1 0 1.77191e+09 1.77218e+09 1.77302e+09 1.77342e+09 1
001 060 1 0 1.79381e+09 1.79407e+09 1.79466e+09 1.79501e+09 0
001 061 2 1 1.80406e+09 1.80433e+09 1.80565e+09 1.80922e+09 0
001 062 1 0 1.81996e+09 1.82022e+09 1.82096e+09 1.82125e+09 0
001 063 1 0 1.82543e+09 1.82569e+09 1.82691e+09 1.82723e+09 0
001 064 2 1 1.83187e+09 1.83213e+09 1.8327e+09 1.84321e+09 0
001 065 1 0 1.84822e+09 1.84849e+09 1.84936e+09 1.85598e+09 0
001 066 1 0 1.87655e+09 1.8768e+09 1.87794e+09 1.8885e+09 0
001 067 2 1 1.89932e+09 1.89958e+09 1.90088e+09 1.93284e+09 0
001 068 2 0 1.94951e+09 1.94978e+09 1.95092e+09 1.96989e+09 0
000 069 2 0 1.97717e+09 1.97744e+09 1.97858e+09 1.98535e+09 1
000 070 2 1 1.99782e+09 1.99809e+09 1.99922e+09 2.00488e+09 1
001 071 2 0 2.01552e+09 2.01579e+09 2.01631e+09 2.02208e+09 0
000 072 2 0 2.02961e+09 2.02987e+09 2.03039e+09 2.03534e+09 1
000 073 2 1 2.04252e+09 2.04278e+09 2.0433e+09 2.04975e+09 1
001 074 2 1 2.05208e+09 2.05234e+09 2.05336e+09 2.06401e+09 0
001 075 2 0 2.07282e+09 2.07308e+09 2.07426e+09 2.07492e+09 0
000 076 2 0 2.08487e+09 2.08512e+09 2.08631e+09 2.10072e+09 1
000 077 2 0 2.10952e+09 2.10977e+09 2.11096e+09 2.11259e+09 1
000 078 2 0 2.11968e+09 2.11994e+09 2.12112e+09 2.12488e+09 1
000 079 1 0 2.13238e+09 2.13264e+09 2.13388e+09 2.14139e+09 0
001 080 1 1 2.15306e+09 2.15332e+09 2.1539e+09 2.17485e+09 0
000 081 1 1 2.18201e+09 2.18226e+09 2.18283e+09 2.30067e+09 1
000 082 1 1 2.30781e+09 2.30807e+09 2.30865e+09 2.31233e+09 1
000 083 1 1 2.31951e+09 2.31977e+09 2.32034e+09 2.32994e+09 1
000 084 2 1 2.33702e+09 2.33728e+09 2.33806e+09 2.3385e+09 0
001 085 1 0 2.34463e+09 2.34489e+09 2.34626e+09 2.34667e+09 0
001 086 1 1 2.3572e+09 2.35746e+09 2.35896e+09 2.36275e+09 0
000 087 1 1 2.37017e+09 2.37043e+09 2.37193e+09 2.3777e+09 1
000 088 1 1 2.38747e+09 2.38773e+09 2.38922e+09 2.39151e+09 1
000 089 1 1 2.399e+09 2.39926e+09 2.40076e+09 2.40283e+09 1
000 090 1 0 2.41383e+09 2.41408e+09 2.41505e+09 2.41717e+09 0
001 091 2 1 2.42996e+09 2.43021e+09 2.43166e+09 2.4561e+09 0
001 092 2 1 2.46069e+09 2.46097e+09 2.4615e+09 2.466e+09 0
001 093 2 0 2.48425e+09 2.48451e+09 2.48591e+09 2.48622e+09 0
000 094 2 0 2.4967e+09 2.49696e+09 2.49836e+09 2.54475e+09 1
000 095 2 1 2.55205e+09 2.5523e+09 2.55371e+09 2.55467e+09 1
001 096 1 1 2.5581e+09 2.55835e+09 2.55888e+09 2.56183e+09 0
000 097 1 1 2.57253e+09 2.57278e+09 2.57331e+09 2.578e+09 1
000 098 1 1 2.58663e+09 2.58689e+09 2.58742e+09 2.60687e+09 1
000 099 1 1 2.61876e+09 2.61902e+09 2.61955e+09 2.61983e+09 1
000 100 1 1 2.63143e+09 2.63169e+09 2.63247e+09 2.63357e+09 0
000 101 1 1 2.6422e+09 2.64245e+09 2.64347e+09 2.65156e+09 0
000 102 2 1 2.65904e+09 2.6593e+09 2.66021e+09 2.69726e+09 0
001 103 1 1 2.70118e+09 2.70144e+09 2.70282e+09 2.71478e+09 0
000 104 1 0 2.72756e+09 2.72781e+09 2.7292e+09 2.74218e+09 1
001 105 1 0 2.74519e+09 2.74544e+09 2.74631e+09 2.7539e+09 0
001 106 1 1 2.76034e+09 2.76061e+09 2.76153e+09 2.762e+09 0
000 107 1 1 2.77214e+09 2.7724e+09 2.77333e+09 2.7943e+09 1
000 108 1 1 2.80175e+09 2.802e+09 2.80293e+09 2.82863e+09 1
000 109 1 1 2.83829e+09 2.83855e+09 2.83947e+09 2.8398e+09 1
000 110 1 1 2.84895e+09 2.84922e+09 2.85014e+09 2.85726e+09 0
000 111 1 1 2.86588e+09 2.86619e+09 2.8667e+09 2.87099e+09 0
000 112 1 1 2.87978e+09 2.88004e+09 2.88098e+09 2.88548e+09 0
000 113 2 1 2.89281e+09 2.89307e+09 2.89372e+09 2.89922e+09 0
001 114 2 1 2.9108e+09 2.91107e+09 2.91207e+09 2.91535e+09 0
001 115 1 1 2.92072e+09 2.92099e+09 2.9218e+09 2.92579e+09 0
000 116 1 1 2.93457e+09 2.93483e+09 2.93564e+09 2.93586e+09 1
000 117 1 1 2.94397e+09 2.94423e+09 2.94504e+09 2.94702e+09 1
000 118 1 1 2.96438e+09 2.96464e+09 2.96545e+09 2.97028e+09 1
000 119 1 0 2.97783e+09 2.97808e+09 2.97873e+09 3.06369e+09 0
001 120 2 0 3.06763e+09 3.06789e+09 3.06907e+09 3.08081e+09 0
000 121 2 1 3.08812e+09 3.08838e+09 3.08957e+09 3.18176e+09 1
001 122 1 1 3.18414e+09 3.18441e+09 3.18581e+09 3.28698e+09 0
000 123 1 1 3.29559e+09 3.29585e+09 3.29725e+09 3.30872e+09 1
000 124 1 1 3.31577e+09 3.31604e+09 3.31744e+09 3.33054e+09 1
000 125 1 1 3.33798e+09 3.33824e+09 3.33965e+09 3.34927e+09 1
000 126 1 1 3.35713e+09 3.3574e+09 3.3584e+09 3.35864e+09 0
000 127 2 1 3.36671e+09 3.36696e+09 3.36787e+09 3.36826e+09 0
001 128 2 0 3.38101e+09 3.38126e+09 3.38227e+09 3.38456e+09 0
000 129 2 1 3.39316e+09 3.39342e+09 3.39442e+09 3.40809e+09 1
001 130 2 1 3.41086e+09 3.41112e+09 3.41169e+09 3.41263e+09 0
001 131 1 0 3.43277e+09 3.43303e+09 3.43415e+09 3.44589e+09 0
001 132 1 1 3.44923e+09 3.44949e+09 3.45086e+09 3.45128e+09 0
000 133 1 1 3.45929e+09 3.45955e+09 3.46093e+09 3.4833e+09 1
000 134 1 1 3.49071e+09 3.49097e+09 3.49234e+09 3.49254e+09 1
000 135 1 1 3.50124e+09 3.5015e+09 3.50288e+09 3.50398e+09 1
000 136 1 1 3.5137e+09 3.51397e+09 3.51482e+09 3.52298e+09 0
000 137 1 0 3.53026e+09 3.53052e+09 3.5312e+09 3.56636e+09 0
001 138 1 1 3.5752e+09 3.57547e+09 3.57648e+09 3.60431e+09 0
000 139 1 1 3.61154e+09 3.6118e+09 3.61281e+09 3.63404e+09 1
000 140 1 0 3.64526e+09 3.64551e+09 3.64652e+09 3.66347e+09 1
001 141 2 0 3.67024e+09 3.6705e+09 3.67164e+09 3.67213e+09 0
000 142 2 0 3.68478e+09 3.68504e+09 3.68618e+09 3.68725e+09 1
000 143 2 1 3.69454e+09 3.6948e+09 3.69594e+09 3.70262e+09 1
001 144 2 1 3.70581e+09 3.70608e+09 3.70692e+09 3.71639e+09 0
001 145 1 1 3.72375e+09 3.72402e+09 3.7254e+09 3.73364e+09 0
000 146 1 0 3.74215e+09 3.7424e+09 3.74378e+09 3.74513e+09 1
001 147 2 0 3.74796e+09 3.74821e+09 3.74927e+09 3.7496e+09 0
000 148 2 1 3.76022e+09 3.76049e+09 3.76154e+09 3.76668e+09 1
001 149 2 1 3.76995e+09 3.77021e+09 3.77081e+09 3.77425e+09 0
001 150 2 1 3.77702e+09 3.77728e+09 3.77802e+09 3.78067e+09 0
001 151 1 1 3.79208e+09 3.79234e+09 3.79366e+09 3.79631e+09 0
000 152 1 1 3.80347e+09 3.80372e+09 3.80504e+09 3.81669e+09 1
000 153 1 1 3.82436e+09 3.82463e+09 3.82595e+09 3.83765e+09 1
000 154 1 1 3.85218e+09 3.85245e+09 3.85377e+09 3.85407e+09 1
000 155 1 1 3.86211e+09 3.86236e+09 3.86375e+09 3.87238e+09 0
000 156 1 1 3.88239e+09 3.88265e+09 3.88351e+09 3.88704e+09 0
000 157 1 1 3.8973e+09 3.89757e+09 3.89841e+09 3.90029e+09 0
000 158 1 1 3.90959e+09 3.90984e+09 3.91126e+09 3.93141e+09 0
000 159 2 0 3.93889e+09 3.93915e+09 3.94004e+09 3.94034e+09 0
000 160 1 1 3.94917e+09 3.94944e+09 3.95076e+09 3.95692e+09 0
000 161 2 1 3.96693e+09 3.96719e+09 3.96799e+09 4.00538e+09 0
001 162 1 0 4.00772e+09 4.00797e+09 4.00909e+09 4.01871e+09 0
001 163 1 0 4.02209e+09 4.02234e+09 4.02377e+09 4.02924e+09 0
001 164 2 1 4.03832e+09 4.03859e+09 4.03936e+09 4.04001e+09 0
001 165 2 1 4.04549e+09 4.04576e+09 4.04693e+09 4.04927e+09 0
001 166 2 1 4.05552e+09 4.05579e+09 4.05652e+09 4.06168e+09 0
001 167 2 1 4.06456e+09 4.06483e+09 4.06611e+09 4.08495e+09 0
001 168 2 1 4.08775e+09 4.08801e+09 4.08883e+09 4.11859e+09 0
001 169 2 0 4.12846e+09 4.12873e+09 4.13001e+09 4.13073e+09 0
000 170 2 1 4.14009e+09 4.14035e+09 4.14164e+09 4.14205e+09 1
001 171 1 0 4.14895e+09 4.14921e+09 4.14975e+09 4.15013e+09 0
001 172 1 0 4.158e+09 4.15826e+09 4.15901e+09 4.1593e+09 0
001 173 1 0 4.17594e+09 4.17621e+09 4.17716e+09 4.17748e+09 0
001 174 1 0 4.18171e+09 4.18196e+09 4.18321e+09 4.18662e+09 0
001 175 2 1 4.19791e+09 4.19817e+09 4.19907e+09 4.20396e+09 0
001 176 1 1 4.20929e+09 4.20955e+09 4.21067e+09 4.21878e+09 0
000 177 1 0 4.22605e+09 4.2263e+09 4.22743e+09 4.22773e+09 1
001 178 2 1 4.23154e+09 4.23181e+09 4.23287e+09 4.23589e+09 0
001 179 1 0 4.24171e+09 4.24197e+09 4.24259e+09 4.24297e+09 0
001 180 1 1 4.25469e+09 4.25496e+09 4.25633e+09 4.26804e+09 0
000 181 1 1 4.28256e+09 4.28281e+09 4.28419e+09 4.28449e+09 1
000 182 1 1 4.29306e+09 4.29332e+09 4.29469e+09 8.32679e+06 1
000 183 1 1 1.56631e+07 1.59302e+07 1.7307e+07 3.40124e+07 1
000 184 2 1 4.25984e+07 4.28607e+07 4.35441e+07 5.491e+07 0
001 185 1 0 5.80926e+07 5.83493e+07 5.9596e+07 6.09157e+07 0
001 186 1 1 6.76557e+07 6.79184e+07 6.89066e+07 7.32731e+07 0
000 187 1 1 8.27351e+07 8.29861e+07 8.39744e+07 9.28239e+07 1
000 188 1 1 1.02314e+08 1.02586e+08 1.03574e+08 1.09735e+08 1
000 189 1 1 1.18743e+08 1.19007e+08 1.19996e+08 1.34856e+08 1
000 190 2 0 1.44628e+08 1.44891e+08 1.45751e+08 1.47702e+08 0
000 191 2 1 1.55081e+08 1.55344e+08 1.56834e+08 1.60108e+08 0
001 192 2 0 1.73618e+08 1.73878e+08 1.7441e+08 1.74843e+08 0
000 193 2 0 1.84764e+08 1.85017e+08 1.85549e+08 1.85872e+08 1
000 194 2 0 1.9578e+08 1.96045e+08 1.96577e+08 1.96818e+08 1
000 195 2 0 2.05472e+08 2.05737e+08 2.06269e+08 2.07931e+08 1
000 196 2 0 2.15054e+08 2.15319e+08 2.16049e+08 2.1751e+08 0
000 197 1 0 2.2697e+08 2.27223e+08 2.28617e+08 2.30534e+08 0
001 198 1 0 2.37538e+08 2.37789e+08 2.38594e+08 2.38967e+08 0
001 199 1 0 2.89252e+08 2.89508e+08 2.90356e+08 2.90675e+08 0
001 200 2 0 2.98592e+08 2.98854e+08 2.99525e+08 2.9979e+08 0
000 201 2 1 3.15631e+08 3.15935e+08 3.16605e+08 3.24376e+08 1
001 202 1 1 3.72763e+08 3.7302e+08 3.74344e+08 3.74635e+08 0
000 203 1 0 4.12501e+08 4.12757e+08 4.1408e+08 4.14593e+08 1
001 204 1 1 4.76012e+08 4.76277e+08 4.77394e+08 4.83814e+08 0
000 205 1 1 4.92869e+08 4.93132e+08 4.9425e+08 5.03559e+08 1
000 206 1 0 5.15422e+08 5.15687e+08 5.16804e+08 5.1851e+08 1
001 207 1 0 5.48843e+08 5.49102e+08 5.5054e+08 5.59514e+08 0
001 208 2 0 5.61868e+08 5.62134e+08 5.63358e+08 5.68106e+08 0
000 209 2 1 5.79598e+08 5.79853e+08 5.81076e+08 5.8403e+08 1
001 210 1 0 5.8675e+08 5.87009e+08 5.87772e+08 5.9298e+08 0
001 211 1 0 5.98536e+08 5.98793e+08 5.99766e+08 6.02419e+08 0
001 212 2 1 6.04793e+08 6.05043e+08 6.06372e+08 6.18387e+08 0
001 213 1 0 6.39199e+08 6.39468e+08 6.40516e+08 6.48857e+08 0
001 214 1 1 6.65183e+08 6.65434e+08 6.66824e+08 6.68563e+08 0
000 215 1 1 6.78011e+08 6.78273e+08 6.79663e+08 6.81826e+08 1
000 216 1 1 6.93959e+08 6.9422e+08 6.9561e+08 6.95772e+08 1
000 217 1 1 7.17313e+08 7.17573e+08 7.18963e+08 7.19264e+08 1
000 218 2 0 7.29468e+08 7.29727e+08 7.30375e+08 7.31927e+08 0
000 219 2 1 7.39455e+08 7.39712e+08 7.40372e+08 7.49866e+08 0
001 220 2 1 7.75078e+08 7.75373e+08 7.76399e+08 7.77883e+08 0
001 221 2 0 8.07823e+08 8.08079e+08 8.08663e+08 8.08927e+08 0
000 222 2 1 8.24465e+08 8.24718e+08 8.25301e+08 8.40192e+08 1
001 223 2 1 8.50915e+08 8.51177e+08 8.52339e+08 8.64966e+08 0
001 224 2 0 8.71131e+08 8.7139e+08 8.72051e+08 8.76543e+08 0
000 225 2 0 8.84874e+08 8.85133e+08 8.85795e+08 8.97017e+08 1
000 226 2 1 9.04494e+08 9.04766e+08 9.05428e+08 9.05723e+08 1
001 227 2 0 9.13375e+08 9.13635e+08 9.15066e+08 9.26107e+08 0
000 228 2 1 9.37025e+08 9.37283e+08 9.38714e+08 9.39378e+08 1
001 229 2 0 9.42706e+08 9.4296e+08 9.44289e+08 9.46724e+08 0
000 230 2 0 9.63194e+08 9.63448e+08 9.64776e+08 9.66327e+08 1
000 231 2 1 9.84822e+08 9.85085e+08 9.86414e+08 9.86709e+08 1
001 232 1 0 1.00994e+09 1.01019e+09 1.01122e+09 1.0115e+09 0
001 233 2 0 1.02678e+09 1.02704e+09 1.02785e+09 1.03147e+09 0
000 234 2 0 1.04536e+09 1.04562e+09 1.04643e+09 1.04689e+09 1
000 235 2 0 1.05495e+09 1.0552e+09 1.05602e+09 1.05875e+09 1
000 236 2 1 1.07209e+09 1.07236e+09 1.07317e+09 1.07773e+09 1
001 237 2 0 1.11294e+09 1.1132e+09 1.11401e+09 1.11426e+09 0
000 238 2 0 1.1279e+09 1.12816e+09 1.12897e+09 1.12937e+09 1
000 239 2 1 1.13906e+09 1.13933e+09 1.14014e+09 1.145e+09 1
001 240 2 1 1.17408e+09 1.17434e+09 1.17524e+09 1.17552e+09 0
001 241 2 0 1.18712e+09 1.18739e+09 1.18862e+09 1.19626e+09 0
000 242 2 1 1.20951e+09 1.20977e+09 1.211e+09 1.21122e+09 1
001 243 1 1 1.21756e+09 1.21782e+09 1.21921e+09 1.21941e+09 0
000 244 1 1 1.22971e+09 1.22997e+09 1.23136e+09 1.23364e+09 1
000 245 1 0 1.24381e+09 1.24407e+09 1.24545e+09 1.24584e+09 1
001 246 1 0 1.24961e+09 1.24987e+09 1.25077e+09 1.25111e+09 0
001 247 1 0 1.26203e+09 1.2623e+09 1.26303e+09 1.26336e+09 0
001 248 2 0 1.27065e+09 1.27091e+09 1.27165e+09 1.27191e+09 0
000 249 2 1 1.28046e+09 1.28071e+09 1.28145e+09 1.29293e+09 1
001 250 2 0 1.29565e+09 1.2959e+09 1.2965e+09 1.29699e+09 0
000 251 2 1 1.31348e+09 1.31375e+09 1.31434e+09 1.31973e+09 1
001 252 2 0 1.33289e+09 1.33315e+09 1.33459e+09 1.33534e+09 0
000 253 2 1 1.34467e+09 1.34493e+09 1.34638e+09 1.35513e+09 1
001 254 2 0 1.36186e+09 1.36211e+09 1.36351e+09 1.36393e+09 0
000 255 2 0 1.37512e+09 1.37538e+09 1.37678e+09 1.37714e+09 1
000 256 2 1 1.39746e+09 1.39772e+09 1.39913e+09 1.39956e+09 1
001 257 1 0 1.40367e+09 1.40392e+09 1.40451e+09 1.40482e+09 0
001 258 1 1 1.42352e+09 1.42377e+09 1.42472e+09 1.43372e+09 0
000 259 1 1 1.44081e+09 1.44107e+09 1.44202e+09 1.44261e+09 1
000 260 1 0 1.44967e+09 1.44993e+09 1.45087e+09 1.45822e+09 1
001 261 1 1 1.46527e+09 1.46552e+09 1.46614e+09 1.47992e+09 0
000 262 1 1 1.50396e+09 1.50422e+09 1.50484e+09 1.50512e+09 1
000 263 1 1 1.51219e+09 1.51246e+09 1.51308e+09 1.51372e+09 1
000 264 1 1 1.52094e+09 1.5212e+09 1.52183e+09 1.58813e+09 1
000 265 1 1 1.59564e+09 1.5959e+09 1.59666e+09 1.5972e+09 0
000 266 1 1 1.6045e+09 1.60477e+09 1.60563e+09 1.64101e+09 0
000 267 1 0 1.64814e+09 1.6484e+09 1.64974e+09 1.65911e+09 0
001 268 2 1 1.66384e+09 1.6641e+09 1.66556e+09 1.67012e+09 0
001 269 1 1 1.6727e+09 1.67305e+09 1.67371e+09 1.67413e+09 0
000 270 1 1 1.68246e+09 1.68273e+09 1.68339e+09 1.68889e+09 1
000 271 1 1 1.69626e+09 1.69652e+09 1.69718e+09 1.70469e+09 1
000 272 1 1 1.71202e+09 1.71229e+09 1.71295e+09 1.72381e+09 1
000 273 2 1 1.73318e+09 1.73343e+09 1.7348e+09 1.76984e+09 0
001 274 2 0 1.78191e+09 1.78218e+09 1.78296e+09 1.78326e+09 0
000 275 2 1 1.80246e+09 1.80273e+09 1.80351e+09 1.81855e+09 1
001 276 1 0 1.84879e+09 1.84906e+09 1.84959e+09 1.84993e+09 0
001 277 2 1 1.85951e+09 1.85977e+09 1.86069e+09 1.86353e+09 0
001 278 1 0 1.87908e+09 1.87935e+09 1.88083e+09 1.88104e+09 0
001 279 2 1 1.88545e+09 1.88571e+09 1.88713e+09 1.89125e+09 0
001 280 1 1 1.89373e+09 1.89398e+09 1.89488e+09 1.89983e+09 0
000 281 1 1 1.91689e+09 1.91714e+09 1.91804e+09 1.91828e+09 1
000 282 1 1 1.92864e+09 1.92889e+09 1.92979e+09 1.93008e+09 1
000 283 1 1 1.93944e+09 1.93969e+09 1.94059e+09 1.94073e+09 1
000 284 1 1 1.94811e+09 1.94836e+09 1.94906e+09 1.94928e+09 0
000 285 2 0 1.95671e+09 1.95698e+09 1.95774e+09 1.98225e+09 0
000 286 1 1 1.9897e+09 1.98996e+09 1.99126e+09 1.99144e+09 0
000 287 1 0 2.00395e+09 2.0042e+09 2.00498e+09 2.00604e+09 0
001 288 2 1 2.0236e+09 2.02387e+09 2.02468e+09 2.02513e+09 0
001 289 2 1 2.0427e+09 2.04296e+09 2.04408e+09 2.04433e+09 0
001 290 1 1 2.05276e+09 2.05302e+09 2.05384e+09 2.05397e+09 0
000 291 1 1 2.06349e+09 2.06375e+09 2.06457e+09 2.06486e+09 1
000 292 1 1 2.07267e+09 2.07293e+09 2.07375e+09 2.07394e+09 1
000 293 1 1 2.08231e+09 2.08257e+09 2.08339e+09 2.08365e+09 1
000 294 2 1 2.09255e+09 2.09282e+09 2.09379e+09 2.09416e+09 0
001 295 2 1 2.10402e+09 2.10427e+09 2.10548e+09 2.11712e+09 0
001 296 1 1 2.11957e+09 2.11983e+09 2.12066e+09 2.12363e+09 0
000 297 1 0 2.13644e+09 2.13671e+09 2.13754e+09 2.13777e+09 1
001 298 2 1 2.1446e+09 2.14487e+09 2.14608e+09 2.15306e+09 0
001 299 2 1 2.15738e+09 2.15764e+09 2.15879e+09 2.15914e+09 0
001 300 1 1 2.1637e+09 2.16396e+09 2.16528e+09 2.17e+09 0
000 301 1 0 2.17894e+09 2.1792e+09 2.18052e+09 2.1809e+09 1
001 302 1 0 2.1923e+09 2.19256e+09 2.19382e+09 2.19404e+09 0
001 303 2 0 2.20733e+09 2.20759e+09 2.20901e+09 2.20924e+09 0
000 304 2 0 2.23448e+09 2.23474e+09 2.23616e+09 2.23682e+09 1
000 305 2 1 2.24869e+09 2.24896e+09 2.25038e+09 2.25115e+09 1
001 306 1 1 2.25609e+09 2.25635e+09 2.25746e+09 2.26235e+09 0
000 307 1 1 2.27945e+09 2.2797e+09 2.28081e+09 2.28564e+09 1
000 308 1 1 2.29425e+09 2.29451e+09 2.29562e+09 2.30037e+09 1
000 309 1 1 2.3083e+09 2.30857e+09 2.30968e+09 2.31049e+09 1
000 310 2 1 2.3244e+09 2.32465e+09 2.32525e+09 2.38213e+09 0
001 311 1 0 2.38665e+09 2.3869e+09 2.38803e+09 2.39106e+09 0
001 312 2 0 2.39353e+09 2.39378e+09 2.39499e+09 2.39542e+09 0
000 313 2 1 2.40618e+09 2.40643e+09 2.40764e+09 2.41436e+09 1
001 314 1 1 2.41677e+09 2.41703e+09 2.41794e+09 2.43657e+09 0
000 315 1 1 2.44776e+09 2.44802e+09 2.44893e+09 2.44946e+09 1
000 316 1 1 2.46709e+09 2.46735e+09 2.46826e+09 2.51835e+09 1
000 317 1 1 2.526e+09 2.52626e+09 2.52717e+09 2.52742e+09 1
000 318 2 1 2.54082e+09 2.54107e+09 2.54213e+09 2.54855e+09 0
001 319 1 1 2.56015e+09 2.56042e+09 2.56111e+09 2.56871e+09 0
000 320 1 1 2.57704e+09 2.57729e+09 2.57799e+09 2.59476e+09 1
000 321 1 1 2.60223e+09 2.6025e+09 2.6032e+09 2.60702e+09 1
000 322 1 1 2.61431e+09 2.61457e+09 2.61527e+09 2.63039e+09 1
000 323 2 0 2.6376e+09 2.63787e+09 2.63848e+09 2.65327e+09 0
000 324 1 1 2.66043e+09 2.66068e+09 2.66159e+09 2.67821e+09 0
000 325 2 1 2.68632e+09 2.68658e+09 2.68741e+09 2.70169e+09 0
001 326 2 1 2.70573e+09 2.70601e+09 2.70704e+09 2.76586e+09 0
001 327 1 0 2.77111e+09 2.77137e+09 2.77218e+09 2.77247e+09 0
001 328 2 0 2.77985e+09 2.78011e+09 2.7816e+09 2.78207e+09 0
000 329 2 1 2.78914e+09 2.7894e+09 2.79089e+09 2.80083e+09 1
001 330 1 0 2.80332e+09 2.80358e+09 2.80477e+09 2.80491e+09 0
001 331 1 0 2.81222e+09 2.81249e+09 2.81398e+09 2.81417e+09 0
001 332 2 0 2.82825e+09 2.82852e+09 2.82938e+09 2.85411e+09 0
000 333 2 1 2.86799e+09 2.86826e+09 2.86912e+09 2.86991e+09 1
001 334 2 0 2.88502e+09 2.88527e+09 2.8862e+09 2.88688e+09 0
000 335 2 1 2.89713e+09 2.89738e+09 2.89831e+09 2.90476e+09 1
001 336 1 1 2.92084e+09 2.9211e+09 2.92183e+09 2.92189e+09 0
000 337 1 0 2.92955e+09 2.9298e+09 2.93052e+09 2.93074e+09 1
001 338 2 0 2.9505e+09 2.95075e+09 2.95224e+09 2.95846e+09 0
000 339 2 1 2.96834e+09 2.9686e+09 2.97008e+09 2.97244e+09 1
001 340 1 0 2.98887e+09 2.98914e+09 2.98998e+09 2.99038e+09 0
001 341 2 1 3.00696e+09 3.00721e+09 3.00831e+09 3.01129e+09 0
001 342 1 0 3.03033e+09 3.03059e+09 3.03126e+09 3.03145e+09 0
001 343 2 0 3.05983e+09 3.06008e+09 3.06081e+09 3.06128e+09 0
000 344 2 0 3.06837e+09 3.06864e+09 3.06937e+09 3.06992e+09 1
000 345 2 0 3.07707e+09 3.07735e+09 3.07807e+09 3.07854e+09 1
000 346 2 0 3.08864e+09 3.0889e+09 3.08962e+09 3.09018e+09 1
000 347 2 1 3.09942e+09 3.09968e+09 3.10035e+09 3.10572e+09 0
001 348 1 0 3.11332e+09 3.11359e+09 3.11485e+09 3.11512e+09 0
001 349 1 0 3.12757e+09 3.12783e+09 3.12919e+09 3.12952e+09 0
001 350 1 0 3.15552e+09 3.15577e+09 3.15653e+09 3.15686e+09 0
001 351 1 1 3.16975e+09 3.17002e+09 3.17138e+09 3.17233e+09 0
000 352 1 0 3.18403e+09 3.1843e+09 3.18566e+09 3.18581e+09 1
001 353 1 0 3.19463e+09 3.19489e+09 3.19624e+09 3.19654e+09 0
001 354 2 1 3.21062e+09 3.21089e+09 3.21165e+09 3.22441e+09 0
001 355 1 0 3.23088e+09 3.23114e+09 3.23188e+09 3.23204e+09 0
001 356 2 0 3.24655e+09 3.24682e+09 3.24822e+09 3.26248e+09 0
000 357 2 1 3.2772e+09 3.27746e+09 3.27887e+09 3.28631e+09 1
001 358 2 1 3.28874e+09 3.289e+09 3.28979e+09 3.30483e+09 0
001 359 2 0 3.30864e+09 3.3089e+09 3.30979e+09 3.31452e+09 0
000 360 2 1 3.32253e+09 3.32283e+09 3.32373e+09 3.32425e+09 1
001 361 1 0 3.32981e+09 3.33006e+09 3.33125e+09 3.33157e+09 0
001 362 2 1 3.3393e+09 3.33956e+09 3.34022e+09 3.35079e+09 0
001 363 2 1 3.35897e+09 3.35923e+09 3.35989e+09 3.36926e+09 0
001 364 1 1 3.38664e+09 3.38689e+09 3.38812e+09 3.38838e+09 0
000 365 1 1 3.40388e+09 3.40415e+09 3.40538e+09 3.4156e+09 1
000 366 1 0 3.42469e+09 3.42494e+09 3.42617e+09 3.51006e+09 1
001 367 2 0 3.51619e+09 3.51645e+09 3.51772e+09 3.51799e+09 0
000 368 2 1 3.5273e+09 3.52755e+09 3.52882e+09 3.55189e+09 1
001 369 1 0 3.55541e+09 3.55566e+09 3.5566e+09 3.55689e+09 0
001 370 2 1 3.57079e+09 3.57105e+09 3.57194e+09 3.57218e+09 0
001 371 1 0 3.58042e+09 3.58067e+09 3.58131e+09 3.58165e+09 0
001 372 2 0 3.58799e+09 3.58825e+09 3.58968e+09 3.58991e+09 0
000 373 2 1 3.60296e+09 3.60321e+09 3.60464e+09 3.60639e+09 1
001 374 2 0 3.60913e+09 3.60939e+09 3.61083e+09 3.6167e+09 0
000 375 2 1 3.62803e+09 3.62828e+09 3.62972e+09 3.63003e+09 1
001 376 1 1 3.64432e+09 3.64459e+09 3.64593e+09 3.64619e+09 0
000 377 1 1 3.65364e+09 3.65391e+09 3.65524e+09 3.65547e+09 1
000 378 1 1 3.66294e+09 3.6632e+09 3.66454e+09 3.66484e+09 1
000 379 1 1 3.67303e+09 3.6733e+09 3.67463e+09 3.67488e+09 1
000 380 1 1 3.68698e+09 3.68724e+09 3.68815e+09 3.68846e+09 0
000 381 1 1 3.6969e+09 3.69716e+09 3.69826e+09 3.70112e+09 0
000 382 2 1 3.7086e+09 3.70886e+09 3.7102e+09 3.72638e+09 0
001 383 2 1 3.73275e+09 3.73301e+09 3.73431e+09 3.74526e+09 0
001 384 1 1 3.75319e+09 3.75345e+09 3.75399e+09 3.75424e+09 0
000 385 1 1 3.76381e+09 3.76407e+09 3.76461e+09 3.77068e+09 1
000 386 1 1 3.78707e+09 3.78734e+09 3.78788e+09 3.79224e+09 1
000 387 1 1 3.8031e+09 3.80336e+09 3.8039e+09 3.8119e+09 1
000 388 1 1 3.81917e+09 3.81943e+09 3.82085e+09 3.84016e+09 0
000 389 2 1 3.84765e+09 3.84791e+09 3.84883e+09 3.87643e+09 0
001 390 2 1 3.87962e+09 3.87987e+09 3.88101e+09 3.89471e+09 0
001 391 1 0 3.90146e+09 3.90173e+09 3.90237e+09 3.90264e+09 0
001 392 2 0 3.91047e+09 3.91072e+09 3.9119e+09 3.91237e+09 0
000 393 2 1 3.91982e+09 3.92007e+09 3.92125e+09 3.92178e+09 1
001 394 1 0 3.93018e+09 3.93044e+09 3.93114e+09 3.93268e+09 0
001 395 2 0 3.94717e+09 3.94742e+09 3.94887e+09 3.94911e+09 0
000 396 2 0 3.95869e+09 3.95895e+09 3.9604e+09 3.96474e+09 1
000 397 2 1 3.97238e+09 3.97264e+09 3.97408e+09 3.97437e+09 1
001 398 1 1 3.9899e+09 3.99016e+09 3.99161e+09 3.99202e+09 0
000 399 1 1 4.00212e+09 4.00239e+09 4.00384e+09 4.00411e+09 1
000 400 1 1 4.0123e+09 4.01256e+09 4.01401e+09 4.01437e+09 1
000 401 1 1 4.02147e+09 4.02173e+09 4.02318e+09 4.03032e+09 1
000 402 1 1 4.03744e+09 4.0377e+09 4.03841e+09 4.06825e+09 0
000 403 1 1 4.07558e+09 4.07583e+09 4.07711e+09 4.15881e+09 0
000 404 2 1 4.16616e+09 4.16643e+09 4.16703e+09 4.20295e+09 0
001 405 2 1 4.20776e+09 4.20801e+09 4.20896e+09 4.22158e+09 0
001 406 1 1 4.22431e+09 4.22456e+09 4.22559e+09 4.23185e+09 0
000 407 1 1 4.2394e+09 4.23966e+09 4.24069e+09 369496 1
000 408 1 1 9.44232e+06 9.68964e+06 1.07156e+07 5.89929e+07 1
000 409 1 1 6.60879e+07 6.63387e+07 6.73646e+07 8.3534e+07 1
000 410 1 1 9.0837e+07 9.10968e+07 9.22705e+07 1.43223e+08 0
000 411 2 1 1.5128e+08 1.51536e+08 1.53017e+08 1.56839e+08 0
001 412 2 1 1.60494e+08 1.60754e+08 1.61446e+08 1.61784e+08 0
001 413 1 1 1.69733e+08 1.6999e+08 1.71431e+08 1.71624e+08 0
000 414 1 1 1.78993e+08 1.79253e+08 1.80694e+08 1.89889e+08 1
000 415 1 1 1.97185e+08 1.97454e+08 1.98895e+08 2.38405e+08 1
000 416 1 1 2.45748e+08 2.46002e+08 2.47443e+08 2.48996e+08 1
000 417 1 1 2.56301e+08 2.56555e+08 2.58029e+08 2.70365e+08 0
000 418 2 1 2.77569e+08 2.77831e+08 2.79268e+08 3.15685e+08 0
001 419 1 1 3.22845e+08 3.23101e+08 3.2431e+08 3.24734e+08 0
000 420 1 1 3.319e+08 3.32151e+08 3.3336e+08 3.5356e+08 1
000 421 1 1 3.6085e+08 3.61107e+08 3.62316e+08 3.91853e+08 1
000 422 1 1 4.00839e+08 4.01089e+08 4.02299e+08 4.11938e+08 1
000 423 2 1 4.26051e+08 4.26302e+08 4.27482e+08 4.39392e+08 0
001 424 1 1 4.5005e+08 4.50311e+08 4.5106e+08 4.51157e+08 0
000 425 1 1 4.62713e+08 4.62969e+08 4.63718e+08 4.79736e+08 1
000 426 1 1 4.86844e+08 4.87094e+08 4.87843e+08 5.06967e+08 1
000 427 1 0 5.14107e+08 5.14363e+08 5.15112e+08 5.20567e+08 1
001 428 2 1 5.23694e+08 5.23951e+08 5.25374e+08 5.25938e+08 0
001 429 2 1 5.29464e+08 5.29715e+08 5.31008e+08 5.46744e+08 0
001 430 1 0 5.491e+08 5.49371e+08 5.50119e+08 5.51593e+08 0
001 431 1 0 5.55931e+08 5.56193e+08 5.57527e+08 5.57769e+08 0
001 432 1 1 5.66565e+08 5.66814e+08 5.68207e+08 5.72543e+08 0
000 433 1 1 5.7979e+08 5.8005e+08 5.81443e+08 5.98596e+08 1
000 434 1 1 6.0624e+08 6.06498e+08 6.07891e+08 6.18395e+08 1
000 435 1 1 6.25871e+08 6.26135e+08 6.27528e+08 6.3268e+08 1
000 436 2 0 6.41726e+08 6.41991e+08 6.42793e+08 6.69649e+08 0
000 437 2 0 6.7793e+08 6.78186e+08 6.78694e+08 7.46423e+08 0
000 438 2 0 7.56762e+08 7.57022e+08 7.58073e+08 8.19365e+08 0
000 439 2 1 8.27845e+08 8.28098e+08 8.29259e+08 8.29491e+08 0
001 440 1 1 8.36591e+08 8.36857e+08 8.38114e+08 8.38579e+08 0
000 441 1 1 8.45639e+08 8.45904e+08 8.47161e+08 8.50694e+08 1
000 442 1 0 8.58019e+08 8.58269e+08 8.59526e+08 8.95368e+08 1
001 443 1 1 9.02527e+08 9.02788e+08 9.03742e+08 9.04001e+08 0
000 444 1 0 9.12313e+08 9.12584e+08 9.13539e+08 9.205e+08 1
001 445 1 1 9.22852e+08 9.23104e+08 9.23843e+08 9.65756e+08 0
000 446 1 1 9.72856e+08 9.73111e+08 9.7385e+08 9.84384e+08 1
000 447 1 0 9.91763e+08 9.92029e+08 9.92768e+08 1.00682e+09 1
001 448 2 1 1.01051e+09 1.01076e+09 1.01181e+09 1.01248e+09 0
001 449 1 1 1.01765e+09 1.01791e+09 1.01865e+09 1.01884e+09 0
000 450 1 1 1.02614e+09 1.0264e+09 1.02714e+09 1.03404e+09 1
000 