trial trialType response stillTime stimOnset stimOffset respTime correctionTrial correct
001 2 1 3.0925e+06 3.37973e+06 4.39868e+06 1.56383e+07 0
001 002 1 0 1.82477e+07 1.85142e+07 1.95331e+07 4.09729e+08 0
001 003 1 1 4.17715e+08 4.17976e+08 4.18995e+08 4.18998e+08 0
000 004 1 0 4.2776e+08 4.28016e+08 4.29035e+08 4.29243e+08 1
001 005 1 1 4.41738e+08 4.41982e+08 4.43001e+08 4.43004e+08 0
000 006 1 1 4.55461e+08 4.55715e+08 4.56734e+08 4.57095e+08 1
000 007 1 1 4.6418e+08 4.64435e+08 4.65454e+08 4.65649e+08 1
000 008 1 1 4.73053e+08 4.73302e+08 4.74321e+08 4.74869e+08 1
000 009 2 1 4.89152e+08 4.89403e+08 4.90422e+08 4.92017e+08 0
001 010 2 0 5.10199e+08 5.10459e+08 5.11478e+08 5.11711e+08 0
000 011 2 0 5.22333e+08 5.22585e+08 5.23604e+08 5.23841e+08 1
000 012 2 1 5.38689e+08 5.38947e+08 5.39966e+08 5.40003e+08 1
001 013 1 1 5.43548e+08 5.43805e+08 5.44824e+08 5.44924e+08 0
000 014 1 1 5.53987e+08 5.54239e+08 5.55258e+08 5.55725e+08 1
000 015 1 1 5.76579e+08 5.7683e+08 5.77849e+08 5.79196e+08 1
000 016 1 0 5.88916e+08 5.89166e+08 5.90184e+08 5.93063e+08 1
001 017 1 0 6.32392e+08 6.32653e+08 6.33672e+08 6.3432e+08 0
001 018 1 0 6.44242e+08 6.44502e+08 6.45521e+08 6.46386e+08 0
001 019 2 1 6.50526e+08 6.50777e+08 6.51796e+08 6.54189e+08 0
001 020 1 1 6.57248e+08 6.57504e+08 6.58523e+08 6.59168e+08 0
000 021 1 1 6.77931e+08 6.78196e+08 6.79215e+08 6.82518e+08 1
000 022 1 0 6.9106e+08 6.91327e+08 6.92346e+08 6.95834e+08 1
001 023 2 1 6.98637e+08 6.98897e+08 6.99916e+08 7.01212e+08 0
001 024 1 0 7.03738e+08 7.03997e+08 7.05015e+08 7.06008e+08 0
001 025 2 0 7.08404e+08 7.08668e+08 7.09687e+08 7.13281e+08 0
000 026 2 1 7.46368e+08 7.46626e+08 7.47645e+08 7.47658e+08 1
001 027 1 1 7.5273e+08 7.52992e+08 7.54011e+08 7.5549e+08 0
000 028 1 0 7.62801e+08 7.63059e+08 7.64078e+08 7.66364e+08 1
001 029 2 1 7.83005e+08 7.83266e+08 7.84285e+08 7.85352e+08 0
001 030 1 1 7.88455e+08 7.88711e+08 7.8973e+08 7.91724e+08 0
000 031 1 0 7.99718e+08 7.9997e+08 8.00989e+08 8.02449e+08 1
001 032 2 1 8.1145e+08 8.11702e+08 8.12721e+08 8.14836e+08 0
001 033 2 1 8.174e+08 8.17662e+08 8.18681e+08 8.2071e+08 0
001 034 2 1 8.23684e+08 8.23941e+08 8.2496e+08 8.2574e+08 0
001 035 1 1 8.55258e+08 8.55519e+08 8.56538e+08 8.56775e+08 0
000 036 1 0 8.65558e+08 8.658e+08 8.66819e+08 8.67978e+08 1
001 037 1 0 8.70828e+08 8.71084e+08 8.72103e+08 8.72993e+08 0
001 038 1 0 8.75868e+08 8.76125e+08 8.77144e+08 8.77898e+08 0
001 039 2 1 8.80348e+08 8.80605e+08 8.81624e+08 8.83161e+08 0
001 040 1 0 9.08288e+08 9.08543e+08 9.09562e+08 9.0997e+08 0
001 041 2 0 9.13018e+08 9.13273e+08 9.14292e+08 9.1516e+08 0
000 042 2 0 9.34353e+08 9.34609e+08 9.35628e+08 9.36322e+08 1
000 043 2 0 9.5733e+08 9.57582e+08 9.58601e+08 9.59071e+08 1
000 044 2 0 9.72228e+08 9.72484e+08 9.73503e+08 9.74902e+08 1
000 045 1 0 9.84234e+08 9.84495e+08 9.85514e+08 9.86078e+08 0
001 046 1 0 9.88705e+08 9.88955e+08 9.89974e+08 9.91202e+08 0
001 047 1 1 9.93811e+08 9.94068e+08 9.95087e+08 9.96489e+08 0
000 048 1 0 1.01424e+09 1.0145e+09 1.01552e+09 1.0163e+09 1
001 049 2 1 1.01945e+09 1.0197e+09 1.02072e+09 1.02117e+09 0
001 050 2 0 1.02775e+09 1.02801e+09 1.02902e+09 1.04287e+09 0
000 051 2 0 1.07383e+09 1.07409e+09 1.07511e+09 1.07659e+09 1
000 052 2 0 1.08521e+09 1.08546e+09 1.08648e+09 1.08674e+09 1
000 053 2 0 1.09404e+09 1.0943e+09 1.09532e+09 1.09713e+09 1
000 054 2 0 1.10466e+09 1.10493e+09 1.10595e+09 1.10636e+09 0
000 055 2 0 1.11485e+09 1.1151e+09 1.11612e+09 1.11916e+09 0
000 056 1 0 1.13946e+09 1.13971e+09 1.14073e+09 1.1418e+09 0
001 057 1 0 1.16167e+09 1.16192e+09 1.16294e+09 1.16326e+09 0
001 058 2 0 1.18249e+09 1.18275e+09 1.18376e+09 1.1848e+09 0
000 059 2 0 1.19231e+09 1.19257e+09 1.19359e+09 1.19463e+09 1
000 060 2 0 1.20305e+09 1.20331e+09 1.20433e+09 1.20522e+09 1
000 061 2 1 1.21375e+09 1.214e+09 1.21502e+09 1.21518e+09 1
001 062 1 0 1.21908e+09 1.21933e+09 1.22035e+09 1.22048e+09 0
001 063 1 0 1.22296e+09 1.22322e+09 1.22423e+09 1.22466e+09 0
001 064 2 1 1.23354e+09 1.23379e+09 1.23481e+09 1.23783e+09 0
001 065 2 0 1.26534e+09 1.2656e+09 1.26662e+09 1.26787e+09 0
000 066 2 0 1.27794e+09 1.27819e+09 1.27921e+09 1.27965e+09 1
000 067 2 1 1.29446e+09 1.2947e+09 1.29572e+09 1.29584e+09 1
001 068 2 1 1.30843e+09 1.30868e+09 1.3097e+09 1.31151e+09 0
001 069 1 0 1.32094e+09 1.3212e+09 1.32222e+09 1.32286e+09 0
001 070 1 1 1.34845e+09 1.34871e+09 1.34973e+09 1.34975e+09 0
000 071 1 1 1.3611e+09 1.36136e+09 1.36238e+09 1.36245e+09 1
000 072 1 0 1.37271e+09 1.37296e+09 1.37398e+09 1.3768e+09 1
001 073 1 1 1.38854e+09 1.38881e+09 1.38983e+09 1.39219e+09 0
000 074 1 0 1.40151e+09 1.40176e+09 1.40278e+09 1.40441e+09 1
001 075 2 1 1.40806e+09 1.40833e+09 1.40935e+09 1.40997e+09 0
001 076 1 1 1.41354e+09 1.41379e+09 1.41481e+09 1.41538e+09 0
000 077 1 1 1.4253e+09 1.42555e+09 1.42657e+09 1.42657e+09 1
000 078 1 0 1.43867e+09 1.43892e+09 1.43994e+09 1.44151e+09 1
001 079 2 0 1.44966e+09 1.44992e+09 1.45094e+09 1.45128e+09 0
000 080 2 1 1.46074e+09 1.46101e+09 1.46203e+09 1.46207e+09 1
001 081 1 0 1.46694e+09 1.46719e+09 1.46821e+09 1.46945e+09 0
001 082 1 0 1.51656e+09 1.51682e+09 1.51784e+09 1.51947e+09 0
001 083 2 0 1.53574e+09 1.536e+09 1.53702e+09 1.54095e+09 0
000 084 2 0 1.54933e+09 1.54958e+09 1.5506e+09 1.55143e+09 1
000 085 2 0 1.56312e+09 1.56337e+09 1.56438e+09 1.56601e+09 1
000 086 2 0 1.58415e+09 1.5844e+09 1.58542e+09 1.58546e+09 1
000 087 2 0 1.59417e+09 1.59443e+09 1.59545e+09 1.59628e+09 0
000 088 1 1 1.60377e+09 1.60403e+09 1.60505e+09 1.60816e+09 0
000 089 2 1 1.61614e+09 1.61639e+09 1.61741e+09 1.62255e+09 0
001 090 1 1 1.63747e+09 1.63773e+09 1.63875e+09 1.63885e+09 0
000 091 1 0 1.64671e+09 1.64697e+09 1.64798e+09 1.64931e+09 1
001 092 2 0 1.65269e+09 1.65296e+09 1.65398e+09 1.65434e+09 0
000 093 2 0 1.67577e+09 1.67602e+09 1.67704e+09 1.67839e+09 1
000 094 2 0 1.68878e+09 1.68903e+09 1.69005e+09 1.69226e+09 1
000 095 2 0 1.69953e+09 1.6998e+09 1.70081e+09 1.70319e+09 1
000 096 2 0 1.71138e+09 1.71162e+09 1.71264e+09 1.71379e+09 0
000 097 2 1 1.72551e+09 1.72577e+09 1.72679e+09 1.72776e+09 0
001 098 1 1 1.73149e+09 1.73174e+09 1.73276e+09 1.73409e+09 0
000 099 1 0 1.74361e+09 1.74386e+09 1.74488e+09 1.74542e+09 1
001 100 1 0 1.77145e+09 1.77171e+09 1.77273e+09 1.7728e+09 0
001 101 2 1 1.77627e+09 1.77653e+09 1.77755e+09 1.77798e+09 0
001 102 2 0 1.79316e+09 1.79342e+09 1.79444e+09 1.79552e+09 0
000 103 2 0 1.82277e+09 1.82302e+09 1.82404e+09 1.82746e+09 1
000 104 2 1 1.83721e+09 1.83746e+09 1.83848e+09 1.83928e+09 1
001 105 2 1 1.86842e+09 1.86867e+09 1.86969e+09 1.87017e+09 0
001 106 2 1 1.914e+09 1.91427e+09 1.91529e+09 1.91589e+09 0
001 107 2 0 1.93185e+09 1.93211e+09 1.93313e+09 1.93533e+09 0
000 108 2 0 1.94478e+09 1.94504e+09 1.94606e+09 1.94649e+09 1
000 109 2 0 1.9638e+09 1.96406e+09 1.96508e+09 1.96535e+09 1
000 110 2 0 1.98886e+09 1.98911e+09 1.99013e+09 1.99033e+09 1
000 111 2 1 1.99752e+09 1.99779e+09 1.99881e+09 1.99884e+09 0
001 112 1 0 2.00771e+09 2.00796e+09 2.00898e+09 2.00998e+09 0
001 113 1 1 2.01483e+09 2.01509e+09 2.01611e+09 2.02351e+09 0
000 114 1 0 2.0319e+09 2.03216e+09 2.03318e+09 2.03381e+09 1
001 115 2 0 2.04156e+09 2.04181e+09 2.04283e+09 2.04487e+09 0
000 116 2 0 2.05985e+09 2.06011e+09 2.06113e+09 2.06199e+09 1
000 117 2 0 2.07129e+09 2.07154e+09 2.07256e+09 2.07332e+09 1
000 118 2 0 2.08768e+09 2.08793e+09 2.08895e+09 2.09101e+09 1
000 119 1 0 2.10657e+09 2.10682e+09 2.10784e+09 2.11788e+09 0
001 120 1 1 2.13263e+09 2.13288e+09 2.1339e+09 2.13415e+09 0
000 121 1 0 2.14422e+09 2.14448e+09 2.1455e+09 2.15175e+09 1
001 122 1 0 2.1771e+09 2.17737e+09 2.17839e+09 2.18001e+09 0
001 123 1 1 2.18283e+09 2.18309e+09 2.18411e+09 2.1842e+09 0
000 124 1 0 2.20441e+09 2.20467e+09 2.20569e+09 2.20778e+09 1
001 125 2 1 2.23265e+09 2.2329e+09 2.23392e+09 2.23407e+09 0
001 126 2 1 2.23759e+09 2.23785e+09 2.23887e+09 2.2426e+09 0
001 127 1 1 2.24679e+09 2.24704e+09 2.24806e+09 2.25343e+09 0
000 128 1 0 2.26408e+09 2.26433e+09 2.26535e+09 2.26604e+09 1
001 129 2 1 2.27501e+09 2.27527e+09 2.27629e+09 2.27754e+09 0
001 130 2 1 2.28092e+09 2.28117e+09 2.28219e+09 2.28319e+09 0
001 131 2 1 2.28604e+09 2.2863e+09 2.28732e+09 2.28825e+09 0
001 132 1 1 2.291e+09 2.29126e+09 2.29228e+09 2.30011e+09 0
000 133 1 1 2.31443e+09 2.31469e+09 2.31571e+09 2.31728e+09 1
000 134 1 0 2.33229e+09 2.33254e+09 2.33356e+09 2.33459e+09 1
001 135 1 1 2.33873e+09 2.33898e+09 2.34e+09 2.34192e+09 0
000 136 1 0 2.376e+09 2.37625e+09 2.37727e+09 2.38053e+09 1
001 137 2 0 2.39793e+09 2.39818e+09 2.3992e+09 2.39977e+09 0
000 138 2 1 2.41448e+09 2.41474e+09 2.41575e+09 2.42411e+09 1
001 139 2 1 2.43338e+09 2.43363e+09 2.43465e+09 2.43648e+09 0
001 140 2 1 2.44273e+09 2.44298e+09 2.444e+09 2.44532e+09 0
001 141 1 1 2.45591e+09 2.45617e+09 2.45718e+09 2.45725e+09 0
000 142 1 0 2.46461e+09 2.46488e+09 2.46589e+09 2.46736e+09 1
001 143 1 1 2.46999e+09 2.47026e+09 2.47127e+09 2.47263e+09 0
000 144 1 1 2.48071e+09 2.48098e+09 2.482e+09 2.48219e+09 1
000 145 1 0 2.49106e+09 2.49132e+09 2.49234e+09 2.49316e+09 1
001 146 1 1 2.50415e+09 2.50441e+09 2.50543e+09 2.50713e+09 0
000 147 1 0 2.51923e+09 2.51947e+09 2.52049e+09 2.52129e+09 1
001 148 1 0 2.55045e+09 2.55071e+09 2.55173e+09 2.55733e+09 0
001 149 1 0 2.56727e+09 2.56753e+09 2.56855e+09 2.57186e+09 0
001 150 1 1 2.58349e+09 2.58374e+09 2.58476e+09 2.58516e+09 0
000 151 1 0 2.60807e+09 2.60833e+09 2.60935e+09 2.61324e+09 1
001 152 1 1 2.61573e+09 2.61598e+09 2.617e+09 2.61849e+09 0
000 153 1 0 2.62998e+09 2.63024e+09 2.63126e+09 2.63306e+09 1
001 154 2 0 2.65836e+09 2.65861e+09 2.65963e+09 2.66002e+09 0
000 155 2 0 2.68625e+09 2.6865e+09 2.68752e+09 2.68864e+09 1
000 156 2 0 2.69999e+09 2.70025e+09 2.70127e+09 2.70236e+09 1
000 157 2 0 2.7171e+09 2.71735e+09 2.71837e+09 2.71895e+09 1
000 158 2 0 2.72788e+09 2.72814e+09 2.72916e+09 2.73361e+09 0
000 159 2 1 2.74112e+09 2.74137e+09 2.74238e+09 2.74247e+09 0
001 160 2 0 2.75471e+09 2.75496e+09 2.75598e+09 2.75689e+09 0
000 161 2 1 2.79508e+09 2.79533e+09 2.79635e+09 2.79641e+09 1
001 162 1 0 2.7988e+09 2.79907e+09 2.80008e+09 2.80085e+09 0
001 163 2 0 2.80355e+09 2.8038e+09 2.80482e+09 2.80494e+09 0
000 164 2 1 2.81868e+09 2.81894e+09 2.81995e+09 2.82019e+09 1
001 165 2 1 2.8244e+09 2.82466e+09 2.82567e+09 2.82706e+09 0
001 166 1 1 2.83079e+09 2.83104e+09 2.83206e+09 2.8335e+09 0
000 167 1 1 2.84323e+09 2.84348e+09 2.8445e+09 2.84485e+09 1
000 168 1 0 2.85232e+09 2.85257e+09 2.85359e+09 2.85536e+09 1
001 169 1 1 2.85812e+09 2.85837e+09 2.85939e+09 2.85947e+09 0
000 170 1 0 2.86713e+09 2.86738e+09 2.8684e+09 2.86907e+09 1
001 171 2 0 2.88084e+09 2.8811e+09 2.88212e+09 2.88238e+09 0
000 172 2 0 2.89912e+09 2.89937e+09 2.90039e+09 2.90341e+09 1
000 173 2 0 2.91203e+09 2.91229e+09 2.91331e+09 2.91414e+09 1
000 174 2 0 2.92201e+09 2.92226e+09 2.92328e+09 2.92733e+09 1
000 175 2 0 2.93476e+09 2.935e+09 2.93602e+09 2.94296e+09 0
000 176 2 0 2.96024e+09 2.9605e+09 2.96152e+09 2.96184e+09 0
000 177 2 1 2.97196e+09 2.97223e+09 2.97325e+09 2.9736e+09 0
001 178 1 0 2.99382e+09 2.99408e+09 2.9951e+09 2.99798e+09 0
001 179 2 1 3.01421e+09 3.01447e+09 3.01549e+09 3.01636e+09 0
001 180 2 1 3.0375e+09 3.03776e+09 3.03878e+09 3.03881e+09 0
001 181 2 1 3.06536e+09 3.06561e+09 3.06663e+09 3.06695e+09 0
001 182 1 0 3.08478e+09 3.08504e+09 3.08606e+09 3.08625e+09 0
001 183 2 0 3.10702e+09 3.10728e+09 3.1083e+09 3.1128e+09 0
000 184 2 1 3.12186e+09 3.12211e+09 3.12313e+09 3.12356e+09 1
001 185 2 1 3.14478e+09 3.14503e+09 3.14605e+09 3.14773e+09 0
001 186 2 1 3.20215e+09 3.20241e+09 3.20343e+09 3.20403e+09 0
001 187 2 0 3.22743e+09 3.22768e+09 3.2287e+09 3.22951e+09 0
000 188 2 0 3.24432e+09 3.24458e+09 3.2456e+09 3.24937e+09 1
000 189 2 0 3.25916e+09 3.25942e+09 3.26044e+09 3.26207e+09 1
000 190 2 0 3.27665e+09 3.27691e+09 3.27793e+09 3.28212e+09 1
000 191 1 0 3.29584e+09 3.2961e+09 3.29712e+09 3.29846e+09 0
001 192 2 1 3.30392e+09 3.30418e+09 3.30519e+09 3.30567e+09 0
001 193 1 0 3.31726e+09 3.31752e+09 3.31853e+09 3.32612e+09 0
001 194 2 1 3.32925e+09 3.3295e+09 3.33052e+09 3.33095e+09 0
001 195 2 0 3.34546e+09 3.34571e+09 3.34673e+09 3.34939e+09 0
000 196 2 1 3.35645e+09 3.35671e+09 3.35773e+09 3.35902e+09 1
001 197 1 1 3.3758e+09 3.37605e+09 3.37707e+09 3.37707e+09 0
000 198 1 1 3.38659e+09 3.38685e+09 3.38786e+09 3.3884e+09 1
000 199 1 0 3.39887e+09 3.39913e+09 3.40015e+09 3.40525e+09 1
001 200 1 0 3.41799e+09 3.41825e+09 3.41927e+09 3.42089e+09 0
001 201 2 1 3.42353e+09 3.42378e+09 3.4248e+09 3.42733e+09 0
001 202 2 1 3.43238e+09 3.43263e+09 3.43365e+09 3.43777e+09 0
001 203 2 0 3.44212e+09 3.44237e+09 3.44339e+09 3.44378e+09 0
000 204 2 1 3.4575e+09 3.45775e+09 3.45877e+09 3.46005e+09 1
001 205 2 0 3.46685e+09 3.46711e+09 3.46813e+09 3.46832e+09 0
000 206 2 0 3.47776e+09 3.47802e+09 3.47904e+09 3.48244e+09 1
000 207 2 0 3.48996e+09 3.49022e+09 3.49124e+09 3.49418e+09 1
000 208 2 1 3.50521e+09 3.50547e+09 3.50649e+09 3.5129e+09 1
001 209 1 1 3.51785e+09 3.5181e+09 3.51912e+09 3.51942e+09 0
000 210 1 0 3.53172e+09 3.53197e+09 3.53299e+09 3.53364e+09 1
001 211 1 0 3.53627e+09 3.53651e+09 3.53753e+09 3.54332e+09 0
001 212 2 0 3.54575e+09 3.546e+09 3.54702e+09 3.54995e+09 0
000 213 2 1 3.55731e+09 3.55756e+09 3.55858e+09 3.56725e+09 1
001 214 1 1 3.57858e+09 3.57884e+09 3.57985e+09 3.58141e+09 0
000 215 1 0 3.60268e+09 3.60294e+09 3.60396e+09 3.60412e+09 1
001 216 1 0 3.60742e+09 3.60768e+09 3.60869e+09 3.60874e+09 0
001 217 1 1 3.61306e+09 3.61331e+09 3.61433e+09 3.61826e+09 0
000 218 1 1 3.63354e+09 3.63379e+09 3.63481e+09 3.63591e+09 1
000 219 1 1 3.64553e+09 3.64578e+09 3.6468e+09 3.64928e+09 1
000 220 1 1 3.657e+09 3.65727e+09 3.65829e+09 3.66011e+09 1
000 221 1 0 3.66754e+09 3.66779e+09 3.66881e+09 3.73485e+09 0
001 222 2 1 3.73815e+09 3.73841e+09 3.73943e+09 3.7404e+09 0
001 223 1 0 3.74446e+09 3.74473e+09 3.74575e+09 3.75935e+09 0
001 224 2 0 3.76365e+09 3.7639e+09 3.76492e+09 3.77703e+09 0
000 225 2 0 3.78432e+09 3.78457e+09 3.78559e+09 3.82169e+09 1
000 226 2 0 3.83004e+09 3.8303e+09 3.83131e+09 3.84879e+09 1
000 227 2 0 3.85619e+09 3.85646e+09 3.85747e+09 3.85846e+09 1
000 228 2 0 3.86664e+09 3.86689e+09 3.86791e+09 3.87369e+09 0
000 229 1 1 3.88083e+09 3.88109e+09 3.88211e+09 4.0673e+09 0
000 230 2 0 4.0747e+09 4.07497e+09 4.07599e+09 4.20346e+09 0
000 231 1 0 4.21106e+09 4.21132e+09 4.21234e+09 4.2209e+09 0
001 232 1 0 4.22492e+09 4.22517e+09 4.22619e+09 4.22901e+09 0
001 233 1 0 4.232e+09 4.23225e+09 4.23327e+09 4.23888e+09 0
001 234 1 0 4.24176e+09 4.24202e+09 4.24304e+09 4.26947e+09 0
001 235 1 0 4.27274e+09 4.273e+09 4.27402e+09 3.33099e+07 0
001 236 2 0 3.59967e+07 3.6258e+07 3.72769e+07 7.02329e+07 0
000 237 2 0 8.74691e+07 8.77293e+07 8.87482e+07 1.05998e+08 1
000 238 2 1 1.1576e+08 1.16009e+08 1.17028e+08 1.41776e+08 1
001 239 2 0 1.45772e+08 1.46026e+08 1.47045e+08 1.8525e+08 0
000 240 2 0 1.93326e+08 1.93576e+08 1.94594e+08 1.9744e+08 1
000 241 2 0 2.04646e+08 2.04901e+08 2.0592e+08 2.06405e+08 1
000 242 2 0 2.14214e+08 2.14468e+08 2.15487e+08 2.15954e+08 1
000 243 1 1 2.2392e+08 2.24171e+08 2.2519e+08 3.01316e+08 0
000 244 1 0 3.08404e+08 3.08654e+08 3.09673e+08 3.1217e+08 0
001 245 1 0 3.20966e+08 3.2122e+08 3.22239e+08 3.35127e+08 0
001 246 1 0 3.38295e+08 3.38554e+08 3.39573e+08 3.44277e+08 0
001 247 1 1 3.48137e+08 3.48401e+08 3.4942e+08 3.57317e+08 0
000 248 1 0 3.64461e+08 3.64721e+08 3.6574e+08 3.66018e+08 1
001 249 2 0 3.77434e+08 3.77693e+08 3.78712e+08 4.06113e+08 0
000 250 2 1 4.14647e+08 4.14899e+08 4.15918e+08 4.53398e+08 1
001 251 2 1 4.56141e+08 4.56391e+08 4.5741e+08 4.74961e+08 0
001 252 2 1 4.77501e+08 4.77754e+08 4.78773e+08 4.90997e+08 0
001 253 2 0 4.93704e+08 4.93956e+08 4.94974e+08 5.05767e+08 0
000 254 2 1 5.14006e+08 5.14272e+08 5.15291e+08 5.25282e+08 1
001 255 1 1 5.27835e+08 5.28092e+08 5.2911e+08 5.29887e+08 0
000 256 1 1 5.3787e+08 5.38134e+08 5.39153e+08 5.44574e+08 1
000 257 1 0 5.51805e+08 5.5206e+08 5.53079e+08 5.59757e+08 1
001 258 2 1 5.62473e+08 5.62735e+08 5.63754e+08 5.83745e+08 0
001 259 2 1 5.88465e+08 5.88718e+08 5.89737e+08 5.92804e+08 0
001 260 1 1 5.95215e+08 5.9547e+08 5.96489e+08 6.17537e+08 0
000 261 1 0 6.25e+08 6.25264e+08 6.26283e+08 6.66011e+08 1
001 262 1 0 6.73061e+08 6.73319e+08 6.74338e+08 6.75501e+08 0
001 263 1 0 6.82422e+08 6.82676e+08 6.83695e+08 7.04935e+08 0
001 264 2 1 7.07896e+08 7.08158e+08 7.09177e+08 7.10784e+08 0
001 265 1 1 7.18797e+08 7.19047e+08 7.20066e+08 7.21042e+08 0
000 266 1 0 7.31165e+08 7.31423e+08 7.32442e+08 7.32834e+08 1
001 267 2 0 7.35297e+08 7.3556e+08 7.36579e+08 7.43917e+08 0
000 268 2 0 7.53609e+08 7.53863e+08 7.54882e+08 7.58249e+08 1
000 269 2 0 7.66064e+08 7.66316e+08 7.67335e+08 8.00046e+08 1
000 270 2 1 8.07129e+08 8.07382e+08 8.08401e+08 8.21043e+08 1
001 271 1 0 8.25191e+08 8.25459e+08 8.26478e+08 8.26862e+08 0
001 272 1 0 8.29281e+08 8.29532e+08 8.30551e+08 9.00048e+08 0
001 273 1 1 9.0563e+08 9.05892e+08 9.06911e+08 9.25388e+08 0
000 274 1 1 9.32679e+08 9.32936e+08 9.33955e+08 9.56739e+08 1
000 275 1 0 9.65893e+08 9.66144e+08 9.67163e+08 9.71887e+08 1
001 276 1 0 9.75086e+08 9.75342e+08 9.76361e+08 1.07014e+09 0
001 277 1 0 1.07271e+09 1.07296e+09 1.07398e+09 1.11221e+09 0
001 278 2 1 1.116e+09 1.11626e+09 1.11728e+09 1.11729e+09 0
001 279 2 1 1.12037e+09 1.12063e+09 1.12165e+09 1.12202e+09 0
001 280 2 0 1.13115e+09 1.1314e+09 1.13242e+09 1.13463e+09 0
000 281 2 0 1.14213e+09 1.14238e+09 1.1434e+09 1.16719e+09 1
000 282 2 0 1.17722e+09 1.17748e+09 1.1785e+09 1.21815e+09 1
000 283 2 0 1.22523e+09 1.2255e+09 1.22652e+09 1.32462e+09 1
000 284 1 0 1.33765e+09 1.33791e+09 1.33893e+09 1.34803e+09 0
001 285 1 0 1.35151e+09 1.35176e+09 1.35278e+09 1.36841e+09 0
001 286 2 0 1.37117e+09 1.37143e+09 1.37245e+09 1.37321e+09 0
000 287 2 1 1.38282e+09 1.38308e+09 1.3841e+09 1.39902e+09 1
001 288 2 1 1.40371e+09 1.40396e+09 1.40498e+09 1.40628e+09 0
001 289 2 0 1.40998e+09 1.41022e+09 1.41124e+09 1.42689e+09 0
000 290 2 1 1.43447e+09 1.43473e+09 1.43575e+09 1.44332e+09 1
001 291 1 0 1.44595e+09 1.44622e+09 1.44723e+09 1.45562e+09 0
001 292 2 1 1.45929e+09 1.45954e+09 1.46056e+09 1.46106e+09 0
001 293 1 1 1.46351e+09 1.46377e+09 1.46479e+09 1.47053e+09 0
000 294 1 0 1.47805e+09 1.47831e+09 1.47932e+09 1.48371e+09 1
001 295 1 1 1.48655e+09 1.48681e+09 1.48783e+09 1.49014e+09 0
000 296 1 1 1.49766e+09 1.4979e+09 1.49892e+09 1.50858e+09 1
000 297 1 0 1.51628e+09 1.51653e+09 1.51755e+09 1.52537e+09 1
001 298 2 0 1.52825e+09 1.52851e+09 1.52953e+09 1.54304e+09 0
000 299 2 0 1.55038e+09 1.55063e+09 1.55165e+09 1.55461e+09 1
000 300 2 0 1.56182e+09 1.56208e+09 1.5631e+09 1.63083e+09 1
000 301 2 0 1.63791e+09 1.63817e+09 1.63919e+09 1.70363e+09 1
000 302 2 0 1.71095e+09 1.71121e+09 1.71223e+09 1.81343e+09 0
000 303 2 0 1.82156e+09 1.82182e+09 1.82284e+09 1.84864e+09 0
000 304 2 1 1.85609e+09 1.85634e+09 1.85736e+09 1.87259e+09 0
001 305 1 1 1.87796e+09 1.87822e+09 1.87924e+09 1.89392e+09 0
000 306 1 0 1.9014e+09 1.90165e+09 1.90267e+09 1.90335e+09 1
001 307 2 1 1.90853e+09 1.90878e+09 1.9098e+09 1.91001e+09 0
001 308 1 1 1.92156e+09 1.92182e+09 1.92284e+09 1.92372e+09 0
000 309 1 0 1.93175e+09 1.93201e+09 1.93303e+09 1.93324e+09 1
001 310 1 0 1.94382e+09 1.94407e+09 1.94509e+09 1.94591e+09 0
001 311 1 0 1.94846e+09 1.94872e+09 1.94974e+09 1.95084e+09 0
001 312 1 1 1.96106e+09 1.96132e+09 1.96234e+09 1.96351e+09 0
000 313 1 1 1.9711e+09 1.97136e+09 1.97238e+09 1.97359e+09 1
000 314 1 1 1.9807e+09 1.98095e+09 1.98197e+09 1.98317e+09 1
000 315 1 1 1.99427e+09 1.99453e+09 1.99555e+09 1.99651e+09 1
000 316 1 1 2.00977e+09 2.01002e+09 2.01104e+09 2.01252e+09 0
000 317 2 1 2.02349e+09 2.02373e+09 2.02475e+09 2.02486e+09 0
001 318 2 1 2.04133e+09 2.04158e+09 2.0426e+09 2.04301e+09 0
001 319 2 1 2.05373e+09 2.05399e+09 2.055e+09 2.0551e+09 0
001 320 2 1 2.0594e+09 2.05967e+09 2.06068e+09 2.06109e+09 0
001 321 1 1 2.0702e+09 2.07046e+09 2.07147e+09 2.07241e+09 0
000 322 1 0 2.08153e+09 2.08179e+09 2.0828e+09 2.08439e+09 1
001 323 2 0 2.10812e+09 2.10837e+09 2.10939e+09 2.10981e+09 0
000 324 2 1 2.1219e+09 2.12216e+09 2.12318e+09 2.1232e+09 1
001 325 1 1 2.13659e+09 2.13684e+09 2.13786e+09 2.13813e+09 0
000 326 1 0 2.15434e+09 2.15459e+09 2.15561e+09 2.15591e+09 1
001 327 1 0 2.16115e+09 2.16141e+09 2.16243e+09 2.18561e+09 0
001 328 1 1 2.18821e+09 2.18848e+09 2.1895e+09 2.1933e+09 0
000 329 1 0 2.20397e+09 2.20423e+09 2.20525e+09 2.20754e+09 1
001 330 1 0 2.21087e+09 2.21111e+09 2.21213e+09 2.22045e+09 0
001 331 2 1 2.22295e+09 2.2232e+09 2.22422e+09 2.22508e+09 0
001 332 1 0 2.23864e+09 2.23889e+09 2.23991e+09 2.24192e+09 0
001 333 1 0 2.26008e+09 2.26033e+09 2.26135e+09 2.26517e+09 0
001 334 1 1 2.26787e+09 2.26813e+09 2.26915e+09 2.26974e+09 0
000 335 1 0 2.32046e+09 2.32071e+09 2.32173e+09 2.32394e+09 1
001 336 1 1 2.33266e+09 2.33292e+09 2.33394e+09 2.33469e+09 0
000 337 1 1 2.34296e+09 2.34322e+09 2.34424e+09 2.34543e+09 1
000 338 1 1 2.35711e+09 2.35737e+09 2.35839e+09 2.35954e+09 1
000 339 1 0 2.36873e+09 2.36899e+09 2.37001e+09 2.37091e+09 1
001 340 1 0 2.42512e+09 2.42538e+09 2.4264e+09 2.42673e+09 0
001 341 2 1 2.45698e+09 2.45724e+09 2.45826e+09 2.45873e+09 0
001 342 1 1 2.46862e+09 2.46888e+09 2.4699e+09 2.47372e+09 0
000 343 1 0 2.49105e+09 2.49132e+09 2.49234e+09 2.49431e+09 1
001 344 2 1 2.50073e+09 2.501e+09 2.50201e+09 2.50287e+09 0
001 345 2 0 2.50975e+09 2.51001e+09 2.51103e+09 2.51128e+09 0
000 346 2 1 2.53025e+09 2.5305e+09 2.53152e+09 2.53303e+09 1
001 347 1 1 2.53544e+09 2.5357e+09 2.53672e+09 2.54032e+09 0
000 348 1 1 2.55851e+09 2.55876e+09 2.55978e+09 2.56115e+09 1
000 349 1 1 2.56822e+09 2.56848e+09 2.5695e+09 2.57026e+09 1
000 350 1 0 2.59895e+09 2.59921e+09 2.60023e+09 2.60425e+09 1
001 351 1 0 2.60775e+09 2.60801e+09 2.60903e+09 2.61053e+09 0
001 352 2 0 2.61316e+09 2.61341e+09 2.61443e+09 2.61587e+09 0
000 353 2 0 2.62391e+09 2.62416e+09 2.62518e+09 2.62651e+09 1
000 354 2 0 2.6339e+09 2.63416e+09 2.63518e+09 2.63522e+09 1
000 355 2 1 2.64374e+09 2.64399e+09 2.64501e+09 2.65329e+09 1
001 356 1 0 2.66345e+09 2.66375e+09 2.66477e+09 2.66734e+09 0
001 357 2 1 2.67241e+09 2.67266e+09 2.67367e+09 2.67405e+09 0
001 358 1 1 2.68126e+09 2.68151e+09 2.68253e+09 2.68295e+09 0
000 359 1 0 2.70617e+09 2.70642e+09 2.70744e+09 2.7083e+09 1
001 360 1 0 2.72419e+09 2.72445e+09 2.72547e+09 2.72587e+09 0
001 361 2 0 2.72836e+09 2.72862e+09 2.72964e+09 2.73656e+09 0
000 362 2 0 2.74752e+09 2.74778e+09 2.7488e+09 2.75276e+09 1
000 363 2 0 2.76022e+09 2.76047e+09 2.76149e+09 2.76287e+09 1
000 364 2 0 2.77004e+09 2.77029e+09 2.77131e+09 2.77305e+09 1
000 365 1 0 2.78055e+09 2.78081e+09 2.78183e+09 2.78206e+09 0
001 366 2 0 2.78752e+09 2.78777e+09 2.78879e+09 2.79116e+09 0
000 367 2 0 2.79876e+09 2.79902e+09 2.80004e+09 2.80333e+09 1
000 368 2 0 2.81064e+09 2.8109e+09 2.81192e+09 2.82057e+09 1
000 369 2 0 2.828e+09 2.82825e+09 2.82927e+09 2.84219e+09 1
000 370 2 0 2.85038e+09 2.85063e+09 2.85165e+09 2.87165e+09 0
000 371 2 0 2.87921e+09 2.87946e+09 2.88048e+09 2.8918e+09 0
000 372 1 0 2.89899e+09 2.89926e+09 2.90028e+09 2.90746e+09 0
001 373 2 0 2.9165e+09 2.91674e+09 2.91776e+09 2.92117e+09 0
000 374 2 0 2.9294e+09 2.92966e+09 2.93068e+09 2.9315e+09 1
000 375 2 1 2.93868e+09 2.93894e+09 2.93996e+09 2.94365e+09 1
001 376 1 0 2.95021e+09 2.95047e+09 2.95149e+09 2.95242e+09 0
001 377 2 1 2.96306e+09 2.96333e+09 2.96435e+09 2.96443e+09 0
001 378 2 1 2.97294e+09 2.97319e+09 2.97421e+09 2.98084e+09 0
001 379 2 1 2.98946e+09 2.98971e+09 2.99073e+09 2.99233e+09 0
001 380 1 1 3.00162e+09 3.00186e+09 3.00288e+09 3.00664e+09 0
000 381 1 0 3.02231e+09 3.02256e+09 3.02358e+09 3.02396e+09 1
001 382 2 1 3.03091e+09 3.03116e+09 3.03218e+09 3.03228e+09 0
001 383 1 1 3.06335e+09 3.0636e+09 3.06462e+09 3.06465e+09 0
000 384 1 1 3.08714e+09 3.08739e+09 3.08841e+09 3.08901e+09 1
000 385 1 0 3.09714e+09 3.0974e+09 3.09842e+09 3.105e+09 1
001 386 2 0 3.11386e+09 3.11411e+09 3.11513e+09 3.11709e+09 0
000 387 2 0 3.12461e+09 3.12486e+09 3.12587e+09 3.12805e+09 1
000 388 2 1 3.1355e+09 3.13575e+09 3.13677e+09 3.13874e+09 1
001 389 2 0 3.1461e+09 3.14635e+09 3.14737e+09 3.14898e+09 0
000 390 2 0 3.15701e+09 3.15726e+09 3.15828e+09 3.15881e+09 1
000 391 2 0 3.16672e+09 3.16697e+09 3.16799e+09 3.17332e+09 1
000 392 2 0 3.18166e+09 3.18192e+09 3.18294e+09 3.18493e+09 1
000 393 1 0 3.19502e+09 3.19527e+09 3.19629e+09 3.19746e+09 0
001 394 1 0 3.20423e+09 3.20448e+09 3.2055e+09 3.20885e+09 0
001 395 1 0 3.21205e+09 3.21231e+09 3.21333e+09 3.21633e+09 0
001 396 1 0 3.22592e+09 3.22617e+09 3.22719e+09 3.23018e+09 0
001 397 2 1 3.24136e+09 3.24162e+09 3.24264e+09 3.24279e+09 0
001 398 2 1 3.25282e+09 3.25307e+09 3.25409e+09 3.25901e+09 0
001 399 2 1 3.27845e+09 3.2787e+09 3.27972e+09 3.28009e+09 0
001 400 2 1 3.28498e+09 3.28523e+09 3.28625e+09 3.28818e+09 0
001 401 1 0 3.29919e+09 3.29944e+09 3.30046e+09 3.30078e+09 0
001 402 1 1 3.30469e+09 3.30494e+09 3.30596e+09 3.30669e+09 0
000 403 1 0 3.33514e+09 3.3354e+09 3.33642e+09 3.33651e+09 1
001 404 2 0 3.33961e+09 3.33987e+09 3.34089e+09 3.35026e+09 0
000 405 2 1 3.3576e+09 3.35786e+09 3.35888e+09 3.36249e+09 1
001 406 1 0 3.36622e+09 3.36647e+09 3.36749e+09 3.37038e+09 0
001 407 2 1 3.37601e+09 3.37628e+09 3.3773e+09 3.37885e+09 0
001 408 1 1 3.38985e+09 3.39011e+09 3.39113e+09 3.39489e+09 0
000 409 1 1 3.40255e+09 3.4028e+09 3.40382e+09 3.40424e+09 1
000 410 1 0 3.4115e+09 3.41176e+09 3.41278e+09 3.42052e+09 1
001 411 1 1 3.42914e+09 3.4294e+09 3.43042e+09 3.43062e+09 0
000 412 1 0 3.44023e+09 3.44049e+09 3.44151e+09 3.44287e+09 1
001 413 2 0 3.44718e+09 3.44743e+09 3.44845e+09 3.45041e+09 0
000 414 2 0 3.46173e+09 3.46199e+09 3.46301e+09 3.46698e+09 1
000 415 2 0 3.47427e+09 3.47453e+09 3.47555e+09 3.48848e+09 1
000 416 2 0 3.49581e+09 3.49606e+09 3.49708e+09 3.50265e+09 1
000 417 2 0 3.50998e+09 3.51024e+09 3.51126e+09 3.57507e+09 0
000 418 1 1 3.58229e+09 3.58254e+09 3.58356e+09 3.5858e+09 0
000 419 1 0 3.59316e+09 3.59341e+09 3.59443e+09 3.59729e+09 0
001 420 1 0 3.60231e+09 3.60256e+09 3.60358e+09 3.60453e+09 0
001 421 2 0 3.6109e+09 3.61116e+09 3.61217e+09 3.61498e+09 0
000 422 2 0 3.62247e+09 3.62271e+09 3.62373e+09 3.6324e+09 1
000 423 2 0 3.64435e+09 3.64461e+09 3.64563e+09 3.65536e+09 1
000 424 2 0 3.66275e+09 3.663e+09 3.66402e+09 3.66932e+09 1
000 425 1 0 3.67648e+09 3.67674e+09 3.67776e+09 3.68036e+09 0
001 426 1 1 3.68415e+09 3.6844e+09 3.68542e+09 3.68544e+09 0
000 427 1 0 3.69258e+09 3.69283e+09 3.69385e+09 3.711e+09 1
001 428 1 1 3.71443e+09 3.71469e+09 3.71571e+09 3.71575e+09 0
000 429 1 0 3.72331e+09 3.72356e+09 3.72458e+09 3.72875e+09 1
001 430 1 1 3.7314e+09 3.73166e+09 3.73268e+09 3.73556e+09 0
000 431 1 0 3.74611e+09 3.74637e+09 3.74739e+09 3.75038e+09 1
001 432 2 0 3.75528e+09 3.75554e+09 3.75656e+09 3.75757e+09 0
000 433 2 0 3.76582e+09 3.76607e+09 3.76709e+09 3.76841e+09 1
000 434 2 0 3.77815e+09 3.77841e+09 3.77943e+09 3.78632e+09 1
000 435 2 0 3.7943e+09 3.79455e+09 3.79556e+09 3.8003e+09 1
000 436 1 0 3.80858e+09 3.80884e+09 3.80986e+09 3.81173e+09 0
001 437 1 0 3.81484e+09 3.81509e+09 3.81611e+09 3.81864e+09 0
001 438 2 0 3.82224e+09 3.82249e+09 3.82351e+09 3.82407e+09 0
000 439 2 1 3.83549e+09 3.83575e+09 3.83677e+09 3.83891e+09 1
001 440 2 1 3.84274e+09 3.843e+09 3.84402e+09 3.85936e+09 0
001 441 1 0 3.86199e+09 3.86225e+09 3.86327e+09 3.86479e+09 0
001 442 2 1 3.8675e+09 3.86775e+09 3.86877e+09 3.87129e+09 0
001 443 1 0 3.874e+09 3.87426e+09 3.87528e+09 3.88032e+09 0
001 444 2 0 3.88478e+09 3.88503e+09 3.88605e+09 3.89095e+09 0
000 445 2 0 3.90005e+09 3.9003e+09 3.90132e+09 3.90242e+09 1
000 446 2 0 3.9095e+09 3.90975e+09 3.91077e+09 3.91699e+09 1
000 447 2 0 3.92536e+09 3.92561e+09 3.92663e+09 3.9376e+09 1
000 448 1 1 3.94488e+09 3.94515e+09 3.94616e+09 3.95232e+09 0
000 449 2 0 3.95967e+09 3.95992e+09 3.96094e+09 4.05322e+09 0
000 450 2 0 4.06033e+09 4.06058e+09 4.0616e+09 4.07814e+09 0
000 451 1 0 4.08543e+09 4.08569e+09 4.08671e+09 4.09091e+09 0
001 452 2 1 4.09473e+09 4.09498e+09 4.096e+09 4.09827e+09 0
001 453 2 0 4.10323e+09 4.10349e+09 4.10451e+09 4.10554e+09 0
000 454 2 0 4.11414e+09 4.11439e+09 4.1154e+09 4.11764e+09 1
000 455 2 0 4.12472e+09 4.12498e+09 4.126e+09 4.13753e+09 1
000 456 2 1 4.14463e+09 4.14487e+09 4.14589e+09 4.2315e+09 1
001 457 1 0 4.24105e+09 4.2413e+09 4.24232e+09 4.24658e+09 0
001 458 2 1 4.25721e+09 4.25747e+09 4.25849e+09 4.25909e+09 0
001 459 2 0 4.26449e+09 4.26475e+09 4.26577e+09 4.26708e+09 0
000 460 2 1 4.27613e+09 4.27638e+09 4.2774e+09 4.2827e+09 1
001 461 1 0 4.28783e+09 4.28808e+09 4.2891e+09 4.29457e+09 0
001 462 2 1 2.5293e+06 2.77485e+06 3.79379e+06 4.02992e+06 0
001 463 2 0 9.7188e+06 9.96285e+06 1.09818e+07 1.24467e+07 0
000 464 2 0 2.21112e+07 2.2361e+07 2.338e+07 2.42888e+07 1
000 465 2 0 3.32708e+07 3.35306e+07 3.45496e+07 3.58466e+07 1
000 466 2 0 4.38282e+07 4.4078e+07 4.5097e+07 5.65986e+07 1
000 467 2 0 6.40676e+07 6.43204e+07 6.53394e+07 6.55827e+07 0
000 468 2 0 7.29703e+07 7.3229e+07 7.42479e+07 7.98813e+07 0
000 469 1 0 8.73861e+07 8.76362e+07 8.86552e+07 8.87854e+07 0
001 470 1 0 9.56672e+07 9.59247e+07 9.69437e+07 9.71002e+07 0
001 471 2 0 9.96536e+07 9.99106e+07 1.0093e+08 1.28494e+08 0
000 472 2 0 1.35551e+08 1.358e+08 1.36818e+08 1.61073e+08 1
000 473 2 1 1.68454e+08 1.68719e+08 1.69738e+08 1.99885e+08 1
001 474 2 0 2.05313e+08 2.05575e+08 2.06594e+08 2.35965e+08 0
000 475 2 0 2.43311e+08 2.43568e+08 2.44587e+08 3.91691e+08 1
000 476 2 1 3.992e+08 3.99452e+08 4.00471e+08 4.13201e+08 1
001 477 2 1 4.17323e+08 4.1758e+08 4.18599e+08 4.21424e+08 0
001 478 1 1 4.25439e+08 4.25691e+08 4.2671e+08 4.28817e+08 0
000 479 1 1 4.39569e+08 4.39826e+08 4.40845e+08 4.41813e+08 1
000 480 1 1 4.49259e+08 4.49521e+08 4.5054e+08 4.65692e+08 1
000 481 1 1 4.72961e+08 4.73215e+08 4.74233e+08 4.94766e+08 1
000 482 1 1 5.07093e+08 5.0735e+08 5.08369e+08 5.18e+08 0
000 483 1 1 5.254e+08 5.25658e+08 5.26677e+08 6.19228e+08 0
000 484 1 1 6.2676e+08 6.27007e+08 6.28026e+08 6.55985e+08 0
000 485 2 0 6.63341e+08 6.63592e+08 6.64611e+08 6.66318e+08 0
000 486 2 1 6.73574e+08 6.73823e+08 6.74842e+08 6.76586e+08 0
001 487 2 1 6.7918e+08 6.79437e+08 6.80456e+08 6.95382e+08 0
001 488 2 1 6.98161e+08 6.98404e+08 6.99423e+08 7.0296e+08 0
001 489 2 0 7.07111e+08 7.07369e+08 7.08388e+08 7.41004e+08 0
000 490 2 0 7.48388e+08 7.48642e+08 7.49661e+08 7.9015e+08 1
000 491 2 1 7.98014e+08 7.98264e+08 7.99283e+08 8.49868e+08 1
001 492 1 1 8.5315e+08 8.53399e+08 8.54418e+08 8.57196e+08 0
000 493 1 1 8.64514e+08 8.64774e+08 8.65793e+08 9.09017e+08 1
000 494 1 0 9.16171e+08 9.16417e+08 9.17436e+08 9.18813e+08 1
001 495 1 0 9.22823e+08 9.23068e+08 9.24087e+08 9.4524e+08 0
001 496 2 0 9.4803e+08 9.48286e+08 9.49305e+08 9.53022e+08 0
000 497 2 1 9.604e+08 9.60661e+08 9.6168e+08 9.77365e+08 1
001 498 1 1 9.84453e+08 9.84701e+08 9.8572e+08 1.08865e+09 0
000 499 1 1 1.09587e+09 1.09613e+09 1.09715e+09 1.10371e+09 1
000 500 1 1 1.11114e+09 1.1114e+09 1.11241e+09 1.11352e+09 1
000 501 1 1 1.12087e+09 1.12113e+09 1.12215e+09 1.13176e+09 1
000 502 2 1 1.13896e+09 1.13921e+09 1.14023e+09 1.14708e+09 0
001 503 1 0 1.14989e+09 1.15015e+09 1.15117e+09 1.15253e+09 0
001 504 2 0 1.15513e+09 1.15538e+09 1.1564e+09 1.15811e+09 0
000 505 2 0 1.16537e+09 1.16562e+09 1.16664e+09 1.18638e+09 1
000 506 2 0 1.19358e+09 1.19384e+09 1.19486e+09 1.19754e+09 1
000 507 2 0 1.20627e+09 1.20653e+09 1.20755e+09 1.2541e+09 1
000 508 1 1 1.26123e+09 1.26149e+09 1.26251e+09 1.26377e+09 0
000 509 1 1 1.27096e+09 1.27122e+09 1.27224e+09 1.33576e+09 0
000 510 1 1 1.3431e+09 1.34335e+09 1.34437e+09 1.35511e+09 0
000 511 1 1 1.36235e+09 1.36261e+09 1.36363e+09 1.44799e+09 0
000 512 1 1 1.45553e+09 1.45577e+09 1.45679e+09 1.50612e+09 0
000 513 2 1 1.51334e+09 1.51359e+09 1.51461e+09 1.55238e+09 0
001 514 1 0 1.55517e+09 1.55542e+09 1.55644e+09 1.55736e+09 0
001 515 2 1 1.55999e+09 1.56023e+09 1.56125e+09 1.61367e+09 0
001 516 1 1 1.61637e+09 1.61663e+09 1.61764e+09 1.62566e+09 0
000 517 1 1 1.63485e+09 1.6351e+09 1.63612e+09 1.64516e+09 1
000 518 1 1 1.65222e+09 1.65247e+09 1.65349e+09 1.72315e+09 1
000 519 1 1 1.73042e+09 1.73066e+09 1.73168e+09 1.75013e+09 1
000 520 1 1 1.75754e+09 1.75781e+09 1.75883e+09 1.77698e+09 0
000 521 1 1 1.78436e+09 1.78461e+09 1.78563e+09 1.78563e+09 0
000 522 2 1 1.79342e+09 1.79368e+09 1.7947e+09 1.79493e+09 0
001 523 2 1 1.79779e+09 1.79806e+09 1.79907e+09 1.80192e+09 0
001 524 1 1 1.80437e+09 1.80463e+09 1.80565e+09 1.84288e+09 0
000 525 1 1 1.8502e+09 1.85045e+09 1.85147e+09 1.96156e+09 1
000 526 1 1 1.96861e+09 1.96886e+09 1.96988e+09 1.97951e+09 1
000 527 1 1 1.98979e+09 1.99004e+09 1.99106e+09 2.06253e+09 1
000 528 2 1 2.06972e+09 2.06997e+09 2.07099e+09 2.08278e+09 0
001 529 2 1 2.08675e+09 2.087e+09 2.08801e+09 2.09795e+09 0
001 530 2 1 2.10054e+09 2.10078e+09 2.1018e+09 2.11232e+09 0
001 531 1 1 2.11483e+09 2.11509e+09 2.1161e+09 2.12682e+09 0
000 532 1 1 2.13416e+09 2.13441e+09 2.13543e+09 2.14226e+09 1
000 533 1 1 2.14941e+09 2.14966e+09 2.15068e+09 2.15084e+09 1
000 534 1 1 2.15831e+09 2.15855e+09 2.15957e+09 2.24724e+09 1
000 535 1 1 2.2577e+09 2.25795e+09 2.25897e+09 2.26257e+09 0
000 536 2 0 2.26969e+09 2.26993e+09 2.27095e+09 2.38802e+09 0
000 537 1 1 2.39533e+09 2.39564e+09 2.39666e+09 2.39818e+09 0
000 538 2 1 2.40547e+09 2.40572e+09 2.40674e+09 2.41549e+09 0
001 539 2 1 2.42052e+09 2.42078e+09 2.4218e+09 2.52989e+09 0
001 540 1 1 2.53282e+09 2.53307e+09 2.53409e+09 2.54053e+09 0
000 541 1 1 2.54784e+09 2.54809e+09 2.54911e+09 2.55756e+09 1
000 542 1 1 2.5648e+09 2.56506e+09 2.56608e+09 2.56873e+09 1
000 543 1 1 2.57606e+09 2.57631e+09 2.57733e+09 2.63198e+09 1
000 544 1 1 2.63924e+09 2.63949e+09 2.64051e+09 2.64069e+09 0
000 545 1 1 2.64815e+09 2.6484e+09 2.64942e+09 2.69725e+09 0
000 546 2 1 2.70468e+09 2.70493e+09 2.70595e+09 2.70718e+09 0
001 547 1 1 2.71071e+09 2.71097e+09 2.71199e+09 2.71398e+09 0
000 548 1 1 2.7223e+09 2.72254e+09 2.72356e+09 2.78979e+09 1
000 549 1 1 2.79695e+09 2.7972e+09 2.79822e+09 2.84693e+09 1
000 