trial trialType response stillTime stimOnset stimOffset respTime correctionTrial correct
001 1 1 9.4075e+06 9.7151e+06 1.0734e+07 1.30696e+08 0
000 002 1 0 1.3799e+08 1.38257e+08 1.39276e+08 3.72233e+08 1
001 003 1 1 3.75695e+08 3.75969e+08 3.76988e+08 3.77557e+08 0
000 004 1 1 3.94651e+08 3.94903e+08 3.95922e+08 3.95925e+08 1
000 005 1 1 4.13066e+08 4.13324e+08 4.14343e+08 4.17008e+08 1
000 006 1 0 4.37547e+08 4.37791e+08 4.3881e+08 4.39844e+08 1
001 007 2 1 4.5044e+08 4.50683e+08 4.51702e+08 4.52265e+08 0
001 008 1 1 4.67186e+08 4.67442e+08 4.68461e+08 4.69331e+08 0
000 009 1 0 4.7678e+08 4.77035e+08 4.78054e+08 4.78421e+08 1
001 010 2 1 4.81064e+08 4.81322e+08 4.82341e+08 4.83448e+08 0
001 011 1 1 4.86735e+08 4.87e+08 4.88019e+08 4.90121e+08 0
000 012 1 1 5.05641e+08 5.05906e+08 5.06925e+08 5.08709e+08 1
000 013 1 0 5.18222e+08 5.18481e+08 5.195e+08 5.19715e+08 1
001 014 2 0 5.30031e+08 5.30274e+08 5.31293e+08 5.32493e+08 0
000 015 2 0 5.45582e+08 5.45846e+08 5.46865e+08 5.48551e+08 1
000 016 2 1 5.55579e+08 5.55829e+08 5.56848e+08 5.57009e+08 1
001 017 1 1 5.60925e+08 5.61182e+08 5.62201e+08 5.63626e+08 0
000 018 1 1 5.73234e+08 5.73492e+08 5.74511e+08 5.7593e+08 1
000 019 1 0 5.86763e+08 5.87016e+08 5.88035e+08 5.8912e+08 1
001 020 1 1 5.91585e+08 5.91849e+08 5.92868e+08 5.96103e+08 0
000 021 1 0 6.10105e+08 6.10355e+08 6.11374e+08 6.12081e+08 1
001 022 1 0 6.22758e+08 6.23005e+08 6.24024e+08 6.25262e+08 0
001 023 2 0 6.37134e+08 6.37383e+08 6.38402e+08 6.38596e+08 0
000 024 2 0 6.46211e+08 6.4646e+08 6.47479e+08 6.49254e+08 1
000 025 2 0 6.57122e+08 6.57372e+08 6.58391e+08 6.58433e+08 1
000 026 2 1 6.659e+08 6.66162e+08 6.67181e+08 6.68801e+08 1
001 027 1 0 6.73934e+08 6.74195e+08 6.75214e+08 6.80691e+08 0
001 028 2 0 7.05978e+08 7.06236e+08 7.07255e+08 7.08899e+08 0
000 029 2 0 7.16245e+08 7.16502e+08 7.17521e+08 7.19228e+08 1
000 030 2 0 7.32031e+08 7.32291e+08 7.3331e+08 7.36737e+08 1
000 031 2 0 7.44362e+08 7.44628e+08 7.45647e+08 7.47062e+08 1
000 032 2 0 7.6093e+08 7.6119e+08 7.62209e+08 7.6273e+08 0
000 033 1 0 7.70796e+08 7.71056e+08 7.72075e+08 7.74978e+08 0
001 034 2 1 7.77644e+08 7.77911e+08 7.78929e+08 7.89564e+08 0
001 035 1 1 7.95318e+08 7.95573e+08 7.96592e+08 8.00331e+08 0
000 036 1 1 8.07838e+08 8.08093e+08 8.09112e+08 8.09331e+08 1
000 037 1 1 8.20822e+08 8.21072e+08 8.22091e+08 8.23745e+08 1
000 038 1 0 8.45016e+08 8.45273e+08 8.46291e+08 8.48199e+08 1
001 039 2 0 8.55702e+08 8.55963e+08 8.56982e+08 8.58155e+08 0
000 040 2 0 8.6679e+08 8.67039e+08 8.68058e+08 8.68725e+08 1
000 041 2 1 8.79354e+08 8.7962e+08 8.80639e+08 8.80816e+08 1
001 042 2 1 8.85031e+08 8.85296e+08 8.86315e+08 8.87176e+08 0
001 043 2 1 8.89952e+08 8.90214e+08 8.91233e+08 8.99752e+08 0
001 044 1 0 9.02452e+08 9.02714e+08 9.03733e+08 9.05638e+08 0
001 045 2 0 9.18735e+08 9.18988e+08 9.20007e+08 9.22429e+08 0
000 046 2 0 9.38446e+08 9.38688e+08 9.39707e+08 9.42739e+08 1
000 047 2 0 9.55602e+08 9.55858e+08 9.56877e+08 9.58174e+08 1
000 048 2 0 9.66873e+08 9.6712e+08 9.68139e+08 9.70276e+08 1
000 049 1 0 9.81134e+08 9.81378e+08 9.82397e+08 9.87068e+08 0
001 050 2 0 9.91318e+08 9.91562e+08 9.92581e+08 9.92765e+08 0
000 051 2 0 1.0014e+09 1.00165e+09 1.00267e+09 1.00306e+09 1
000 052 2 0 1.01743e+09 1.01769e+09 1.0187e+09 1.02126e+09 1
000 053 2 0 1.0292e+09 1.02945e+09 1.03047e+09 1.03176e+09 1
000 054 1 0 1.03931e+09 1.03956e+09 1.04057e+09 1.04068e+09 0
001 055 2 1 1.04407e+09 1.04431e+09 1.04533e+09 1.04579e+09 0
001 056 2 0 1.04865e+09 1.0489e+09 1.04992e+09 1.05085e+09 0
000 057 2 1 1.05885e+09 1.0591e+09 1.06012e+09 1.06107e+09 1
001 058 2 0 1.06925e+09 1.0695e+09 1.07052e+09 1.07094e+09 0
000 059 2 1 1.07823e+09 1.07848e+09 1.0795e+09 1.08018e+09 1
001 060 2 1 1.0844e+09 1.08464e+09 1.08566e+09 1.08654e+09 0
001 061 1 0 1.08913e+09 1.08937e+09 1.09039e+09 1.09065e+09 0
001 062 1 0 1.09506e+09 1.09532e+09 1.09634e+09 1.10133e+09 0
001 063 2 0 1.10376e+09 1.104e+09 1.10502e+09 1.10975e+09 0
000 064 2 0 1.12567e+09 1.12591e+09 1.12693e+09 1.12888e+09 1
000 065 2 1 1.14659e+09 1.14686e+09 1.14788e+09 1.14944e+09 1
001 066 1 0 1.15235e+09 1.15261e+09 1.15363e+09 1.15409e+09 0
001 067 2 1 1.17166e+09 1.17191e+09 1.17293e+09 1.17346e+09 0
001 068 2 1 1.17775e+09 1.178e+09 1.17902e+09 1.18026e+09 0
001 069 2 1 1.18299e+09 1.18324e+09 1.18426e+09 1.18443e+09 0
001 070 2 0 1.20466e+09 1.20491e+09 1.20593e+09 1.2064e+09 0
000 071 2 0 1.21654e+09 1.21678e+09 1.2178e+09 1.21857e+09 1
000 072 2 0 1.22796e+09 1.22822e+09 1.22923e+09 1.23705e+09 1
000 073 2 1 1.24422e+09 1.24447e+09 1.24549e+09 1.24587e+09 1
001 074 2 0 1.2488e+09 1.24905e+09 1.25007e+09 1.25019e+09 0
000 075 2 1 1.26e+09 1.26025e+09 1.26127e+09 1.26149e+09 1
001 076 1 1 1.28303e+09 1.28327e+09 1.28429e+09 1.28463e+09 0
000 077 1 0 1.29192e+09 1.29216e+09 1.29318e+09 1.29333e+09 1
001 078 1 0 1.31002e+09 1.31026e+09 1.31128e+09 1.31191e+09 0
001 079 1 0 1.31472e+09 1.31498e+09 1.316e+09 1.31785e+09 0
001 080 2 0 1.32426e+09 1.32452e+09 1.32554e+09 1.33196e+09 0
000 081 2 0 1.3503e+09 1.35055e+09 1.35156e+09 1.35445e+09 1
000 082 2 1 1.38096e+09 1.38121e+09 1.38223e+09 1.38485e+09 1
001 083 2 0 1.38736e+09 1.38762e+09 1.38864e+09 1.38967e+09 0
000 084 2 0 1.40378e+09 1.40403e+09 1.40505e+09 1.40741e+09 1
000 085 2 0 1.41446e+09 1.41471e+09 1.41573e+09 1.41875e+09 1
000 086 2 1 1.42597e+09 1.42622e+09 1.42724e+09 1.43399e+09 1
001 087 1 0 1.43717e+09 1.43742e+09 1.43844e+09 1.43853e+09 0
001 088 1 0 1.44133e+09 1.44158e+09 1.4426e+09 1.44315e+09 0
001 089 2 1 1.446e+09 1.44625e+09 1.44727e+09 1.45367e+09 0
001 090 1 0 1.45673e+09 1.45697e+09 1.45799e+09 1.45934e+09 0
001 091 1 0 1.46732e+09 1.46757e+09 1.46859e+09 1.46906e+09 0
001 092 2 1 1.4718e+09 1.47206e+09 1.47308e+09 1.47512e+09 0
001 093 2 0 1.48081e+09 1.48109e+09 1.48211e+09 1.48311e+09 0
000 094 2 0 1.50149e+09 1.50174e+09 1.50275e+09 1.50528e+09 1
000 095 2 1 1.51257e+09 1.51282e+09 1.51384e+09 1.51923e+09 1
001 096 2 0 1.5221e+09 1.52234e+09 1.52336e+09 1.52383e+09 0
000 097 2 0 1.53109e+09 1.53133e+09 1.53235e+09 1.55787e+09 1
000 098 2 0 1.56771e+09 1.56795e+09 1.56897e+09 1.57438e+09 1
000 099 2 0 1.58632e+09 1.58657e+09 1.58759e+09 1.58985e+09 1
000 100 2 0 1.59708e+09 1.59733e+09 1.59835e+09 1.60306e+09 0
000 101 2 0 1.61016e+09 1.6104e+09 1.61142e+09 1.61176e+09 0
000 102 1 0 1.61924e+09 1.6195e+09 1.62051e+09 1.62131e+09 0
001 103 1 0 1.62463e+09 1.62489e+09 1.6259e+09 1.62659e+09 0
001 104 2 0 1.63311e+09 1.63336e+09 1.63438e+09 1.63655e+09 0
000 105 2 1 1.64541e+09 1.64566e+09 1.64668e+09 1.64673e+09 1
001 106 2 0 1.65064e+09 1.65089e+09 1.65191e+09 1.66723e+09 0
000 107 2 1 1.67464e+09 1.67489e+09 1.67591e+09 1.69219e+09 1
001 108 1 0 1.69525e+09 1.6955e+09 1.69652e+09 1.69701e+09 0
001 109 2 1 1.69972e+09 1.69996e+09 1.70098e+09 1.70317e+09 0
001 110 1 1 1.71133e+09 1.71159e+09 1.71261e+09 1.71281e+09 0
000 111 1 0 1.72752e+09 1.72777e+09 1.72879e+09 1.73124e+09 1
001 112 1 0 1.73719e+09 1.73745e+09 1.73847e+09 1.74016e+09 0
001 113 2 1 1.74608e+09 1.74633e+09 1.74734e+09 1.76263e+09 0
001 114 1 1 1.76585e+09 1.7661e+09 1.76712e+09 1.7676e+09 0
000 115 1 0 1.77476e+09 1.77501e+09 1.77602e+09 1.80022e+09 1
001 116 1 0 1.80291e+09 1.80315e+09 1.80417e+09 1.80495e+09 0
001 117 2 0 1.80856e+09 1.80881e+09 1.80983e+09 1.81169e+09 0
000 118 2 0 1.81912e+09 1.81938e+09 1.8204e+09 1.82105e+09 1
000 119 2 0 1.82854e+09 1.82879e+09 1.82981e+09 1.84946e+09 1
000 120 2 0 1.85763e+09 1.85787e+09 1.85889e+09 1.88659e+09 1
000 121 1 0 1.89394e+09 1.89419e+09 1.89521e+09 1.91779e+09 0
001 122 1 0 1.92069e+09 1.92094e+09 1.92196e+09 1.92217e+09 0
001 123 1 0 1.92557e+09 1.92582e+09 1.92683e+09 1.92768e+09 0
001 124 1 0 1.93088e+09 1.93113e+09 1.93215e+09 1.96971e+09 0
001 125 2 0 1.98177e+09 1.98202e+09 1.98304e+09 1.98311e+09 0
000 126 2 1 1.99321e+09 1.99346e+09 1.99448e+09 1.99454e+09 1
001 127 2 0 1.99941e+09 1.99966e+09 2.00068e+09 2.00303e+09 0
000 128 2 0 2.01009e+09 2.01034e+09 2.01136e+09 2.01419e+09 1
000 129 2 0 2.02123e+09 2.02148e+09 2.0225e+09 2.02323e+09 1
000 130 2 0 2.03072e+09 2.03097e+09 2.03199e+09 2.05527e+09 1
000 131 1 0 2.06279e+09 2.06305e+09 2.06407e+09 2.08154e+09 0
001 132 2 0 2.08558e+09 2.08583e+09 2.08685e+09 2.09385e+09 0
000 133 2 1 2.10096e+09 2.1012e+09 2.10222e+09 2.10229e+09 1
001 134 2 0 2.10557e+09 2.10582e+09 2.10684e+09 2.13202e+09 0
000 135 2 0 2.1421e+09 2.14235e+09 2.14336e+09 2.14512e+09 1
000 136 2 1 2.15691e+09 2.15715e+09 2.15817e+09 2.16103e+09 1
001 137 1 0 2.16527e+09 2.16553e+09 2.16655e+09 2.1667e+09 0
001 138 2 0 2.17237e+09 2.17262e+09 2.17364e+09 2.17367e+09 0
000 139 2 0 2.19721e+09 2.19746e+09 2.19848e+09 2.19891e+09 1
000 140 2 0 2.21141e+09 2.21167e+09 2.21269e+09 2.21879e+09 1
000 141 2 1 2.22622e+09 2.22646e+09 2.22748e+09 2.22791e+09 1
001 142 1 0 2.23362e+09 2.23386e+09 2.23488e+09 2.23634e+09 0
001 143 1 0 2.23912e+09 2.23936e+09 2.24038e+09 2.24087e+09 0
001 144 2 1 2.24332e+09 2.24357e+09 2.24459e+09 2.25317e+09 0
001 145 2 1 2.25797e+09 2.25823e+09 2.25925e+09 2.26253e+09 0
001 146 1 1 2.26673e+09 2.26699e+09 2.268e+09 2.27725e+09 0
000 147 1 1 2.2848e+09 2.28505e+09 2.28607e+09 2.29949e+09 1
000 148 1 0 2.31508e+09 2.31533e+09 2.31635e+09 2.31685e+09 1
001 149 1 0 2.32128e+09 2.32154e+09 2.32255e+09 2.32277e+09 0
001 150 2 1 2.32516e+09 2.32541e+09 2.32643e+09 2.33187e+09 0
001 151 1 1 2.33473e+09 2.33497e+09 2.33599e+09 2.33839e+09 0
000 152 1 1 2.34552e+09 2.34577e+09 2.34679e+09 2.3611e+09 1
000 153 1 0 2.37057e+09 2.37082e+09 2.37184e+09 2.37227e+09 1
001 154 1 0 2.38101e+09 2.38126e+09 2.38228e+09 2.39328e+09 0
001 155 1 0 2.39773e+09 2.39798e+09 2.399e+09 2.39949e+09 0
001 156 2 1 2.4021e+09 2.40235e+09 2.40337e+09 2.42506e+09 0
001 157 1 0 2.42975e+09 2.43001e+09 2.43103e+09 2.43178e+09 0
001 158 2 1 2.44444e+09 2.44468e+09 2.4457e+09 2.44752e+09 0
001 159 1 0 2.45603e+09 2.45629e+09 2.45731e+09 2.45837e+09 0
001 160 1 1 2.46127e+09 2.46151e+09 2.46253e+09 2.46816e+09 0
000 161 1 1 2.47532e+09 2.47556e+09 2.47658e+09 2.49263e+09 1
000 162 1 0 2.49968e+09 2.49992e+09 2.50094e+09 2.50121e+09 1
001 163 2 1 2.50432e+09 2.50458e+09 2.50559e+09 2.50919e+09 0
001 164 1 1 2.51266e+09 2.51291e+09 2.51393e+09 2.57368e+09 0
000 165 1 0 2.58547e+09 2.58571e+09 2.58673e+09 2.58798e+09 1
001 166 1 1 2.59181e+09 2.59206e+09 2.59308e+09 2.59396e+09 0
000 167 1 1 2.60121e+09 2.60146e+09 2.60248e+09 2.60256e+09 1
000 168 1 1 2.60994e+09 2.6102e+09 2.61122e+09 2.61326e+09 1
000 169 1 0 2.62065e+09 2.6209e+09 2.62192e+09 2.62611e+09 1
001 170 2 1 2.6306e+09 2.63085e+09 2.63187e+09 2.63259e+09 0
001 171 2 1 2.63666e+09 2.63692e+09 2.63793e+09 2.64136e+09 0
001 172 2 1 2.64625e+09 2.6465e+09 2.64752e+09 2.64832e+09 0
001 173 1 1 2.6558e+09 2.65604e+09 2.65706e+09 2.65722e+09 0
000 174 1 0 2.66626e+09 2.6665e+09 2.66752e+09 2.6942e+09 1
001 175 1 0 2.70508e+09 2.70533e+09 2.70635e+09 2.71953e+09 0
001 176 2 1 2.72199e+09 2.72223e+09 2.72325e+09 2.72325e+09 0
001 177 2 0 2.72571e+09 2.72595e+09 2.72697e+09 2.74159e+09 0
000 178 2 0 2.74877e+09 2.74902e+09 2.75004e+09 2.75674e+09 1
000 179 2 0 2.76389e+09 2.76414e+09 2.76516e+09 2.76692e+09 1
000 180 2 1 2.7744e+09 2.77464e+09 2.77566e+09 2.78894e+09 1
001 181 2 1 2.79785e+09 2.79809e+09 2.79911e+09 2.79918e+09 0
001 182 1 0 2.80661e+09 2.80686e+09 2.80788e+09 2.80882e+09 0
001 183 1 0 2.83798e+09 2.83822e+09 2.83924e+09 2.8399e+09 0
001 184 1 0 2.84815e+09 2.8484e+09 2.84942e+09 2.85011e+09 0
001 185 2 1 2.86334e+09 2.86359e+09 2.86461e+09 2.86524e+09 0
001 186 2 0 2.87905e+09 2.8793e+09 2.88032e+09 2.88187e+09 0
000 187 2 0 2.90457e+09 2.90486e+09 2.90588e+09 2.90608e+09 1
000 188 2 0 2.91592e+09 2.91618e+09 2.9172e+09 2.92157e+09 1
000 189 2 1 2.92936e+09 2.92962e+09 2.93064e+09 2.93099e+09 1
001 190 1 0 2.94319e+09 2.94345e+09 2.94446e+09 2.94474e+09 0
001 191 1 0 2.95281e+09 2.95306e+09 2.95407e+09 2.95494e+09 0
001 192 1 1 2.96533e+09 2.96557e+09 2.96659e+09 2.9689e+09 0
000 193 1 0 2.97629e+09 2.97654e+09 2.97756e+09 2.97863e+09 1
001 194 1 0 2.98801e+09 2.98825e+09 2.98927e+09 2.98982e+09 0
001 195 2 0 2.99763e+09 2.99787e+09 2.99889e+09 3.00064e+09 0
000 196 2 0 3.01112e+09 3.01137e+09 3.01239e+09 3.01559e+09 1
000 197 2 1 3.02483e+09 3.02508e+09 3.0261e+09 3.0261e+09 1
001 198 2 0 3.02851e+09 3.02876e+09 3.02978e+09 3.03018e+09 0
000 199 2 0 3.03798e+09 3.03824e+09 3.03925e+09 3.04378e+09 1
000 200 2 1 3.05402e+09 3.05428e+09 3.0553e+09 3.05702e+09 1
001 201 1 0 3.06479e+09 3.06503e+09 3.06605e+09 3.08497e+09 0
001 202 2 0 3.09017e+09 3.09042e+09 3.09144e+09 3.09151e+09 0
000 203 2 1 3.10036e+09 3.10061e+09 3.10163e+09 3.1022e+09 1
001 204 2 0 3.10547e+09 3.10572e+09 3.10674e+09 3.10769e+09 0
000 205 2 0 3.11632e+09 3.11656e+09 3.11758e+09 3.12056e+09 1
000 206 2 0 3.13092e+09 3.13117e+09 3.13219e+09 3.13343e+09 1
000 207 2 0 3.14799e+09 3.14824e+09 3.14926e+09 3.14975e+09 1
000 208 2 0 3.1615e+09 3.16174e+09 3.16276e+09 3.16338e+09 0
000 209 1 0 3.1718e+09 3.17205e+09 3.17307e+09 3.17335e+09 0
001 210 1 0 3.18219e+09 3.18243e+09 3.18345e+09 3.18389e+09 0
001 211 1 1 3.19305e+09 3.19329e+09 3.19431e+09 3.1947e+09 0
000 212 1 1 3.20284e+09 3.20309e+09 3.20411e+09 3.20489e+09 1
000 213 1 1 3.21857e+09 3.21882e+09 3.21984e+09 3.22053e+09 1
000 214 1 0 3.22778e+09 3.22802e+09 3.22904e+09 3.23424e+09 1
001 215 2 1 3.24377e+09 3.24403e+09 3.24505e+09 3.24777e+09 0
001 216 1 0 3.25381e+09 3.25407e+09 3.25509e+09 3.25886e+09 0
001 217 2 1 3.27069e+09 3.27095e+09 3.27196e+09 3.27217e+09 0
001 218 2 0 3.27494e+09 3.2752e+09 3.27622e+09 3.27687e+09 0
000 219 2 0 3.28605e+09 3.2863e+09 3.28732e+09 3.28813e+09 1
000 220 2 0 3.29528e+09 3.29553e+09 3.29655e+09 3.29742e+09 1
000 221 2 1 3.30479e+09 3.30504e+09 3.30606e+09 3.3064e+09 1
001 222 2 1 3.3179e+09 3.31814e+09 3.31916e+09 3.31971e+09 0
001 223 2 0 3.33168e+09 3.33193e+09 3.33295e+09 3.33332e+09 0
000 224 2 0 3.34076e+09 3.34102e+09 3.34204e+09 3.34508e+09 1
000 225 2 0 3.35237e+09 3.35262e+09 3.35364e+09 3.35434e+09 1
000 226 2 0 3.36478e+09 3.36504e+09 3.36606e+09 3.37352e+09 1
000 227 1 0 3.38098e+09 3.38123e+09 3.38225e+09 3.38266e+09 0
001 228 1 0 3.3885e+09 3.38875e+09 3.38977e+09 3.39001e+09 0
001 229 2 0 3.39271e+09 3.39297e+09 3.39399e+09 3.39608e+09 0
000 230 2 0 3.40946e+09 3.40971e+09 3.41073e+09 3.41473e+09 1
000 231 2 0 3.42459e+09 3.42485e+09 3.42587e+09 3.42591e+09 1
000 232 2 0 3.43305e+09 3.43329e+09 3.43431e+09 3.4345e+09 1
000 233 1 0 3.44299e+09 3.44324e+09 3.44426e+09 3.44469e+09 0
001 234 2 1 3.45413e+09 3.45437e+09 3.45539e+09 3.4554e+09 0
001 235 2 1 3.45908e+09 3.45933e+09 3.46035e+09 3.46166e+09 0
001 236 1 0 3.46876e+09 3.46901e+09 3.47003e+09 3.47181e+09 0
001 237 2 0 3.47617e+09 3.47642e+09 3.47744e+09 3.47875e+09 0
000 238 2 0 3.4863e+09 3.48654e+09 3.48756e+09 3.49503e+09 1
000 239 2 0 3.50225e+09 3.50251e+09 3.50353e+09 3.50452e+09 1
000 240 2 1 3.51182e+09 3.51208e+09 3.5131e+09 3.51331e+09 1
001 241 2 0 3.51934e+09 3.51959e+09 3.52061e+09 3.52092e+09 0
000 242 2 0 3.52841e+09 3.52866e+09 3.52967e+09 3.53537e+09 1
000 243 2 0 3.54277e+09 3.54301e+09 3.54403e+09 3.54475e+09 1
000 244 2 1 3.55351e+09 3.55376e+09 3.55478e+09 3.55483e+09 1
001 245 1 1 3.57524e+09 3.57549e+09 3.57651e+09 3.57654e+09 0
000 246 1 1 3.58439e+09 3.58463e+09 3.58565e+09 3.58572e+09 1
000 247 1 0 3.59293e+09 3.59318e+09 3.5942e+09 3.59647e+09 1
001 248 2 1 3.59898e+09 3.59923e+09 3.60025e+09 3.61632e+09 0
001 249 1 0 3.62087e+09 3.62112e+09 3.62214e+09 3.62329e+09 0
001 250 2 1 3.63705e+09 3.6373e+09 3.63832e+09 3.63854e+09 0
001 251 2 1 3.64966e+09 3.64996e+09 3.65098e+09 3.6669e+09 0
001 252 2 0 3.67311e+09 3.67336e+09 3.67438e+09 3.67555e+09 0
000 253 2 1 3.69073e+09 3.69098e+09 3.692e+09 3.69211e+09 1
001 254 1 0 3.6978e+09 3.69804e+09 3.69906e+09 3.69911e+09 0
001 255 2 0 3.7059e+09 3.70615e+09 3.70717e+09 3.70744e+09 0
000 256 2 0 3.71483e+09 3.71508e+09 3.7161e+09 3.71643e+09 1
000 257 2 1 3.72378e+09 3.72403e+09 3.72505e+09 3.7272e+09 1
001 258 1 0 3.73356e+09 3.73382e+09 3.73484e+09 3.73595e+09 0
001 259 2 1 3.73927e+09 3.73952e+09 3.74053e+09 3.74307e+09 0
001 260 1 1 3.74714e+09 3.74739e+09 3.74841e+09 3.74936e+09 0
000 261 1 1 3.75682e+09 3.75708e+09 3.75809e+09 3.75903e+09 1
000 262 1 1 3.76634e+09 3.76659e+09 3.76761e+09 3.772e+09 1
000 263 1 0 3.7794e+09 3.77966e+09 3.78068e+09 3.7808e+09 1
001 264 2 0 3.79047e+09 3.79072e+09 3.79174e+09 3.7918e+09 0
000 265 2 1 3.80344e+09 3.80369e+09 3.80471e+09 3.80538e+09 1
001 266 1 1 3.81378e+09 3.81403e+09 3.81505e+09 3.8157e+09 0
000 267 1 0 3.8228e+09 3.82304e+09 3.82406e+09 3.83326e+09 1
001 268 1 0 3.84186e+09 3.84211e+09 3.84312e+09 3.85451e+09 0
001 269 2 0 3.85958e+09 3.85983e+09 3.86085e+09 3.86113e+09 0
000 270 2 0 3.8682e+09 3.86845e+09 3.86947e+09 3.87101e+09 1
000 271 2 0 3.87835e+09 3.8786e+09 3.87962e+09 3.88061e+09 1
000 272 2 0 3.88899e+09 3.88924e+09 3.89026e+09 3.89215e+09 1
000 273 1 0 3.89944e+09 3.8997e+09 3.90072e+09 3.90135e+09 0
001 274 2 0 3.91223e+09 3.91248e+09 3.9135e+09 3.91361e+09 0
000 275 2 0 3.92071e+09 3.92095e+09 3.92197e+09 3.93827e+09 1
000 276 2 0 3.94652e+09 3.94677e+09 3.94779e+09 3.94784e+09 1
000 277 2 0 3.96633e+09 3.96659e+09 3.96761e+09 3.96764e+09 1
000 278 2 0 3.97856e+09 3.97882e+09 3.97983e+09 3.98777e+09 0
000 279 1 0 3.9953e+09 3.99555e+09 3.99657e+09 3.99692e+09 0
001 280 2 0 4.00193e+09 4.00219e+09 4.00321e+09 4.00378e+09 0
000 281 2 0 4.01128e+09 4.01154e+09 4.01256e+09 4.01286e+09 1
000 282 2 0 4.02247e+09 4.02272e+09 4.02374e+09 4.02396e+09 1
000 283 2 0 4.0339e+09 4.03416e+09 4.03517e+09 4.04158e+09 1
000 284 2 0 4.05098e+09 4.05123e+09 4.05225e+09 4.05308e+09 0
000 285 2 0 4.06017e+09 4.06043e+09 4.06144e+09 4.06338e+09 0
000 286 1 0 4.07188e+09 4.07214e+09 4.07315e+09 4.07364e+09 0
001 287 1 0 4.07961e+09 4.07986e+09 4.08087e+09 4.08103e+09 0
001 288 1 1 4.08889e+09 4.08914e+09 4.09016e+09 4.09348e+09 0
000 289 1 0 4.10089e+09 4.10115e+09 4.10217e+09 4.1116e+09 1
001 290 1 0 4.11423e+09 4.11448e+09 4.1155e+09 4.12179e+09 0
001 291 1 0 4.12438e+09 4.12463e+09 4.12565e+09 4.13054e+09 0
001 292 1 1 4.13305e+09 4.1333e+09 4.13432e+09 4.14277e+09 0
000 293 1 1 4.15247e+09 4.15272e+09 4.15374e+09 4.1542e+09 1
000 294 1 0 4.17042e+09 4.17068e+09 4.1717e+09 4.17184e+09 1
001 295 2 1 4.17687e+09 4.17713e+09 4.17815e+09 4.17834e+09 0
001 296 2 0 4.18247e+09 4.18272e+09 4.18374e+09 4.18378e+09 0
000 297 2 1 4.19109e+09 4.19136e+09 4.19238e+09 4.19326e+09 1
001 298 1 0 4.20421e+09 4.20447e+09 4.20549e+09 4.20601e+09 0
001 299 1 0 4.21109e+09 4.21134e+09 4.21236e+09 4.21279e+09 0
001 300 2 0 4.22003e+09 4.22028e+09 4.2213e+09 4.22163e+09 0
000 301 2 1 4.22872e+09 4.22898e+09 4.22999e+09 4.23314e+09 1
001 302 2 1 4.23711e+09 4.23736e+09 4.23838e+09 4.23845e+09 0
001 303 1 0 4.24779e+09 4.24805e+09 4.24907e+09 4.25205e+09 0
001 304 2 0 4.26056e+09 4.26082e+09 4.26184e+09 4.26213e+09 0
000 305 2 0 4.27431e+09 4.27457e+09 4.27559e+09 4.27565e+09 1
000 306 2 1 4.28649e+09 4.28674e+09 4.28776e+09 4.28793e+09 1
001 307 1 1 4.29196e+09 4.29222e+09 4.29324e+09 4.29413e+09 0
000 308 1 1 7.22024e+06 7.471e+06 8.48992e+06 8.66554e+06 1
000 309 1 0 1.57102e+07 1.59655e+07 1.69844e+07 1.73343e+07 1
001 310 1 0 2.49293e+07 2.51815e+07 2.62004e+07 2.75876e+07 0
001 311 1 0 3.08275e+07 3.10741e+07 3.2093e+07 3.25199e+07 0
001 312 1 0 4.15754e+07 4.18302e+07 4.28491e+07 4.30601e+07 0
001 313 1 1 4.95053e+07 4.97587e+07 5.07777e+07 5.08348e+07 0
000 314 1 0 5.85575e+07 5.88137e+07 5.98326e+07 6.02166e+07 1
001 315 2 0 6.8139e+07 6.83893e+07 6.94082e+07 6.96398e+07 0
000 316 2 0 8.09984e+07 8.12493e+07 8.22682e+07 8.23515e+07 1
000 317 2 0 9.00291e+07 9.02765e+07 9.12954e+07 9.6289e+07 1
000 318 2 1 1.03525e+08 1.03787e+08 1.04806e+08 1.16171e+08 1
001 319 2 0 1.19458e+08 1.1971e+08 1.20729e+08 1.21025e+08 0
000 320 2 1 1.28166e+08 1.28428e+08 1.29447e+08 1.30843e+08 1
001 321 2 0 1.34314e+08 1.34567e+08 1.35586e+08 1.40307e+08 0
000 322 2 0 1.4928e+08 1.49532e+08 1.50551e+08 1.55681e+08 1
000 323 2 0 1.62844e+08 1.63104e+08 1.64123e+08 1.68911e+08 1
000 324 2 0 1.79578e+08 1.79825e+08 1.80844e+08 1.88442e+08 1
000 325 2 0 1.95752e+08 1.96013e+08 1.97032e+08 2.06188e+08 0
000 326 2 1 2.15793e+08 2.16044e+08 2.17063e+08 2.25184e+08 0
001 327 1 0 2.36301e+08 2.36562e+08 2.37581e+08 2.3871e+08 0
001 328 1 0 2.51535e+08 2.51794e+08 2.52813e+08 2.68245e+08 0
001 329 2 0 2.70667e+08 2.70926e+08 2.71945e+08 2.72568e+08 0
000 330 2 0 2.79692e+08 2.79956e+08 2.80975e+08 2.88133e+08 1
000 331 2 0 2.95258e+08 2.95512e+08 2.96531e+08 3.13753e+08 1
000 332 2 0 3.23627e+08 3.23887e+08 3.24905e+08 3.24963e+08 1
000 333 2 0 3.32584e+08 3.32836e+08 3.33855e+08 3.35784e+08 0
000 334 2 0 3.44525e+08 3.44773e+08 3.45791e+08 3.48105e+08 0
000 335 1 0 3.55572e+08 3.55821e+08 3.5684e+08 3.57049e+08 0
001 336 1 0 3.62351e+08 3.62598e+08 3.63617e+08 3.6435e+08 0
001 337 1 1 3.71671e+08 3.7192e+08 3.72939e+08 3.79315e+08 0
000 338 1 0 3.99332e+08 3.99578e+08 4.00597e+08 4.01162e+08 1
001 339 1 0 4.03966e+08 4.04221e+08 4.0524e+08 4.05782e+08 0
001 340 1 0 4.21257e+08 4.2151e+08 4.22529e+08 4.23179e+08 0
001 341 1 0 4.3161e+08 4.3187e+08 4.32889e+08 4.3336e+08 0
001 342 2 0 4.35993e+08 4.36247e+08 4.37266e+08 4.5588e+08 0
000 343 2 0 4.63378e+08 4.63627e+08 4.64646e+08 4.65159e+08 1
000 344 2 1 4.74186e+08 4.7444e+08 4.75459e+08 4.75693e+08 1
001 345 2 0 4.79037e+08 4.79296e+08 4.80315e+08 4.83953e+08 0
000 346 2 0 4.9121e+08 4.91463e+08 4.92482e+08 4.92747e+08 1
000 347 2 0 5.00645e+08 5.00894e+08 5.01913e+08 5.02289e+08 1
000 348 2 0 5.09743e+08 5.09991e+08 5.1101e+08 5.12024e+08 1
000 349 2 0 5.19138e+08 5.19396e+08 5.20415e+08 5.20779e+08 0
000 350 1 0 5.2823e+08 5.28481e+08 5.295e+08 5.30064e+08 0
001 351 1 0 5.36236e+08 5.36498e+08 5.37517e+08 5.49505e+08 0
001 352 2 0 5.52521e+08 5.52779e+08 5.53798e+08 5.64604e+08 0
000 353 2 0 5.71734e+08 5.71984e+08 5.73003e+08 5.77056e+08 1
000 354 2 0 5.90944e+08 5.91204e+08 5.92223e+08 5.93337e+08 1
000 355 2 0 6.05448e+08 6.05707e+08 6.06726e+08 6.07222e+08 1
000 356 2 0 6.17743e+08 6.17992e+08 6.19011e+08 6.20033e+08 0
000 357 1 0 6.28553e+08 6.28806e+08 6.29825e+08 6.30362e+08 0
001 358 1 0 6.32841e+08 6.33103e+08 6.34122e+08 6.35507e+08 0
001 359 1 0 6.40628e+08 6.40885e+08 6.41904e+08 6.43146e+08 0
001 360 1 0 6.47419e+08 6.47665e+08 6.48684e+08 6.48986e+08 0
001 361 1 0 6.61926e+08 6.62175e+08 6.63193e+08 6.63324e+08 0
001 362 1 0 6.67871e+08 6.68112e+08 6.69131e+08 6.6929e+08 0
001 363 1 0 6.78752e+08 6.79005e+08 6.80024e+08 6.8043e+08 0
001 364 2 0 6.8741e+08 6.87663e+08 6.88682e+08 6.90728e+08 0
000 365 2 0 7.00297e+08 7.00559e+08 7.01578e+08 7.23647e+08 1
000 366 2 0 7.31148e+08 7.31395e+08 7.32414e+08 7.5066e+08 1
000 367 2 0 7.5794e+08 7.58183e+08 7.59202e+08 7.61293e+08 1
000 368 2 0 7.68657e+08 7.6891e+08 7.69929e+08 7.72902e+08 0
000 369 1 0 7.80381e+08 7.8064e+08 7.81659e+08 7.83053e+08 0
001 370 2 0 7.86382e+08 7.86638e+08 7.87657e+08 7.87956e+08 0
000 371 2 0 7.95466e+08 7.95717e+08 7.96736e+08 8.34039e+08 1
000 372 2 0 8.41172e+08 8.41417e+08 8.42436e+08 8.43043e+08 1
000 373 2 0 8.50334e+08 8.50594e+08 8.51613e+08 8.67392e+08 1
000 374 1 0 8.74852e+08 8.75109e+08 8.76128e+08 8.89651e+08 0
001 375 1 1 8.92212e+08 8.9246e+08 8.93479e+08 8.93547e+08 0
000 376 1 0 9.02891e+08 9.03152e+08 9.04171e+08 9.05718e+08 1
001 377 2 0 9.09471e+08 9.0972e+08 9.10739e+08 9.11455e+08 0
000 378 2 0 9.18924e+08 9.19176e+08 9.20195e+08 9.21497e+08 1
000 379 2 0 9.28854e+08 9.29105e+08 9.30124e+08 9.4274e+08 1
000 380 2 0 9.49904e+08 9.50166e+08 9.51185e+08 9.521e+08 1
000 381 2 0 9.61132e+08 9.61382e+08 9.62401e+08 9.62836e+08 0
000 382 1 0 9.70027e+08 9.70286e+08 9.71305e+08 9.7166e+08 0
001 383 2 0 9.77583e+08 9.7784e+08 9.78859e+08 9.79442e+08 0
000 384 2 0 9.86904e+08 9.87162e+08 9.88181e+08 9.8939e+08 1
000 385 2 0 9.99455e+08 9.99717e+08 1.00074e+09 1.00153e+09 1
000 386 2 1 1.01115e+09 1.01141e+09 1.01243e+09 1.01454e+09 1
001 387 2 1 1.01896e+09 1.01921e+09 1.02023e+09 1.0203e+09 0
001 388 1 1 1.0229e+09 1.02316e+09 1.02418e+09 1.02682e+09 0
000 389 1 0 1.03425e+09 1.0345e+09 1.03552e+09 1.03596e+09 1
001 390 2 0 1.03981e+09 1.04007e+09 1.04109e+09 1.05169e+09 0
000 391 2 0 1.05874e+09 1.05901e+09 1.06003e+09 1.06637e+09 1
000 392 2 1 1.07366e+09 1.07392e+09 1.07493e+09 1.07723e+09 1
001 393 2 0 1.07963e+09 1.07989e+09 1.08091e+09 1.08879e+09 0
000 394 2 0 1.09599e+09 1.09625e+09 1.09727e+09 1.09837e+09 1
000 395 2 0 1.10585e+09 1.1061e+09 1.10712e+09 1.11291e+09 1
000 396 2 0 1.12089e+09 1.12114e+09 1.12216e+09 1.1242e+09 1
000 397 1 0 1.13157e+09 1.13183e+09 1.13285e+09 1.13341e+09 0
001 398 2 0 1.13728e+09 1.13754e+09 1.13856e+09 1.13936e+09 0
000 399 2 0 1.14734e+09 1.14759e+09 1.14861e+09 1.16102e+09 1
000 400 2 0 1.16814e+09 1.16839e+09 1.16941e+09 1.17018e+09 1
000 401 2 1 1.17727e+09 1.17753e+09 1.17855e+09 1.18607e+09 1
001 402 1 0 1.18852e+09 1.18877e+09 1.18979e+09 1.19031e+09 0
001 403 1 1 1.19668e+09 1.19694e+09 1.19796e+09 1.1992e+09 0
000 404 1 1 1.20776e+09 1.20802e+09 1.20903e+09 1.21103e+09 1
000 405 1 1 1.21864e+09 1.21889e+09 1.21991e+09 1.2214e+09 1
000 406 1 1 1.23286e+09 1.23311e+09 1.23413e+09 1.23424e+09 1
000 407 2 0 1.24249e+09 1.24275e+09 1.24377e+09 1.25409e+09 0
000 408 1 0 1.26178e+09 1.26204e+09 1.26305e+09 1.28303e+09 0
001 409 2 1 1.29058e+09 1.29083e+09 1.29185e+09 1.2927e+09 0
001 410 1 0 1.30127e+09 1.30151e+09 1.30253e+09 1.30358e+09 0
001 411 1 0 1.30648e+09 1.30673e+09 1.30775e+09 1.30798e+09 0
001 412 2 0 1.31203e+09 1.31229e+09 1.3133e+09 1.31334e+09 0
000 413 2 1 1.32149e+09 1.32175e+09 1.32276e+09 1.32441e+09 1
001 414 1 0 1.32841e+09 1.32866e+09 1.32968e+09 1.34129e+09 0
001 415 1 0 1.34395e+09 1.3442e+09 1.34522e+09 1.34592e+09 0
001 416 2 0 1.3511e+09 1.35136e+09 1.35237e+09 1.35654e+09 0
000 417 2 1 1.36551e+09 1.36577e+09 1.36679e+09 1.36702e+09 1
001 418 1 1 1.36997e+09 1.37023e+09 1.37125e+09 1.37338e+09 0
000 419 1 1 1.38131e+09 1.38157e+09 1.38259e+09 1.38523e+09 1
000 420 1 1 1.39578e+09 1.39603e+09 1.39705e+09 1.40327e+09 1
000 421 1 0 1.41056e+09 1.41082e+09 1.41184e+09 1.43859e+09 1
001 422 2 1 1.44144e+09 1.4417e+09 1.44272e+09 1.44522e+09 0
001 423 2 0 1.45007e+09 1.45032e+09 1.45134e+09 1.45178e+09 0
000 424 2 0 1.45909e+09 1.45934e+09 1.46036e+09 1.48659e+09 1
000 425 2 0 1.49667e+09 1.49692e+09 1.49794e+09 1.49809e+09 1
000 426 2 0 1.50594e+09 1.5062e+09 1.50722e+09 1.50783e+09 1
000 427 1 0 1.51562e+09 1.51588e+09 1.5169e+09 1.51716e+09 0
001 428 1 0 1.52302e+09 1.52327e+09 1.52429e+09 1.52446e+09 0
001 429 2 0 1.52986e+09 1.53011e+09 1.53113e+09 1.53156e+09 0
000 430 2 0 1.53859e+09 1.53884e+09 1.53986e+09 1.54065e+09 1
000 431 2 0 1.54823e+09 1.54849e+09 1.54951e+09 1.55016e+09 1
000 432 2 1 1.55976e+09 1.56002e+09 1.56104e+09 1.56137e+09 1
001 433 1 0 1.5644e+09 1.56466e+09 1.56568e+09 1.56633e+09 0
001 434 2 0 1.57054e+09 1.57079e+09 1.57181e+09 1.57183e+09 0
000 435 2 0 1.57929e+09 1.57955e+09 1.58057e+09 1.5827e+09 1
000 436 2 0 1.59089e+09 1.59115e+09 1.59217e+09 1.609e+09 1
000 437 2 1 1.61618e+09 1.61644e+09 1.61746e+09 1.61753e+09 1
001 438 2 0 1.62704e+09 1.62729e+09 1.62831e+09 1.62945e+09 0
000 439 2 0 1.63775e+09 1.638e+09 1.63902e+09 1.64167e+09 1
000 440 2 1 1.64874e+09 1.64899e+09 1.65001e+09 1.65988e+09 1
001 441 1 0 1.66347e+09 1.66371e+09 1.66473e+09 1.66485e+09 0
001 442 1 1 1.67198e+09 1.67224e+09 1.67326e+09 1.67362e+09 0
000 443 1 0 1.68215e+09 1.68241e+09 1.68343e+09 1.68371e+09 1
001 444 1 0 1.68624e+09 1.68649e+09 1.68751e+09 1.68815e+09 0
001 445 2 0 1.69055e+09 1.6908e+09 1.69182e+09 1.69199e+09 0
000 446 2 1 1.70021e+09 1.70047e+09 1.70149e+09 1.70869e+09 1
001 447 1 0 1.71613e+09 1.71638e+09 1.7174e+09 1.73993e+09 0
001 448 2 0 1.74677e+09 1.74703e+09 1.74805e+09 1.74835e+09 0
000 449 2 1 1.75768e+09 1.75793e+09 1.75895e+09 1.75972e+09 1
001 450 2 1 1.76278e+09 1.76302e+09 1.76404e+09 1.7652e+09 0
001 451 2 1 1.76864e+09 1.76889e+09 1.76991e+09 1.77183e+09 0
001 452 1 0 1.78058e+09 1.78084e+09 1.78186e+09 1.78213e+09 0
001 453 1 0 1.78689e+09 1.78714e+09 1.78816e+09 1.78905e+09 0
001 454 2 0 1.79245e+09 1.7927e+09 1.79372e+09 1.79377e+09 0
000 455 2 0 1.80106e+09 1.80131e+09 1.80233e+09 1.82235e+09 1
000 456 2 0 1.82945e+09 1.8297e+09 1.83072e+09 1.85671e+09 1
000 457 2 0 1.8642e+09 1.86446e+09 1.86548e+09 1.86953e+09 1
000 458 1 0 1.87686e+09 1.87712e+09 1.87814e+09 1.87831e+09 0
001 459 1 0 1.88341e+09 1.88367e+09 1.88468e+09 1.8849e+09 0
001 460 2 1 1.88771e+09 1.88796e+09 1.88897e+09 1.88936e+09 0
001 461 2 1 1.89434e+09 1.89459e+09 1.89561e+09 1.8961e+09 0
001 462 2 1 1.89964e+09 1.89989e+09 1.90091e+09 1.90097e+09 0
001 463 1 1 1.90979e+09 1.91005e+09 1.91107e+09 1.91193e+09 0
000 464 1 1 1.91915e+09 1.91941e+09 1.92043e+09 1.92423e+09 1
000 465 1 0 1.9331e+09 1.93336e+09 1.93438e+09 1.93476e+09 1
001 466 1 1 1.93995e+09 1.94021e+09 1.94123e+09 1.94168e+09 0
000 467 1 0 1.94954e+09 1.9498e+09 1.95082e+09 1.9511e+09 1
001 468 2 1 1.96193e+09 1.96219e+09 1.96321e+09 1.96371e+09 0
001 469 1 1 1.96914e+09 1.9694e+09 1.97041e+09 1.97987e+09 0
000 470 1 1 1.98702e+09 1.98727e+09 1.98829e+09 2.0035e+09 1
000 471 1 0 2.0172e+09 2.01745e+09 2.01847e+09 2.01894e+09 1
001 472 2 0 2.02137e+09 2.02162e+09 2.02264e+09 2.02273e+09 0
000 473 2 0 2.03071e+09 2.03096e+09 2.03198e+09 2.03203e+09 1
000 474 2 0 2.04044e+09 2.04069e+09 2.04171e+09 2.07886e+09 1
000 475 2 1 2.0862e+09 2.08646e+09 2.08748e+09 2.08778e+09 1
001 476 2 0 2.09167e+09 2.09193e+09 2.09295e+09 2.09502e+09 0
000 477 2 0 2.10251e+09 2.10276e+09 2.10378e+09 2.12847e+09 1
000 478 2 0 2.13665e+09 2.13691e+09 2.13793e+09 2.15217e+09 1
000 479 2 0 2.16272e+09 2.16298e+09 2.164e+09 2.20629e+09 1
000 480 2 1 2.21378e+09 2.21403e+09 2.21505e+09 2.21582e+09 0
001 481 2 1 2.22248e+09 2.22274e+09 2.22376e+09 2.22586e+09 0
001 482 1 1 2.22833e+09 2.22859e+09 2.22961e+09 2.23303e+09 0
000 483 1 0 2.24037e+09 2.24062e+09 2.24164e+09 2.24177e+09 1
001 484 1 0 2.25169e+09 2.25195e+09 2.25297e+09 2.25389e+09 0
001 485 1 0 2.25852e+09 2.25877e+09 2.25979e+09 2.2613e+09 0
001 486 1 0 2.26433e+09 2.26459e+09 2.26561e+09 2.26585e+09 0
001 487 2 1 2.26927e+09 2.26953e+09 2.27055e+09 2.27124e+09 0
001 488 2 0 2.28258e+09 2.28284e+09 2.28386e+09 2.2845e+09 0
000 489 2 0 2.2933e+09 2.29355e+09 2.29457e+09 2.2959e+09 1
000 490 2 0 2.30567e+09 2.30593e+09 2.30694e+09 2.36586e+09 1
000 491 2 0 2.374e+09 2.37425e+09 2.37527e+09 2.37584e+09 1
000 492 2 0 2.38412e+09 2.38439e+09 2.3854e+09 2.40362e+09 0
000 493 2 0 2.41093e+09 2.41117e+09 2.41219e+09 2.44592e+09 0
000 494 2 1 2.45313e+09 2.45338e+09 2.4544e+09 2.48366e+09 0
001 495 1 1 2.48729e+09 2.48754e+09 2.48856e+09 2.48873e+09 0
000 496 1 0 2.49622e+09 2.49647e+09 2.49749e+09 2.49797e+09 1
001 497 1 1 2.50567e+09 2.50591e+09 2.50693e+09 2.50793e+09 0
000 498 1 0 2.5154e+09 2.51565e+09 2.51667e+09 2.5198e+09 1
001 499 1 0 2.52893e+09 2.52918e+09 2.5302e+09 2.53026e+09 0
001 500 1 0 2.54098e+09 2.54123e+09 2.54225e+09 2.54345e+09 0
001 501 1 0 2.55476e+09 2.555e+09 2.55602e+09 2.55625e+09 0
001 502 2 0 2.55939e+09 2.55964e+09 2.56066e+09 2.56293e+09 0
000 503 2 1 2.57126e+09 2.57152e+09 2.57254e+09 2.57354e+09 1
001 504 2 0 2.57633e+09 2.57657e+09 2.57759e+09 2.57956e+09 0
000 505 2 0 2.58683e+09 2.58708e+09 2.5881e+09 2.58815e+09 1
000 506 2 1 2.59536e+09 2.59561e+09 2.59663e+09 2.59679e+09 1
001 507 2 0 2.60383e+09 2.60408e+09 2.60509e+09 2.60573e+09 0
000 508 2 0 2.61281e+09 2.61306e+09 2.61408e+09 2.63423e+09 1
000 509 2 0 2.64138e+09 2.64164e+09 2.64266e+09 2.64281e+09 1
000 510 2 0 2.65009e+09 2.65035e+09 2.65137e+09 2.65227e+09 1
000 511 2 0 2.65951e+09 2.65977e+09 2.66079e+09 2.69489e+09 0
000 512 2 0 2.70243e+09 2.70268e+09 2.7037e+09 2.71087e+09 0
000 513 2 1 2.71808e+09 2.71832e+09 2.71934e+09 2.75366e+09 0
001 514 2 0 2.75643e+09 2.75668e+09 2.7577e+09 2.76284e+09 0
000 515 2 0 2.77116e+09 2.77141e+09 2.77243e+09 2.77546e+09 1
000 516 2 0 2.78256e+09 2.78281e+09 2.78383e+09 2.78586e+09 1
000 517 2 1 2.79322e+09 2.79347e+09 2.79449e+09 2.80313e+09 1
001 518 1 0 2.80558e+09 2.80583e+09 2.80685e+09 2.80693e+09 0
001 519 2 0 2.80957e+09 2.80982e+09 2.81084e+09 2.81098e+09 0
000 520 2 0 2.81905e+09 2.8193e+09 2.82032e+09 2.83814e+09 1
000 521 2 0 2.84546e+09 2.84571e+09 2.84673e+09 2.84972e+09 1
000 522 2 1 2.85717e+09 2.85742e+09 2.85844e+09 2.86614e+09 1
001 523 1 1 2.86969e+09 2.86994e+09 2.87096e+09 2.87228e+09 0
000 524 1 1 2.87934e+09 2.87959e+09 2.88061e+09 2.88902e+09 1
000 525 1 1 2.89607e+09 2.89632e+09 2.89734e+09 2.94665e+09 1
000 526 1 0 2.9537e+09 2.95395e+09 2.95497e+09 2.95576e+09 1
001 527 2 0 2.95908e+09 2.95933e+09 2.96035e+09 2.97217e+09 0
000 528 2 0 2.9793e+09 2.97955e+09 2.98057e+09 2.98101e+09 1
000 529 2 0 2.98813e+09 2.98838e+09 2.9894e+09 3.00611e+09 1
000 530 2 0 3.01331e+09 3.01356e+09 3.01457e+09 3.04656e+09 1
000 531 2 0 3.05373e+09 3.05399e+09 3.05501e+09 3.06707e+09 0
000 532 2 1 3.07447e+09 3.07473e+09 3.07575e+09 3.07932e+09 0
001 533 1 0 3.08376e+09 3.084e+09 3.08502e+09 3.08549e+09 0
001 534 1 0 3.09111e+09 3.09137e+09 3.09238e+09 3.09324e+09 0
001 535 2 1 3.09595e+09 3.09621e+09 3.09723e+09 3.11136e+09 0
001 536 1 0 3.11378e+09 3.11403e+09 3.11505e+09 3.11827e+09 0
001 537 1 0 3.12253e+09 3.12278e+09 3.1238e+09 3.12441e+09 0
001 538 2 0 3.13353e+09 3.13378e+09 3.1348e+09 3.14872e+09 0
000 539 2 1 3.15617e+09 3.15642e+09 3.15744e+09 3.16339e+09 1
001 540 1 1 3.16758e+09 3.16784e+09 3.16886e+09 3.1689e+09 0
000 541 1 1 3.17622e+09 3.17648e+09 3.1775e+09 3.18985e+09 1
000 542 1 1 3.1971e+09 3.19735e+09 3.19837e+09 3.27687e+09 1
000 543 1 0 3.28419e+09 3.28445e+09 3.28547e+09 3.3291e+09 1
001 544 2 0 3.33245e+09 3.33271e+09 3.33373e+09 3.3444e+09 0
000 545 2 1 3.3518e+09 3.35205e+09 3.35306e+09 3.35887e+09 1
001 546 2 0 3.36298e+09 3.36323e+09 3.36425e+09 3.39e+09 0
000 547 2 1 3.39707e+09 3.39732e+09 3.39834e+09 3.40495e+09 1
001 548 2 0 3.4079e+09 3.40815e+09 3.40917e+09 3.4473e+09 0
000 549 2 0 3.45447e+09 3.45473e+09 3.45575e+09 3.47893e+09 1
000 550 2 1 3.48635e+09 3.4866e+09 3.48762e+09 3.48912e+09 1
001 551 2 0 3.49364e+09 3.49389e+09 3.49491e+09 3.49942e+09 0
000 552 2 1 3.50912e+09 3.50938e+09 3.51039e+09 3.52772e+09 1
001 553 1 0 3.53061e+09 3.53086e+09 3.53188e+09 3.54043e+09 0
001 554 2 1 3.54299e+09 3.54323e+09 3.54425e+09 3.54467e+09 0
001 555 1 1 3.54988e+09 3.55013e+09 3.55115e+09 3.56623e+09 0
000 556 1 1 3.57342e+09 3.57366e+09 3.57468e+09 3.61271e+09 1
000 557 1 1 3.62021e+09 3.62045e+09 3.62147e+09 3.62169e+09 1
000 558 1 0 3.62873e+09 3.62898e+09 3.63e+09 3.63511e+09 1
001 559 1 1 3.63792e+09 3.63817e+09 3.63919e+09 3.6457e+09 0
000 560 1 1 3.65582e+09 3.65608e+09 3.6571e+09 3.67195e+09 1
000 561 1 1 3.67919e+09 3.67943e+09 3.68045e+09 3.70464e+09 1
000 562 1 1 3.71192e+09 3.71217e+09 3.71319e+09 3.74674e+09 1
000 563 2 0 3.75405e+09 3.7543e+09 3.75532e+09 3.79504e+09 0
000 564 1 0 3.80237e+09 3.80263e+09 3.80364e+09 3.83814e+09 0
001 565 2 0 3.84058e+09 3.84083e+09 3.84185e+09 3.86294e+09 0
000 566 2 1 3.87019e+09 3.87045e+09 3.87147e+09 3.88756e+09 1
001 567 1 1 3.89064e+09 3.8909e+09 3.89192e+09 3.90009e+09 0
000 568 1 1 3.90745e+09 3.90769e+09 3.90871e+09 3.98336e+09 1
000 569 1 1 3.99066e+09 3.99091e+09 3.99193e+09 4.00934e+09 1
000 570 1 0 4.01658e+09 4.01683e+09 4.01785e+09 4.02783e+09 1
001 571 2 0 4.03155e+09 4.0318e+09 4.03282e+09 4.03653e+09 0
000 572 2 0 4.04357e+09 4.04383e+09 4.04485e+09 4.05392e+09 1
000 573 2 0 4.06209e+09 4.06233e+09 4.06335e+09 4.07354e+09 1
000 574 2 1 4.08099e+09 4.08124e+09 4.08226e+09 4.10376e+09 1
001 575 2 0 4.1075e+09 4.10775e+09 4.10877e+09 4.11077e+09 0
000 576 2 1 4.11782e+09 4.11807e+09 4.11909e+09 4.12869e+09 1
001 577 1 1 4.13117e+09 4.13142e+09 4.13244e+09 4.13245e+09 0
000 578 1 0 4.1397e+09 4.13995e+09 4.14097e+09 4.15928e+09 1
001 579 2 0 4.1629e+09 4.16316e+09 4.16418e+09 4.16768e+09 0
000 580 2 1 4.1792e+09 4.17946e+09 4.18048e+09 4.19932e+09 1
001 581 2 1 4.20183e+09 4.20209e+09 4.2031e+09 4.21278e+09 0
001 582 2 1 4.21582e+09 4.21607e+09 4.21709e+09 4.22057e+09 0
001 583 2 1 4.2248e+09 4.22505e+09 4.22607e+09 4.26659e+09 0
001 584 2 1 4.27192e+09 4.27218e+09 4.27319e+09 2.39967e+08 0
001 585 2 1 2.42443e+08 2.42692e+08 2.43711e+08 2.5801e+08 0
001 586 2 1 2.60796e+08 2.6105e+08 2.62069e+08 2.71067e+08 0
001 587 2 1 2.75183e+08 2.75437e+08 2.76455e+08 2.92017e+08 0
001 588 1 1 2.94667e+08 2.94918e+08 2.95936e+08 3.00486e+08 0
000 589 1 0 3.0758e+08 3.07837e+08 3.08856e+08 3.11213e+08 1
001 590 2 1 3.14681e+08 3.14943e+08 3.15962e+08 3.19735e+08 0
001 591 1 0 3.22825e+08 3.23079e+08 3.24098e+08 3.66567e+08 0
001 592 1 1 3.70078e+08 3.70336e+08 3.71354e+08 3.78796e+08 0
000 593 1 0 3.86074e+08 3.86323e+08 3.87342e+08 3.90592e+08 1
001 594 1 0 3.93871e+08 3.9412e+08 3.95139e+08 4.46783e+08 0
001 595 1 1 4.50391e+08 4.50644e+08 4.51663e+08 4.87484e+08 0
000 596 1 1 4.94712e+08 4.94963e+08 4.95982e+08 5.10146e+08 1
000 597 1 1 5.174e+08 5.17653e+08 5.18672e+08 5.29869e+08 1
000 598 1 0 5.3716e+08 5.37418e+08 5.38437e+08 5.61068e+08 1
001 599 1 1 5.67278e+08 5.67523e+08 5.68542e+08 6.