trial trialType response stillTime stimOnset stimOffset respTime correctionTrial correct
001 1 1 9.04091e+06 9.34375e+06 1.03627e+07 1.45794e+07 0
000 002 1 0 2.18747e+07 2.21403e+07 2.31592e+07 1.94077e+08 1
001 003 1 1 1.96517e+08 1.96791e+08 1.9781e+08 1.98494e+08 0
000 004 1 1 2.19446e+08 2.19692e+08 2.20711e+08 2.22229e+08 1
000 005 1 0 2.42089e+08 2.42333e+08 2.43351e+08 2.447e+08 1
001 006 2 0 2.47339e+08 2.47586e+08 2.48605e+08 2.50563e+08 0
000 007 2 0 2.58667e+08 2.5891e+08 2.59929e+08 2.61436e+08 1
000 008 2 0 2.69132e+08 2.69382e+08 2.70401e+08 2.75264e+08 1
000 009 2 0 2.84113e+08 2.8436e+08 2.85379e+08 2.88365e+08 1
000 010 1 1 2.95664e+08 2.95912e+08 2.96931e+08 3.00172e+08 0
000 011 1 0 3.18007e+08 3.18273e+08 3.19291e+08 3.19578e+08 0
001 012 2 0 3.27137e+08 3.27388e+08 3.28407e+08 3.34471e+08 0
000 013 2 1 3.45052e+08 3.45306e+08 3.46325e+08 3.77407e+08 1
001 014 1 0 3.81182e+08 3.81438e+08 3.82457e+08 3.83847e+08 0
001 015 2 0 3.86801e+08 3.8706e+08 3.88079e+08 3.97511e+08 0
000 016 2 0 4.07694e+08 4.07937e+08 4.08956e+08 4.12455e+08 1
000 017 2 0 4.19934e+08 4.20192e+08 4.21211e+08 4.33955e+08 1
000 018 2 1 4.41275e+08 4.4153e+08 4.42549e+08 4.49598e+08 1
001 019 1 0 4.52758e+08 4.53001e+08 4.5402e+08 4.67721e+08 0
001 020 1 0 4.70188e+08 4.70448e+08 4.71467e+08 4.90219e+08 0
001 021 2 0 4.95787e+08 4.96039e+08 4.97058e+08 4.99148e+08 0
000 022 2 0 5.07487e+08 5.07731e+08 5.0875e+08 5.1023e+08 1
000 023 2 0 5.20381e+08 5.20633e+08 5.21652e+08 5.21683e+08 1
000 024 2 0 5.28878e+08 5.29128e+08 5.30147e+08 5.32312e+08 1
000 025 1 1 5.40018e+08 5.40272e+08 5.41291e+08 5.43318e+08 0
000 026 1 1 5.5404e+08 5.54303e+08 5.55322e+08 5.60436e+08 0
000 027 2 1 5.68493e+08 5.68751e+08 5.6977e+08 5.72177e+08 0
001 028 2 0 5.76116e+08 5.76371e+08 5.7739e+08 5.77789e+08 0
000 029 2 0 5.90222e+08 5.90469e+08 5.91488e+08 5.91943e+08 1
000 030 2 1 6.05134e+08 6.05376e+08 6.06395e+08 6.07626e+08 1
001 031 1 0 6.29561e+08 6.29815e+08 6.30834e+08 6.51086e+08 0
001 032 2 0 6.56569e+08 6.56813e+08 6.57832e+08 6.60123e+08 0
000 033 2 0 6.72594e+08 6.72842e+08 6.7386e+08 6.75745e+08 1
000 034 2 1 6.85846e+08 6.8609e+08 6.87109e+08 6.88509e+08 1
001 035 2 0 6.94611e+08 6.94861e+08 6.9588e+08 7.01559e+08 0
000 036 2 0 7.09642e+08 7.099e+08 7.10919e+08 7.1683e+08 1
000 037 2 1 7.25095e+08 7.25356e+08 7.26375e+08 7.27881e+08 1
001 038 1 0 7.34392e+08 7.34655e+08 7.35674e+08 7.59443e+08 0
001 039 1 1 7.62223e+08 7.62466e+08 7.63485e+08 7.74742e+08 0
000 040 1 0 7.88798e+08 7.89041e+08 7.9006e+08 8.12398e+08 1
001 041 1 0 8.19442e+08 8.19693e+08 8.20712e+08 8.20835e+08 0
001 042 1 0 8.27529e+08 8.27776e+08 8.28795e+08 8.35146e+08 0
001 043 2 0 8.37907e+08 8.38154e+08 8.39173e+08 8.47617e+08 0
000 044 2 0 8.58684e+08 8.58925e+08 8.59944e+08 8.65948e+08 1
000 045 2 0 9.03174e+08 9.03425e+08 9.04444e+08 9.06288e+08 1
000 046 2 1 9.13564e+08 9.13813e+08 9.14832e+08 9.22984e+08 1
001 047 1 0 9.29926e+08 9.30181e+08 9.312e+08 9.59693e+08 0
001 048 2 1 9.63104e+08 9.63349e+08 9.64367e+08 9.69018e+08 0
001 049 2 1 9.71648e+08 9.71913e+08 9.72932e+08 9.77932e+08 0
001 050 2 0 9.90686e+08 9.90936e+08 9.91955e+08 9.92726e+08 0
000 051 2 0 1.00273e+09 1.003e+09 1.00402e+09 1.00541e+09 1
000 052 2 0 1.01602e+09 1.01627e+09 1.01729e+09 1.01954e+09 1
000 053 2 0 1.03044e+09 1.03069e+09 1.03171e+09 1.03206e+09 1
000 054 2 1 1.04649e+09 1.04675e+09 1.04777e+09 1.04866e+09 0
001 055 2 1 1.0512e+09 1.05145e+09 1.05247e+09 1.05604e+09 0
001 056 1 0 1.0604e+09 1.06065e+09 1.06167e+09 1.0637e+09 0
001 057 2 1 1.06875e+09 1.06901e+09 1.07003e+09 1.07938e+09 0
001 058 2 0 1.08526e+09 1.08551e+09 1.08653e+09 1.08745e+09 0
000 059 2 1 1.09451e+09 1.09477e+09 1.09579e+09 1.09605e+09 1
001 060 2 1 1.09975e+09 1.10001e+09 1.10103e+09 1.1029e+09 0
001 061 2 1 1.1055e+09 1.10575e+09 1.10677e+09 1.10685e+09 0
001 062 2 0 1.11642e+09 1.11667e+09 1.11769e+09 1.1308e+09 0
000 063 2 0 1.13788e+09 1.13812e+09 1.13914e+09 1.14179e+09 1
000 064 2 0 1.14885e+09 1.14911e+09 1.15013e+09 1.16196e+09 1
000 065 2 1 1.17089e+09 1.17115e+09 1.17217e+09 1.17459e+09 1
001 066 1 0 1.18074e+09 1.18099e+09 1.18201e+09 1.18999e+09 0
001 067 1 0 1.1986e+09 1.19885e+09 1.19986e+09 1.20136e+09 0
001 068 1 0 1.20565e+09 1.20589e+09 1.20691e+09 1.21601e+09 0
001 069 2 0 1.21867e+09 1.21892e+09 1.21994e+09 1.22352e+09 0
000 070 2 0 1.23099e+09 1.23124e+09 1.23226e+09 1.23337e+09 1
000 071 2 1 1.2407e+09 1.24095e+09 1.24197e+09 1.24215e+09 1
001 072 1 0 1.24707e+09 1.24733e+09 1.24835e+09 1.27923e+09 0
001 073 1 0 1.28174e+09 1.28199e+09 1.28301e+09 1.31145e+09 0
001 074 1 1 1.31385e+09 1.31409e+09 1.31511e+09 1.33412e+09 0
000 075 1 0 1.34151e+09 1.34175e+09 1.34277e+09 1.34313e+09 1
001 076 1 0 1.34672e+09 1.34696e+09 1.34798e+09 1.35831e+09 0
001 077 2 0 1.36075e+09 1.361e+09 1.36202e+09 1.37745e+09 0
000 078 2 0 1.38452e+09 1.38477e+09 1.38579e+09 1.39227e+09 1
000 079 2 0 1.39974e+09 1.39999e+09 1.40101e+09 1.4039e+09 1
000 080 2 0 1.41309e+09 1.41334e+09 1.41436e+09 1.43293e+09 1
000 081 2 1 1.44017e+09 1.44042e+09 1.44144e+09 1.4416e+09 0
001 082 1 1 1.44408e+09 1.44433e+09 1.44535e+09 1.44565e+09 0
000 083 1 1 1.45281e+09 1.45307e+09 1.45409e+09 1.46162e+09 1
000 084 1 1 1.46887e+09 1.46913e+09 1.47015e+09 1.47029e+09 1
000 085 1 1 1.47895e+09 1.4792e+09 1.48022e+09 1.48355e+09 1
000 086 1 0 1.49131e+09 1.49156e+09 1.49258e+09 1.49836e+09 0
001 087 2 1 1.50167e+09 1.50192e+09 1.50294e+09 1.51139e+09 0
001 088 1 1 1.51738e+09 1.51763e+09 1.51865e+09 1.52361e+09 0
000 089 1 0 1.5311e+09 1.53135e+09 1.53237e+09 1.53254e+09 1
001 090 1 0 1.53653e+09 1.53678e+09 1.5378e+09 1.53886e+09 0
001 091 2 0 1.54836e+09 1.54863e+09 1.54965e+09 1.55415e+09 0
000 092 2 0 1.56631e+09 1.56657e+09 1.56758e+09 1.57458e+09 1
000 093 2 0 1.58161e+09 1.58187e+09 1.58288e+09 1.59538e+09 1
000 094 2 1 1.60279e+09 1.60304e+09 1.60406e+09 1.60428e+09 1
001 095 2 1 1.60713e+09 1.60739e+09 1.60841e+09 1.61101e+09 0
001 096 2 1 1.61344e+09 1.61371e+09 1.61473e+09 1.624e+09 0
001 097 1 0 1.62953e+09 1.62978e+09 1.6308e+09 1.63083e+09 0
001 098 2 1 1.63494e+09 1.63519e+09 1.63621e+09 1.63896e+09 0
001 099 2 1 1.64297e+09 1.64322e+09 1.64423e+09 1.64496e+09 0
001 100 2 0 1.65004e+09 1.65029e+09 1.65131e+09 1.65699e+09 0
000 101 2 1 1.66429e+09 1.66453e+09 1.66555e+09 1.66693e+09 1
001 102 2 1 1.68034e+09 1.68059e+09 1.68161e+09 1.69777e+09 0
001 103 1 0 1.70067e+09 1.70093e+09 1.70195e+09 1.70279e+09 0
001 104 1 0 1.70571e+09 1.70596e+09 1.70697e+09 1.7097e+09 0
001 105 2 1 1.71267e+09 1.71292e+09 1.71394e+09 1.71409e+09 0
001 106 1 0 1.72224e+09 1.7225e+09 1.72352e+09 1.72574e+09 0
001 107 2 0 1.73065e+09 1.73091e+09 1.73193e+09 1.74062e+09 0
000 108 2 1 1.75598e+09 1.75623e+09 1.75725e+09 1.75741e+09 1
001 109 2 0 1.76238e+09 1.76265e+09 1.76367e+09 1.7666e+09 0
000 110 2 0 1.77404e+09 1.77429e+09 1.77531e+09 1.77547e+09 1
000 111 2 1 1.78418e+09 1.78442e+09 1.78544e+09 1.78604e+09 1
001 112 1 0 1.79402e+09 1.79427e+09 1.79529e+09 1.79561e+09 0
001 113 1 0 1.79877e+09 1.79903e+09 1.80005e+09 1.80057e+09 0
001 114 2 0 1.81322e+09 1.81348e+09 1.81449e+09 1.81455e+09 0
000 115 2 1 1.82178e+09 1.82203e+09 1.82305e+09 1.82708e+09 1
001 116 2 0 1.82999e+09 1.83024e+09 1.83126e+09 1.8421e+09 0
000 117 2 1 1.85085e+09 1.8511e+09 1.85212e+09 1.85333e+09 1
001 118 1 0 1.85651e+09 1.85677e+09 1.85779e+09 1.85797e+09 0
001 119 1 0 1.86616e+09 1.86641e+09 1.86743e+09 1.86938e+09 0
001 120 2 0 1.87258e+09 1.87283e+09 1.87384e+09 1.8896e+09 0
000 121 2 1 1.89689e+09 1.89714e+09 1.89816e+09 1.90006e+09 1
001 122 1 0 1.90347e+09 1.90372e+09 1.90474e+09 1.9052e+09 0
001 123 2 1 1.90767e+09 1.90792e+09 1.90894e+09 1.92013e+09 0
001 124 2 1 1.92286e+09 1.92311e+09 1.92413e+09 1.93028e+09 0
001 125 2 1 1.93828e+09 1.93852e+09 1.93954e+09 1.94211e+09 0
001 126 2 0 1.94619e+09 1.94645e+09 1.94747e+09 1.94912e+09 0
000 127 2 1 1.95676e+09 1.957e+09 1.95802e+09 1.95805e+09 1
001 128 2 0 1.9607e+09 1.96095e+09 1.96197e+09 1.96367e+09 0
000 129 2 1 1.97132e+09 1.97157e+09 1.97258e+09 1.97596e+09 1
001 130 1 0 1.9788e+09 1.97905e+09 1.98007e+09 1.98053e+09 0
001 131 2 1 1.98635e+09 1.98662e+09 1.98764e+09 1.99152e+09 0
001 132 2 1 1.99427e+09 1.99453e+09 1.99555e+09 1.99727e+09 0
001 133 2 1 1.99974e+09 1.99999e+09 2.00101e+09 2.00294e+09 0
001 134 2 0 2.00645e+09 2.0067e+09 2.00772e+09 2.00849e+09 0
000 135 2 1 2.0189e+09 2.01916e+09 2.02018e+09 2.02776e+09 1
001 136 1 0 2.03045e+09 2.0307e+09 2.03172e+09 2.03183e+09 0
001 137 1 0 2.03553e+09 2.03578e+09 2.0368e+09 2.03731e+09 0
001 138 1 0 2.04004e+09 2.0403e+09 2.04132e+09 2.04215e+09 0
001 139 1 0 2.0452e+09 2.04545e+09 2.04647e+09 2.04663e+09 0
001 140 2 1 2.05405e+09 2.05431e+09 2.05533e+09 2.05729e+09 0
001 141 2 1 2.06373e+09 2.064e+09 2.06502e+09 2.06554e+09 0
001 142 1 1 2.06932e+09 2.06958e+09 2.0706e+09 2.0717e+09 0
000 143 1 1 2.07897e+09 2.07928e+09 2.0803e+09 2.08799e+09 1
000 144 1 1 2.09509e+09 2.09534e+09 2.09636e+09 2.11854e+09 1
000 145 1 0 2.1257e+09 2.12594e+09 2.12696e+09 2.12714e+09 1
001 146 1 1 2.13288e+09 2.13313e+09 2.13415e+09 2.14334e+09 0
000 147 1 1 2.15051e+09 2.15076e+09 2.15178e+09 2.2729e+09 1
000 148 1 0 2.28011e+09 2.28036e+09 2.28137e+09 2.28153e+09 1
001 149 2 0 2.28424e+09 2.28449e+09 2.28551e+09 2.28739e+09 0
000 150 2 1 2.2966e+09 2.29685e+09 2.29787e+09 2.29803e+09 1
001 151 1 0 2.30292e+09 2.30318e+09 2.3042e+09 2.30435e+09 0
001 152 2 1 2.30952e+09 2.30977e+09 2.31079e+09 2.31107e+09 0
001 153 1 0 2.31474e+09 2.31498e+09 2.316e+09 2.31613e+09 0
001 154 1 1 2.32808e+09 2.32833e+09 2.32934e+09 2.33014e+09 0
000 155 1 0 2.33794e+09 2.3382e+09 2.33922e+09 2.33955e+09 1
001 156 1 0 2.34296e+09 2.34322e+09 2.34424e+09 2.35262e+09 0
001 157 1 1 2.35913e+09 2.35937e+09 2.36039e+09 2.37522e+09 0
000 158 1 1 2.38474e+09 2.38498e+09 2.386e+09 2.39255e+09 1
000 159 1 0 2.40523e+09 2.40547e+09 2.40649e+09 2.40651e+09 1
001 160 1 1 2.40965e+09 2.40991e+09 2.41093e+09 2.41395e+09 0
000 161 1 1 2.42111e+09 2.42136e+09 2.42238e+09 2.42314e+09 1
000 162 1 0 2.43037e+09 2.43063e+09 2.43165e+09 2.43712e+09 1
001 163 1 1 2.44305e+09 2.4433e+09 2.44432e+09 2.44469e+09 0
000 164 1 1 2.452e+09 2.45225e+09 2.45327e+09 2.45332e+09 1
000 165 1 0 2.46059e+09 2.46084e+09 2.46186e+09 2.46242e+09 1
001 166 2 1 2.46505e+09 2.46529e+09 2.46631e+09 2.47178e+09 0
001 167 2 0 2.47501e+09 2.47527e+09 2.47629e+09 2.47829e+09 0
000 168 2 1 2.48566e+09 2.48591e+09 2.48693e+09 2.49991e+09 1
001 169 1 0 2.50398e+09 2.50424e+09 2.50526e+09 2.50569e+09 0
001 170 1 0 2.5087e+09 2.50895e+09 2.50997e+09 2.51046e+09 0
001 171 2 1 2.5138e+09 2.51405e+09 2.51507e+09 2.51598e+09 0
001 172 2 0 2.51877e+09 2.51901e+09 2.52003e+09 2.53305e+09 0
000 173 2 1 2.54045e+09 2.54069e+09 2.54171e+09 2.55819e+09 1
001 174 2 1 2.56083e+09 2.56108e+09 2.56209e+09 2.56322e+09 0
001 175 2 1 2.56942e+09 2.56966e+09 2.57068e+09 2.57131e+09 0
001 176 1 0 2.57645e+09 2.57669e+09 2.57771e+09 2.59508e+09 0
001 177 1 0 2.59974e+09 2.6e+09 2.60101e+09 2.63112e+09 0
001 178 1 1 2.63365e+09 2.63391e+09 2.63493e+09 2.63976e+09 0
000 179 1 0 2.64691e+09 2.64715e+09 2.64817e+09 2.64912e+09 1
001 180 1 1 2.65198e+09 2.65223e+09 2.65325e+09 2.6714e+09 0
000 181 1 1 2.67882e+09 2.67907e+09 2.68009e+09 2.68113e+09 1
000 182 1 0 2.68839e+09 2.68863e+09 2.68965e+09 2.69018e+09 1
001 183 1 0 2.69983e+09 2.70007e+09 2.70109e+09 2.7079e+09 0
001 184 2 1 2.71061e+09 2.71087e+09 2.71188e+09 2.71413e+09 0
001 185 1 0 2.71704e+09 2.7173e+09 2.71832e+09 2.71892e+09 0
001 186 1 0 2.72968e+09 2.72994e+09 2.73096e+09 2.73103e+09 0
001 187 2 1 2.74053e+09 2.74078e+09 2.7418e+09 2.74377e+09 0
001 188 1 0 2.74655e+09 2.7468e+09 2.74782e+09 2.74796e+09 0
001 189 2 1 2.75065e+09 2.7509e+09 2.75192e+09 2.75263e+09 0
001 190 1 1 2.75906e+09 2.75931e+09 2.76033e+09 2.76283e+09 0
000 191 1 0 2.77e+09 2.77025e+09 2.77127e+09 2.77139e+09 1
001 192 2 0 2.7745e+09 2.77474e+09 2.77576e+09 2.77782e+09 0
000 193 2 0 2.78742e+09 2.78767e+09 2.78869e+09 2.79465e+09 1
000 194 2 0 2.80447e+09 2.80472e+09 2.80574e+09 2.8105e+09 1
000 195 2 0 2.81765e+09 2.8179e+09 2.81892e+09 2.82129e+09 1
000 196 1 1 2.83286e+09 2.83311e+09 2.83413e+09 2.83457e+09 0
000 197 2 0 2.84171e+09 2.84195e+09 2.84297e+09 2.86641e+09 0
000 198 1 0 2.87424e+09 2.8745e+09 2.87552e+09 2.8756e+09 0
001 199 1 0 2.88092e+09 2.88117e+09 2.88219e+09 2.89163e+09 0
001 200 2 1 2.89559e+09 2.89583e+09 2.89685e+09 2.89692e+09 0
001 201 1 1 2.89997e+09 2.90021e+09 2.90123e+09 2.90186e+09 0
000 202 1 0 2.91018e+09 2.91043e+09 2.91145e+09 2.91148e+09 1
001 203 1 0 2.91457e+09 2.91483e+09 2.91585e+09 2.91605e+09 0
001 204 1 1 2.91884e+09 2.91909e+09 2.92011e+09 2.92108e+09 0
000 205 1 0 2.92973e+09 2.92997e+09 2.93099e+09 2.93217e+09 1
001 206 2 0 2.93653e+09 2.93678e+09 2.9378e+09 2.94446e+09 0
000 207 2 0 2.95199e+09 2.95224e+09 2.95326e+09 2.97288e+09 1
000 208 2 1 2.97995e+09 2.9802e+09 2.98122e+09 3.00937e+09 1
001 209 1 1 3.01194e+09 3.01218e+09 3.0132e+09 3.0134e+09 0
000 210 1 0 3.02265e+09 3.02289e+09 3.02391e+09 3.02637e+09 1
001 211 1 1 3.02882e+09 3.02907e+09 3.03009e+09 3.03435e+09 0
000 212 1 0 3.04143e+09 3.04168e+09 3.04269e+09 3.04282e+09 1
001 213 1 0 3.05528e+09 3.05553e+09 3.05655e+09 3.06595e+09 0
001 214 1 1 3.06878e+09 3.06903e+09 3.07005e+09 3.07274e+09 0
000 215 1 0 3.08143e+09 3.08169e+09 3.08271e+09 3.08327e+09 1
001 216 1 0 3.08585e+09 3.0861e+09 3.08712e+09 3.08765e+09 0
001 217 1 1 3.09072e+09 3.09097e+09 3.09198e+09 3.09221e+09 0
000 218 1 0 3.10204e+09 3.1023e+09 3.10332e+09 3.11591e+09 1
001 219 2 0 3.11894e+09 3.11919e+09 3.12021e+09 3.12573e+09 0
000 220 2 1 3.13435e+09 3.13459e+09 3.13561e+09 3.13986e+09 1
001 221 2 0 3.1479e+09 3.14815e+09 3.14917e+09 3.15091e+09 0
000 222 2 0 3.15966e+09 3.15991e+09 3.16093e+09 3.16156e+09 1
000 223 2 1 3.1691e+09 3.16934e+09 3.17036e+09 3.17162e+09 1
001 224 1 0 3.17718e+09 3.17743e+09 3.17845e+09 3.17945e+09 0
001 225 2 0 3.18523e+09 3.18549e+09 3.18651e+09 3.18664e+09 0
000 226 2 1 3.19894e+09 3.19919e+09 3.20021e+09 3.20149e+09 1
001 227 2 0 3.21399e+09 3.21424e+09 3.21526e+09 3.21668e+09 0
000 228 2 0 3.22646e+09 3.22671e+09 3.22773e+09 3.22797e+09 1
000 229 2 1 3.23785e+09 3.2381e+09 3.23912e+09 3.23989e+09 1
001 230 2 1 3.25636e+09 3.25662e+09 3.25764e+09 3.25874e+09 0
001 231 2 0 3.26366e+09 3.26392e+09 3.26494e+09 3.27124e+09 0
000 232 2 1 3.28661e+09 3.28687e+09 3.28789e+09 3.30887e+09 1
001 233 2 0 3.31219e+09 3.31245e+09 3.31347e+09 3.33407e+09 0
000 234 2 1 3.34909e+09 3.34936e+09 3.35037e+09 3.35072e+09 1
001 235 1 0 3.35374e+09 3.354e+09 3.35502e+09 3.36079e+09 0
001 236 1 1 3.36545e+09 3.36571e+09 3.36673e+09 3.37257e+09 0
000 237 1 0 3.42881e+09 3.42907e+09 3.43009e+09 3.4309e+09 1
001 238 2 1 3.43498e+09 3.43523e+09 3.43625e+09 3.4442e+09 0
001 239 1 0 3.45216e+09 3.45241e+09 3.45343e+09 3.45448e+09 0
001 240 1 0 3.46332e+09 3.46358e+09 3.4646e+09 3.47035e+09 0
001 241 2 0 3.50635e+09 3.5066e+09 3.50762e+09 3.50799e+09 0
000 242 2 0 3.52019e+09 3.52044e+09 3.52146e+09 3.52189e+09 1
000 243 2 0 3.5521e+09 3.55235e+09 3.55337e+09 3.55339e+09 1
000 244 2 0 3.56495e+09 3.56519e+09 3.56621e+09 3.569e+09 1
000 245 1 0 3.58103e+09 3.58129e+09 3.58231e+09 3.58254e+09 0
001 246 2 0 3.58642e+09 3.58667e+09 3.58769e+09 3.59024e+09 0
000 247 2 1 3.62124e+09 3.6215e+09 3.62252e+09 3.62282e+09 1
001 248 2 1 3.63488e+09 3.63513e+09 3.63615e+09 3.6368e+09 0
001 249 1 1 3.64453e+09 3.64478e+09 3.6458e+09 3.66298e+09 0
000 250 1 0 3.67162e+09 3.67186e+09 3.67288e+09 3.67325e+09 1
001 251 1 1 3.67717e+09 3.67741e+09 3.67843e+09 3.68189e+09 0
000 252 1 0 3.69265e+09 3.6929e+09 3.69392e+09 3.69435e+09 1
001 253 2 1 3.69705e+09 3.69731e+09 3.69833e+09 3.70694e+09 0
001 254 2 0 3.71725e+09 3.71751e+09 3.71852e+09 3.71859e+09 0
000 255 2 0 3.74014e+09 3.74039e+09 3.74141e+09 3.74153e+09 1
000 256 2 0 3.76239e+09 3.76265e+09 3.76367e+09 3.76476e+09 1
000 257 2 0 3.7741e+09 3.77436e+09 3.77538e+09 3.78049e+09 1
000 258 1 0 3.79057e+09 3.79083e+09 3.79185e+09 3.79189e+09 0
001 259 2 0 3.79732e+09 3.79758e+09 3.79859e+09 3.81019e+09 0
000 260 2 0 3.81902e+09 3.81926e+09 3.82028e+09 3.82198e+09 1
000 261 2 0 3.83629e+09 3.83653e+09 3.83755e+09 3.83772e+09 1
000 262 2 0 3.84502e+09 3.84527e+09 3.84629e+09 3.84644e+09 1
000 263 1 0 3.8536e+09 3.85385e+09 3.85486e+09 3.85507e+09 0
001 264 2 1 3.86263e+09 3.86289e+09 3.86391e+09 3.86454e+09 0
001 265 1 1 3.86837e+09 3.86862e+09 3.86964e+09 3.88494e+09 0
000 266 1 0 3.89456e+09 3.89481e+09 3.89583e+09 3.89673e+09 1
001 267 2 0 3.8995e+09 3.89975e+09 3.90077e+09 3.90629e+09 0
000 268 2 1 3.91551e+09 3.91575e+09 3.91677e+09 3.91711e+09 1
001 269 2 0 3.92617e+09 3.92652e+09 3.92754e+09 3.93352e+09 0
000 270 2 1 3.94059e+09 3.94084e+09 3.94186e+09 3.94766e+09 1
001 271 1 1 3.95308e+09 3.95333e+09 3.95435e+09 3.95436e+09 0
000 272 1 1 3.96186e+09 3.96211e+09 3.96313e+09 3.96335e+09 1
000 273 1 0 3.97418e+09 3.97443e+09 3.97545e+09 3.97578e+09 1
001 274 1 0 3.97843e+09 3.97869e+09 3.97971e+09 3.97985e+09 0
001 275 1 0 3.98229e+09 3.98254e+09 3.98356e+09 3.98501e+09 0
001 276 1 1 3.98937e+09 3.98963e+09 3.99065e+09 3.99075e+09 0
000 277 1 0 4.00252e+09 4.00279e+09 4.0038e+09 4.00394e+09 1
001 278 2 0 4.02104e+09 4.0213e+09 4.02232e+09 4.02236e+09 0
000 279 2 0 4.03036e+09 4.03061e+09 4.03163e+09 4.0317e+09 1
000 280 2 1 4.04046e+09 4.04072e+09 4.04174e+09 4.04175e+09 1
001 281 2 0 4.04659e+09 4.04685e+09 4.04786e+09 4.04971e+09 0
000 282 2 0 4.05717e+09 4.05742e+09 4.05843e+09 4.05864e+09 1
000 283 2 1 4.07918e+09 4.07943e+09 4.08044e+09 4.08065e+09 1
001 284 1 0 4.12786e+09 4.12812e+09 4.12914e+09 4.12923e+09 0
001 285 2 0 4.13313e+09 4.13337e+09 4.13439e+09 4.13444e+09 0
000 286 2 0 4.14252e+09 4.14277e+09 4.14379e+09 4.14409e+09 1
000 287 2 1 4.15779e+09 4.15804e+09 4.15906e+09 4.15953e+09 1
001 288 2 0 4.17092e+09 4.17117e+09 4.17219e+09 4.17245e+09 0
000 289 2 1 4.18892e+09 4.18917e+09 4.19019e+09 4.19022e+09 1
001 290 2 0 4.20748e+09 4.20773e+09 4.20875e+09 4.20998e+09 0
000 291 2 0 4.21722e+09 4.21747e+09 4.21849e+09 4.2185e+09 1
000 292 2 0 4.22566e+09 4.2259e+09 4.22692e+09 4.22761e+09 1
000 293 2 0 4.2357e+09 4.23595e+09 4.23697e+09 4.24886e+09 1
000 294 2 1 4.25644e+09 4.25668e+09 4.2577e+09 4.26338e+09 0
001 295 1 0 4.26924e+09 4.2695e+09 4.27052e+09 4.27878e+09 0
001 296 2 0 4.28741e+09 4.28766e+09 4.28868e+09 4.29423e+09 0
000 297 2 0 7.11169e+06 7.3604e+06 8.37932e+06 1.03525e+07 1
000 298 2 0 4.41795e+07 4.44238e+07 4.54428e+07 4.75542e+07 1
000 299 2 0 5.58817e+07 5.61261e+07 5.7145e+07 5.75214e+07 1
000 300 2 0 6.60664e+07 6.63108e+07 6.73297e+07 6.94426e+07 0
000 301 1 1 7.65747e+07 7.68282e+07 7.78472e+07 7.79779e+07 0
000 302 2 0 8.79503e+07 8.81964e+07 8.92154e+07 8.97943e+07 0
000 303 2 1 1.03141e+08 1.0339e+08 1.04409e+08 1.17638e+08 0
001 304 2 0 1.20629e+08 1.20871e+08 1.2189e+08 1.2573e+08 0
000 305 2 0 1.34031e+08 1.34275e+08 1.35294e+08 1.36163e+08 1
000 306 2 0 1.46259e+08 1.46526e+08 1.47545e+08 1.48674e+08 1
000 307 2 0 1.71367e+08 1.7162e+08 1.72639e+08 1.74193e+08 1
000 308 2 1 1.8216e+08 1.8241e+08 1.83429e+08 1.92328e+08 0
001 309 1 1 1.95738e+08 1.95989e+08 1.97008e+08 1.99161e+08 0
000 310 1 0 2.07345e+08 2.07607e+08 2.08626e+08 2.08807e+08 1
001 311 1 0 2.11956e+08 2.12207e+08 2.13226e+08 2.14036e+08 0
001 312 1 1 2.17584e+08 2.17839e+08 2.18858e+08 2.20992e+08 0
000 313 1 0 2.28528e+08 2.28779e+08 2.29798e+08 2.30021e+08 1
001 314 1 0 2.39019e+08 2.39277e+08 2.40296e+08 2.40377e+08 0
001 315 2 0 2.44259e+08 2.44516e+08 2.45535e+08 2.45796e+08 0
000 316 2 1 2.90872e+08 2.91129e+08 2.92148e+08 2.92362e+08 1
001 317 2 0 3.16976e+08 3.17228e+08 3.18247e+08 3.1846e+08 0
000 318 2 1 3.257e+08 3.25955e+08 3.26974e+08 3.35898e+08 1
001 319 2 1 3.51958e+08 3.5221e+08 3.53229e+08 3.79897e+08 0
001 320 2 0 4.03058e+08 4.033e+08 4.04319e+08 4.04623e+08 0
000 321 2 1 4.20433e+08 4.20693e+08 4.21711e+08 4.23068e+08 1
001 322 1 0 4.38373e+08 4.38626e+08 4.39645e+08 4.39741e+08 0
001 323 2 0 4.46375e+08 4.46621e+08 4.4764e+08 4.47893e+08 0
000 324 2 0 4.59598e+08 4.59851e+08 4.6087e+08 4.61235e+08 1
000 325 2 0 4.69964e+08 4.7021e+08 4.71228e+08 4.718e+08 1
000 326 2 0 4.80537e+08 4.8078e+08 4.81799e+08 4.82758e+08 1
000 327 1 0 4.91117e+08 4.91363e+08 4.92382e+08 4.92845e+08 0
001 328 2 0 4.9731e+08 4.97561e+08 4.9858e+08 4.99352e+08 0
000 329 2 0 5.11988e+08 5.12243e+08 5.13262e+08 5.14179e+08 1
000 330 2 1 5.21503e+08 5.21756e+08 5.22775e+08 5.23092e+08 1
001 331 2 1 5.26733e+08 5.26986e+08 5.28004e+08 5.39079e+08 0
001 332 1 0 5.47701e+08 5.47947e+08 5.48966e+08 5.4912e+08 0
001 333 2 0 5.5722e+08 5.57472e+08 5.5849e+08 5.5881e+08 0
000 334 2 1 5.72954e+08 5.73209e+08 5.74227e+08 5.7466e+08 1
001 335 2 0 5.93361e+08 5.93607e+08 5.94626e+08 5.94647e+08 0
000 336 2 0 6.02899e+08 6.03157e+08 6.04176e+08 6.04429e+08 1
000 337 2 1 6.12425e+08 6.12669e+08 6.13688e+08 6.13775e+08 1
001 338 1 0 6.28925e+08 6.29173e+08 6.30192e+08 6.30545e+08 0
001 339 1 0 6.4891e+08 6.49155e+08 6.50174e+08 6.50371e+08 0
001 340 1 0 6.65937e+08 6.66184e+08 6.67203e+08 6.67882e+08 0
001 341 2 0 6.73438e+08 6.73685e+08 6.74704e+08 6.7904e+08 0
000 342 2 0 6.87235e+08 6.8748e+08 6.88498e+08 6.88601e+08 1
000 343 2 0 7.0123e+08 7.01475e+08 7.02494e+08 7.02699e+08 1
000 344 2 0 7.1329e+08 7.13537e+08 7.14556e+08 7.14604e+08 1
000 345 2 0 7.21793e+08 7.22046e+08 7.23065e+08 7.23686e+08 0
000 346 2 0 7.43109e+08 7.43353e+08 7.44372e+08 7.78082e+08 0
000 347 2 1 7.8544e+08 7.85692e+08 7.86711e+08 7.86739e+08 0
001 348 2 1 8.0046e+08 8.00705e+08 8.01724e+08 8.03824e+08 0
001 349 2 1 8.18373e+08 8.18622e+08 8.19641e+08 8.19701e+08 0
001 350 2 1 8.40148e+08 8.40402e+08 8.4142e+08 8.42581e+08 0
001 351 1 0 8.46008e+08 8.46265e+08 8.47284e+08 8.48197e+08 0
001 352 2 1 8.5212e+08 8.52373e+08 8.53392e+08 8.55257e+08 0
001 353 1 0 8.65656e+08 8.65911e+08 8.6693e+08 8.67109e+08 0
001 354 1 1 8.69865e+08 8.70113e+08 8.71132e+08 8.7163e+08 0
000 355 1 0 9.12473e+08 9.12724e+08 9.13743e+08 9.13871e+08 1
001 356 1 1 9.2093e+08 9.21171e+08 9.2219e+08 9.22958e+08 0
000 357 1 1 9.30351e+08 9.30608e+08 9.31627e+08 9.32058e+08 1
000 358 1 1 9.52894e+08 9.53154e+08 9.54173e+08 9.58151e+08 1
000 359 1 1 9.66389e+08 9.66634e+08 9.67653e+08 9.69933e+08 1
000 360 1 1 9.80848e+08 9.81099e+08 9.82118e+08 9.82594e+08 0
000 361 2 1 1.0025e+09 1.00275e+09 1.00377e+09 1.00401e+09 0
001 362 1 0 1.01498e+09 1.01523e+09 1.01625e+09 1.01627e+09 0
001 363 2 0 1.04795e+09 1.0482e+09 1.04922e+09 1.04926e+09 0
000 364 2 0 1.06443e+09 1.06469e+09 1.06571e+09 1.06589e+09 1
000 365 2 1 1.0879e+09 1.08816e+09 1.08918e+09 1.08949e+09 1
001 366 1 1 1.1017e+09 1.10194e+09 1.10296e+09 1.10312e+09 0
000 367 1 0 1.12415e+09 1.12439e+09 1.12541e+09 1.12567e+09 1
001 368 1 0 1.15634e+09 1.15659e+09 1.1576e+09 1.15795e+09 0
001 369 2 1 1.16289e+09 1.16313e+09 1.16415e+09 1.1702e+09 0
001 370 2 1 1.17349e+09 1.17373e+09 1.17475e+09 1.17877e+09 0
001 371 1 1 1.18218e+09 1.18243e+09 1.18345e+09 1.18511e+09 0
000 372 1 0 1.20371e+09 1.20396e+09 1.20497e+09 1.20503e+09 1
001 373 2 0 1.2099e+09 1.21015e+09 1.21117e+09 1.2114e+09 0
000 374 2 1 1.24426e+09 1.24451e+09 1.24553e+09 1.24604e+09 1
001 375 1 0 1.26245e+09 1.2627e+09 1.26372e+09 1.26398e+09 0
001 376 1 1 1.30964e+09 1.30989e+09 1.31091e+09 1.31173e+09 0
000 377 1 1 1.31963e+09 1.31989e+09 1.32091e+09 1.32143e+09 1
000 378 1 1 1.33364e+09 1.3339e+09 1.33492e+09 1.33507e+09 1
000 379 1 0 1.35208e+09 1.35232e+09 1.35334e+09 1.35412e+09 1
001 380 2 0 1.35729e+09 1.35754e+09 1.35855e+09 1.3626e+09 0
000 381 2 0 1.37147e+09 1.37171e+09 1.37273e+09 1.37286e+09 1
000 382 2 1 1.38312e+09 1.38341e+09 1.38443e+09 1.38565e+09 1
001 383 1 1 1.38879e+09 1.38904e+09 1.39005e+09 1.39259e+09 0
000 384 1 1 1.40123e+09 1.40148e+09 1.40249e+09 1.40301e+09 1
000 385 1 0 1.41395e+09 1.4142e+09 1.41522e+09 1.41531e+09 1
001 386 1 0 1.44523e+09 1.44548e+09 1.4465e+09 1.44676e+09 0
001 387 1 0 1.47339e+09 1.47364e+09 1.47466e+09 1.47472e+09 0
001 388 1 0 1.47905e+09 1.4793e+09 1.48032e+09 1.48042e+09 0
001 389 2 0 1.48351e+09 1.48376e+09 1.48478e+09 1.48528e+09 0
000 390 2 0 1.49522e+09 1.49546e+09 1.49648e+09 1.49704e+09 1
000 391 2 0 1.50465e+09 1.5049e+09 1.50592e+09 1.50617e+09 1
000 392 2 0 1.51356e+09 1.51381e+09 1.51483e+09 1.51487e+09 1
000 393 2 0 1.52335e+09 1.52359e+09 1.52461e+09 1.52679e+09 0
000 394 2 0 1.53405e+09 1.5343e+09 1.53532e+09 1.53535e+09 0
000 395 1 0 1.55677e+09 1.55702e+09 1.55804e+09 1.5588e+09 0
001 396 2 1 1.56164e+09 1.56189e+09 1.56291e+09 1.57137e+09 0
001 397 2 1 1.57405e+09 1.5743e+09 1.57532e+09 1.58091e+09 0
001 398 1 1 1.5837e+09 1.58396e+09 1.58498e+09 1.5874e+09 0
000 399 1 0 1.59555e+09 1.5958e+09 1.59682e+09 1.59699e+09 1
001 400 1 0 1.60035e+09 1.6006e+09 1.60162e+09 1.60172e+09 0
001 401 2 1 1.60541e+09 1.60566e+09 1.60668e+09 1.60676e+09 0
001 402 2 0 1.61985e+09 1.6201e+09 1.62112e+09 1.62412e+09 0
000 403 2 0 1.63233e+09 1.63259e+09 1.6336e+09 1.63365e+09 1
000 404 2 0 1.64272e+09 1.64297e+09 1.64399e+09 1.64441e+09 1
000 405 2 0 1.65174e+09 1.65201e+09 1.65303e+09 1.65332e+09 1
000 406 2 0 1.66329e+09 1.6636e+09 1.66462e+09 1.66484e+09 0
000 407 2 0 1.69742e+09 1.69767e+09 1.69869e+09 1.7002e+09 0
000 408 1 0 1.70991e+09 1.71017e+09 1.71118e+09 1.71139e+09 0
001 409 1 1 1.71524e+09 1.71549e+09 1.71651e+09 1.71655e+09 0
000 410 1 0 1.72404e+09 1.72429e+09 1.72531e+09 1.72538e+09 1
001 411 2 1 1.72802e+09 1.72827e+09 1.72929e+09 1.73048e+09 0
001 412 1 1 1.73337e+09 1.73362e+09 1.73464e+09 1.73495e+09 0
000 413 1 0 1.74881e+09 1.74906e+09 1.75008e+09 1.75013e+09 1
001 414 2 0 1.75396e+09 1.75424e+09 1.75526e+09 1.75891e+09 0
000 415 2 0 1.7692e+09 1.76946e+09 1.77048e+09 1.77062e+09 1
000 416 2 1 1.78194e+09 1.7822e+09 1.78322e+09 1.78328e+09 1
001 417 2 0 1.78699e+09 1.78724e+09 1.78826e+09 1.7887e+09 0
000 418 2 1 1.79759e+09 1.79785e+09 1.79887e+09 1.79912e+09 1
001 419 1 1 1.84281e+09 1.84306e+09 1.84408e+09 1.84429e+09 0
000 420 1 0 1.85145e+09 1.8517e+09 1.85272e+09 1.8529e+09 1
001 421 1 0 1.8566e+09 1.85685e+09 1.85787e+09 1.8581e+09 0
001 422 2 1 1.86819e+09 1.86845e+09 1.86947e+09 1.86968e+09 0
001 423 2 1 1.89356e+09 1.8938e+09 1.89482e+09 1.89575e+09 0
001 424 2 0 1.90097e+09 1.90122e+09 1.90224e+09 1.90309e+09 0
000 425 2 0 1.91701e+09 1.91725e+09 1.91827e+09 1.92042e+09 1
000 426 2 1 1.9288e+09 1.92905e+09 1.93007e+09 1.93266e+09 1
001 427 1 0 1.93618e+09 1.93642e+09 1.93744e+09 1.94394e+09 0
001 428 1 0 1.95257e+09 1.95281e+09 1.95383e+09 1.95391e+09 0
001 429 1 0 1.96242e+09 1.96267e+09 1.96369e+09 1.96392e+09 0
001 430 2 1 1.96734e+09 1.96759e+09 1.96861e+09 1.96893e+09 0
001 431 2 1 1.97971e+09 1.97996e+09 1.98098e+09 1.98113e+09 0
001 432 2 1 1.98452e+09 1.98476e+09 1.98578e+09 1.9861e+09 0
001 433 2 0 1.99057e+09 1.99081e+09 1.99183e+09 1.9919e+09 0
000 434 2 1 1.99902e+09 1.99928e+09 2.0003e+09 2.001e+09 1
001 435 2 0 2.0487e+09 2.04895e+09 2.04997e+09 2.05001e+09 0
000 436 2 0 2.0594e+09 2.05966e+09 2.06068e+09 2.06212e+09 1
000 437 2 0 2.07652e+09 2.07678e+09 2.0778e+09 2.07881e+09 1
000 438 2 0 2.08839e+09 2.08864e+09 2.08966e+09 2.10286e+09 1
000 439 2 1 2.12152e+09 2.12176e+09 2.12278e+09 2.1229e+09 0
001 440 1 1 2.12534e+09 2.12558e+09 2.1266e+09 2.12699e+09 0
000 441 1 0 2.1383e+09 2.13856e+09 2.13958e+09 2.13965e+09 1
001 442 1 0 2.14236e+09 2.1426e+09 2.14362e+09 2.1437e+09 0
001 443 1 0 2.14817e+09 2.14841e+09 2.14943e+09 2.14949e+09 0
001 444 1 1 2.15496e+09 2.15521e+09 2.15623e+09 2.15654e+09 0
000 445 1 1 2.17433e+09 2.17459e+09 2.17561e+09 2.17598e+09 1
000 446 1 0 2.1848e+09 2.18506e+09 2.18608e+09 2.18629e+09 1
001 447 2 0 2.19404e+09 2.19429e+09 2.19531e+09 2.19647e+09 0
000 448 2 0 2.20503e+09 2.20528e+09 2.2063e+09 2.21067e+09 1
000 449 2 0 2.21797e+09 2.21822e+09 2.21924e+09 2.22148e+09 1
000 450 2 1 2.22851e+09 2.22876e+09 2.22978e+09 2.2301e+09 1
001 451 2 0 2.23492e+09 2.23517e+09 2.23619e+09 2.23627e+09 0
000 452 2 0 2.24531e+09 2.24557e+09 2.24659e+09 2.24681e+09 1
000 453 2 0 2.25481e+09 2.25506e+09 2.25608e+09 2.26246e+09 1
000 454 2 0 2.26958e+09 2.26984e+09 2.27086e+09 2.2793e+09 1
000 455 1 0 2.28646e+09 2.28672e+09 2.28774e+09 2.28778e+09 0
001 456 2 0 2.2915e+09 2.29175e+09 2.29277e+09 2.29668e+09 0
000 457 2 0 2.30418e+09 2.30443e+09 2.30545e+09 2.30546e+09 1
000 458 2 0 2.31275e+09 2.31301e+09 2.31402e+09 2.31435e+09 1
000 459 2 1 2.32296e+09 2.3232e+09 2.32422e+09 2.32926e+09 1
001 460 2 0 2.33833e+09 2.3386e+09 2.33962e+09 2.33964e+09 0
000 461 2 1 2.35097e+09 2.35122e+09 2.35223e+09 2.35226e+09 1
001 462 2 1 2.35554e+09 2.3558e+09 2.35682e+09 2.35685e+09 0
001 463 1 0 2.38306e+09 2.38331e+09 2.38433e+09 2.38464e+09 0
001 464 1 0 2.39373e+09 2.39398e+09 2.395e+09 2.39506e+09 0
001 465 2 0 2.41718e+09 2.41742e+09 2.41844e+09 2.41902e+09 0
000 466 2 0 2.42948e+09 2.42974e+09 2.43076e+09 2.43128e+09 1
000 467 2 1 2.44017e+09 2.44042e+09 2.44144e+09 2.44152e+09 1
001 468 1 0 2.45151e+09 2.45176e+09 2.45278e+09 2.45298e+09 0
001 469 1 1 2.46716e+09 2.4674e+09 2.46842e+09 2.46851e+09 0
000 470 1 0 2.48212e+09 2.48236e+09 2.48338e+09 2.48343e+09 1
001 471 2 0 2.49278e+09 2.49303e+09 2.49405e+09 2.4942e+09 0
000 472 2 1 2.50813e+09 2.50837e+09 2.50939e+09 2.50965e+09 1
001 473 2 0 2.53414e+09 2.53439e+09 2.53541e+09 2.53596e+09 0
000 474 2 1 2.54669e+09 2.54693e+09 2.54795e+09 2.54896e+09 1
001 475 2 0 2.57607e+09 2.57632e+09 2.57734e+09 2.57759e+09 0
000 476 2 1 2.58595e+09 2.5862e+09 2.58721e+09 2.58745e+09 1
001 