trial trialType response stillTime stimOnset stimOffset respTime correctionTrial correct
001 1 1 3.1355e+06 3.42222e+06 4.44117e+06 1.07191e+07 0
000 002 1 1 1.80112e+07 1.82677e+07 1.92867e+07 1.8404e+08 1
000 003 1 0 2.02738e+08 2.02987e+08 2.04006e+08 2.05359e+08 1
001 004 1 0 2.10207e+08 2.10465e+08 2.11484e+08 2.1472e+08 0
001 005 1 0 2.17498e+08 2.17752e+08 2.18771e+08 2.20689e+08 0
001 006 2 0 2.23323e+08 2.23576e+08 2.24595e+08 2.25487e+08 0
000 007 2 0 2.41374e+08 2.41625e+08 2.42644e+08 2.45691e+08 1
000 008 2 0 2.66172e+08 2.6642e+08 2.67439e+08 2.67718e+08 1
000 009 2 0 2.83785e+08 2.8403e+08 2.85049e+08 2.88331e+08 1
000 010 2 0 2.95868e+08 2.96124e+08 2.97143e+08 2.97957e+08 0
000 011 2 1 3.13477e+08 3.1373e+08 3.14749e+08 3.15148e+08 0
001 012 1 0 3.18526e+08 3.1878e+08 3.19799e+08 3.23504e+08 0
001 013 2 1 3.26348e+08 3.26593e+08 3.27612e+08 3.2978e+08 0
001 014 1 1 3.32236e+08 3.32501e+08 3.3352e+08 3.35421e+08 0
000 015 1 0 3.95149e+08 3.95403e+08 3.96422e+08 3.9786e+08 1
001 016 1 0 4.02613e+08 4.02876e+08 4.03895e+08 4.06852e+08 0
001 017 2 1 4.09577e+08 4.09841e+08 4.1086e+08 4.12413e+08 0
001 018 2 0 4.15811e+08 4.16074e+08 4.17093e+08 4.32884e+08 0
000 019 2 0 4.75026e+08 4.75276e+08 4.76295e+08 4.77271e+08 1
000 020 2 1 4.84678e+08 4.84934e+08 4.85953e+08 4.88445e+08 1
001 021 1 1 4.91369e+08 4.91633e+08 4.92652e+08 4.96674e+08 0
000 022 1 0 5.03879e+08 5.04122e+08 5.05141e+08 5.05501e+08 1
001 023 1 1 5.08651e+08 5.08908e+08 5.09927e+08 5.10508e+08 0
000 024 1 0 5.2713e+08 5.27373e+08 5.28392e+08 5.28687e+08 1
001 025 1 0 5.32573e+08 5.32834e+08 5.33853e+08 5.35762e+08 0
001 026 2 1 5.38683e+08 5.38932e+08 5.39951e+08 5.4309e+08 0
001 027 2 1 5.46987e+08 5.47248e+08 5.48267e+08 5.48974e+08 0
001 028 1 0 5.74926e+08 5.75183e+08 5.76201e+08 5.76886e+08 0
001 029 2 0 5.88032e+08 5.88282e+08 5.89301e+08 5.92099e+08 0
000 030 2 0 6.14187e+08 6.14437e+08 6.15455e+08 6.1557e+08 1
000 031 2 0 6.23272e+08 6.23525e+08 6.24544e+08 6.39928e+08 1
000 032 2 0 6.48737e+08 6.4899e+08 6.50009e+08 6.50627e+08 1
000 033 2 1 6.57722e+08 6.57981e+08 6.59e+08 6.60214e+08 0
001 034 2 1 6.65112e+08 6.65362e+08 6.6638e+08 6.66506e+08 0
001 035 1 1 6.69594e+08 6.69859e+08 6.70878e+08 6.737e+08 0
000 036 1 0 6.84856e+08 6.85116e+08 6.86135e+08 6.88628e+08 1
001 037 1 1 6.91476e+08 6.9172e+08 6.92739e+08 6.93393e+08 0
000 038 1 0 7.08704e+08 7.0896e+08 7.09979e+08 7.10111e+08 1
001 039 2 1 7.13255e+08 7.1351e+08 7.14529e+08 7.15011e+08 0
001 040 1 1 7.17701e+08 7.17953e+08 7.18972e+08 7.21071e+08 0
000 041 1 0 7.74286e+08 7.74531e+08 7.7555e+08 7.76605e+08 1
001 042 2 1 7.79832e+08 7.8009e+08 7.81109e+08 7.82873e+08 0
001 043 1 1 7.8588e+08 7.86135e+08 7.87154e+08 7.88942e+08 0
000 044 1 1 8.19188e+08 8.19454e+08 8.20473e+08 8.22198e+08 1
000 045 1 1 8.29718e+08 8.2997e+08 8.30989e+08 8.31251e+08 1
000 046 1 0 8.4955e+08 8.49811e+08 8.5083e+08 8.51202e+08 1
001 047 2 1 8.53796e+08 8.54061e+08 8.5508e+08 8.56374e+08 0
001 048 2 1 8.60164e+08 8.60421e+08 8.6144e+08 8.62467e+08 0
001 049 1 1 8.66704e+08 8.66963e+08 8.67982e+08 8.68511e+08 0
000 050 1 0 9.06201e+08 9.06451e+08 9.0747e+08 9.07485e+08 1
001 051 1 1 9.19916e+08 9.20174e+08 9.21193e+08 9.21363e+08 0
000 052 1 0 9.29602e+08 9.29852e+08 9.30871e+08 9.31844e+08 1
001 053 2 0 9.34422e+08 9.34668e+08 9.35687e+08 9.35758e+08 0
000 054 2 1 9.6898e+08 9.69227e+08 9.70246e+08 9.70345e+08 1
001 055 1 0 9.7701e+08 9.7726e+08 9.78279e+08 9.78304e+08 0
001 056 1 0 9.81162e+08 9.8142e+08 9.82439e+08 9.83949e+08 0
001 057 2 0 9.86446e+08 9.86698e+08 9.87717e+08 9.90505e+08 0
000 058 2 0 9.99093e+08 9.99349e+08 1.00037e+09 1.00201e+09 1
000 059 2 0 1.00976e+09 1.01001e+09 1.01103e+09 1.01209e+09 1
000 060 2 1 1.02369e+09 1.02394e+09 1.02496e+09 1.02523e+09 1
001 061 2 0 1.03496e+09 1.0352e+09 1.03622e+09 1.03734e+09 0
000 062 2 0 1.04787e+09 1.04813e+09 1.04915e+09 1.04954e+09 1
000 063 2 1 1.0596e+09 1.05984e+09 1.06086e+09 1.06209e+09 1
001 064 1 1 1.06622e+09 1.06646e+09 1.06748e+09 1.06751e+09 0
000 065 1 0 1.07925e+09 1.0795e+09 1.08052e+09 1.08089e+09 1
001 066 2 0 1.10145e+09 1.10171e+09 1.10273e+09 1.10303e+09 0
000 067 2 0 1.11168e+09 1.11193e+09 1.11295e+09 1.11542e+09 1
000 068 2 0 1.12499e+09 1.12524e+09 1.12626e+09 1.13133e+09 1
000 069 2 0 1.14344e+09 1.14369e+09 1.14471e+09 1.14513e+09 1
000 070 2 0 1.15264e+09 1.1529e+09 1.15391e+09 1.15401e+09 0
000 071 2 1 1.16141e+09 1.16165e+09 1.16267e+09 1.16304e+09 0
001 072 2 0 1.17103e+09 1.17127e+09 1.17229e+09 1.19801e+09 0
000 073 2 0 1.20517e+09 1.20541e+09 1.20643e+09 1.20747e+09 1
000 074 2 0 1.21593e+09 1.21618e+09 1.21719e+09 1.21776e+09 1
000 075 2 0 1.22517e+09 1.22542e+09 1.22644e+09 1.26589e+09 1
000 076 2 0 1.27819e+09 1.27845e+09 1.27947e+09 1.27985e+09 0
000 077 1 1 1.28701e+09 1.28726e+09 1.28828e+09 1.29552e+09 0
000 078 2 0 1.30265e+09 1.3029e+09 1.30392e+09 1.35095e+09 0
000 079 2 0 1.35846e+09 1.35872e+09 1.35974e+09 1.3665e+09 0
000 080 1 1 1.3786e+09 1.37886e+09 1.37988e+09 1.38023e+09 0
000 081 2 0 1.38762e+09 1.38787e+09 1.38889e+09 1.41045e+09 0
000 082 2 1 1.41763e+09 1.41788e+09 1.4189e+09 1.47523e+09 0
001 083 1 1 1.47774e+09 1.478e+09 1.47902e+09 1.47904e+09 0
000 084 1 0 1.48727e+09 1.48752e+09 1.48854e+09 1.49354e+09 1
001 085 2 1 1.49641e+09 1.49666e+09 1.49768e+09 1.56892e+09 0
001 086 2 0 1.57366e+09 1.5739e+09 1.57492e+09 1.5751e+09 0
000 087 2 0 1.58892e+09 1.58918e+09 1.59019e+09 1.59135e+09 1
000 088 2 1 1.59966e+09 1.5999e+09 1.60092e+09 1.60106e+09 1
001 089 2 1 1.60902e+09 1.60927e+09 1.61029e+09 1.6109e+09 0
001 090 1 1 1.61393e+09 1.61418e+09 1.6152e+09 1.6153e+09 0
000 091 1 1 1.63565e+09 1.6359e+09 1.63692e+09 1.63745e+09 1
000 092 1 0 1.64461e+09 1.6449e+09 1.64591e+09 1.64884e+09 1
001 093 1 0 1.65213e+09 1.65238e+09 1.6534e+09 1.66856e+09 0
001 094 1 0 1.67151e+09 1.67176e+09 1.67278e+09 1.68234e+09 0
001 095 2 0 1.68602e+09 1.68627e+09 1.68728e+09 1.69802e+09 0
000 096 2 1 1.70513e+09 1.70537e+09 1.70639e+09 1.74101e+09 1
001 097 1 0 1.74554e+09 1.7458e+09 1.74682e+09 1.74957e+09 0
001 098 2 0 1.75295e+09 1.75321e+09 1.75423e+09 1.75525e+09 0
000 099 2 0 1.76481e+09 1.76507e+09 1.76608e+09 1.76667e+09 1
000 100 2 0 1.77398e+09 1.77423e+09 1.77525e+09 1.77549e+09 1
000 101 2 0 1.78253e+09 1.78278e+09 1.7838e+09 1.79274e+09 1
000 102 2 1 1.80023e+09 1.80047e+09 1.80149e+09 1.80169e+09 0
001 103 2 1 1.80488e+09 1.80514e+09 1.80616e+09 1.80698e+09 0
001 104 1 0 1.81467e+09 1.81492e+09 1.81594e+09 1.82712e+09 0
001 105 1 0 1.82967e+09 1.82991e+09 1.83093e+09 1.83397e+09 0
001 106 1 0 1.83913e+09 1.83937e+09 1.84039e+09 1.84314e+09 0
001 107 2 1 1.84571e+09 1.84596e+09 1.84698e+09 1.85371e+09 0
001 108 1 1 1.85764e+09 1.8579e+09 1.85892e+09 1.86146e+09 0
000 109 1 1 1.86883e+09 1.86909e+09 1.87011e+09 1.87017e+09 1
000 110 1 1 1.8776e+09 1.87787e+09 1.87889e+09 1.88115e+09 1
000 111 1 0 1.89008e+09 1.89033e+09 1.89135e+09 1.89157e+09 1
001 112 2 1 1.89598e+09 1.89625e+09 1.89726e+09 1.90252e+09 0
001 113 1 1 1.90997e+09 1.91021e+09 1.91123e+09 1.91405e+09 0
000 114 1 1 1.92235e+09 1.92259e+09 1.92361e+09 1.92672e+09 1
000 115 1 1 1.9339e+09 1.93415e+09 1.93517e+09 1.93679e+09 1
000 116 1 1 1.94412e+09 1.94438e+09 1.9454e+09 1.94933e+09 1
000 117 2 1 1.95979e+09 1.96005e+09 1.96107e+09 1.97244e+09 0
001 118 1 1 1.9752e+09 1.97546e+09 1.97648e+09 1.97761e+09 0
000 119 1 1 1.98583e+09 1.98609e+09 1.98711e+09 1.98736e+09 1
000 120 1 0 1.99504e+09 1.99529e+09 1.99631e+09 1.99632e+09 1
001 121 2 0 2.00512e+09 2.00537e+09 2.00639e+09 2.01561e+09 0
000 122 2 0 2.02332e+09 2.02357e+09 2.02459e+09 2.02484e+09 1
000 123 2 0 2.03197e+09 2.03222e+09 2.03324e+09 2.03535e+09 1
000 124 2 1 2.04239e+09 2.04263e+09 2.04365e+09 2.04478e+09 1
001 125 2 0 2.05683e+09 2.05709e+09 2.05811e+09 2.06186e+09 0
000 126 2 0 2.07126e+09 2.07152e+09 2.07254e+09 2.07489e+09 1
000 127 2 1 2.08639e+09 2.08666e+09 2.08768e+09 2.08943e+09 1
001 128 1 1 2.0947e+09 2.09495e+09 2.09597e+09 2.09661e+09 0
000 129 1 1 2.10364e+09 2.10389e+09 2.10491e+09 2.10717e+09 1
000 130 1 0 2.11466e+09 2.11491e+09 2.11593e+09 2.11829e+09 1
001 131 2 1 2.12238e+09 2.12263e+09 2.12365e+09 2.12702e+09 0
001 132 2 1 2.1357e+09 2.13595e+09 2.13697e+09 2.13901e+09 0
001 133 2 1 2.14771e+09 2.14795e+09 2.14897e+09 2.15251e+09 0
001 134 1 1 2.15612e+09 2.15637e+09 2.15739e+09 2.15852e+09 0
000 135 1 1 2.16756e+09 2.16782e+09 2.16884e+09 2.17563e+09 1
000 136 1 0 2.20628e+09 2.20653e+09 2.20755e+09 2.20843e+09 1
001 137 2 1 2.21187e+09 2.21213e+09 2.21314e+09 2.21498e+09 0
001 138 1 1 2.21764e+09 2.2179e+09 2.21891e+09 2.21979e+09 0
000 139 1 0 2.2427e+09 2.24295e+09 2.24397e+09 2.24436e+09 1
001 140 2 0 2.26035e+09 2.26059e+09 2.26161e+09 2.26221e+09 0
000 141 2 0 2.27402e+09 2.27428e+09 2.2753e+09 2.27657e+09 1
000 142 2 0 2.28469e+09 2.28494e+09 2.28596e+09 2.28934e+09 1
000 143 2 0 2.2985e+09 2.29875e+09 2.29977e+09 2.3008e+09 1
000 144 2 1 2.31236e+09 2.31262e+09 2.31364e+09 2.31684e+09 0
001 145 1 0 2.32294e+09 2.32319e+09 2.32421e+09 2.32572e+09 0
001 146 1 1 2.33158e+09 2.33184e+09 2.33286e+09 2.33394e+09 0
000 147 1 0 2.34228e+09 2.34254e+09 2.34356e+09 2.34779e+09 1
001 148 1 0 2.35054e+09 2.3508e+09 2.35182e+09 2.35259e+09 0
001 149 1 0 2.37259e+09 2.37285e+09 2.37387e+09 2.37531e+09 0
001 150 1 1 2.38589e+09 2.38614e+09 2.38716e+09 2.38719e+09 0
000 151 1 0 2.41647e+09 2.41672e+09 2.41774e+09 2.41976e+09 1
001 152 1 1 2.43349e+09 2.43374e+09 2.43476e+09 2.43626e+09 0
000 153 1 0 2.44895e+09 2.4492e+09 2.45022e+09 2.45263e+09 1
001 154 2 1 2.46577e+09 2.46602e+09 2.46704e+09 2.46789e+09 0
001 155 2 1 2.4955e+09 2.49576e+09 2.49677e+09 2.49726e+09 0
001 156 2 1 2.50037e+09 2.50061e+09 2.50163e+09 2.50233e+09 0
001 157 2 1 2.51054e+09 2.51081e+09 2.51183e+09 2.51355e+09 0
001 158 1 1 2.53978e+09 2.54002e+09 2.54104e+09 2.54109e+09 0
000 159 1 0 2.55058e+09 2.55083e+09 2.55185e+09 2.55328e+09 1
001 160 1 0 2.564e+09 2.56425e+09 2.56527e+09 2.56595e+09 0
001 161 1 1 2.5692e+09 2.56945e+09 2.57047e+09 2.57049e+09 0
000 162 1 0 2.57837e+09 2.57862e+09 2.57964e+09 2.58099e+09 1
001 163 1 0 2.5929e+09 2.59315e+09 2.59417e+09 2.59548e+09 0
001 164 1 0 2.59837e+09 2.59864e+09 2.59966e+09 2.60011e+09 0
001 165 1 0 2.60272e+09 2.60296e+09 2.60398e+09 2.60901e+09 0
001 166 2 1 2.61185e+09 2.6121e+09 2.61312e+09 2.61599e+09 0
001 167 1 1 2.64086e+09 2.6411e+09 2.64212e+09 2.6431e+09 0
000 168 1 0 2.69555e+09 2.69581e+09 2.69682e+09 2.69924e+09 1
001 169 1 0 2.72994e+09 2.73019e+09 2.73121e+09 2.73514e+09 0
001 170 1 0 2.74872e+09 2.74898e+09 2.75e+09 2.75017e+09 0
001 171 1 1 2.7694e+09 2.76965e+09 2.77067e+09 2.77079e+09 0
000 172 1 0 2.79078e+09 2.79104e+09 2.79206e+09 2.79237e+09 1
001 173 2 0 2.79513e+09 2.79538e+09 2.7964e+09 2.79867e+09 0
000 174 2 1 2.82098e+09 2.82124e+09 2.82225e+09 2.82308e+09 1
001 175 1 0 2.91737e+09 2.91761e+09 2.91863e+09 2.9205e+09 0
001 176 2 1 2.93436e+09 2.93462e+09 2.93564e+09 2.93669e+09 0
001 177 1 0 2.9656e+09 2.96586e+09 2.96688e+09 2.96743e+09 0
001 178 2 1 2.98477e+09 2.98504e+09 2.98605e+09 2.98616e+09 0
001 179 2 1 3.01034e+09 3.01058e+09 3.0116e+09 3.01213e+09 0
001 180 2 1 3.03241e+09 3.03266e+09 3.03368e+09 3.03438e+09 0
001 181 1 1 3.04969e+09 3.04994e+09 3.05096e+09 3.05105e+09 0
000 182 1 1 3.06488e+09 3.06513e+09 3.06615e+09 3.06623e+09 1
000 183 1 1 3.08423e+09 3.08448e+09 3.08549e+09 3.08649e+09 1
000 184 1 0 3.094e+09 3.09425e+09 3.09527e+09 3.09548e+09 1
001 185 1 0 3.1271e+09 3.12735e+09 3.12837e+09 3.13018e+09 0
001 186 2 0 3.13294e+09 3.13319e+09 3.13421e+09 3.13494e+09 0
000 187 2 1 3.14975e+09 3.15e+09 3.15102e+09 3.15425e+09 1
001 188 1 0 3.16911e+09 3.16937e+09 3.17039e+09 3.17051e+09 0
001 189 2 1 3.17903e+09 3.17928e+09 3.1803e+09 3.18034e+09 0
001 190 1 0 3.258e+09 3.25826e+09 3.25927e+09 3.25963e+09 0
001 191 1 1 3.27639e+09 3.27664e+09 3.27766e+09 3.27793e+09 0
000 192 1 0 3.28715e+09 3.2874e+09 3.28842e+09 3.28885e+09 1
001 193 1 0 3.3101e+09 3.31035e+09 3.31137e+09 3.31691e+09 0
001 194 2 0 3.32986e+09 3.3301e+09 3.33112e+09 3.33251e+09 0
000 195 2 1 3.33999e+09 3.34024e+09 3.34126e+09 3.34173e+09 1
001 196 1 1 3.35479e+09 3.35504e+09 3.35606e+09 3.3561e+09 0
000 197 1 0 3.37356e+09 3.37382e+09 3.37484e+09 3.37514e+09 1
001 198 1 1 3.37977e+09 3.38003e+09 3.38105e+09 3.38271e+09 0
000 199 1 0 3.39345e+09 3.3937e+09 3.39472e+09 3.39479e+09 1
001 200 2 1 3.39734e+09 3.39759e+09 3.39861e+09 3.39905e+09 0
001 201 2 1 3.40167e+09 3.40193e+09 3.40295e+09 3.40316e+09 0
001 202 1 0 3.4166e+09 3.41686e+09 3.41788e+09 3.42031e+09 0
001 203 1 0 3.43792e+09 3.43819e+09 3.43921e+09 3.43991e+09 0
001 204 2 1 3.44418e+09 3.44443e+09 3.44545e+09 3.44604e+09 0
001 205 2 0 3.46136e+09 3.46163e+09 3.46265e+09 3.4634e+09 0
000 206 2 0 3.49667e+09 3.49693e+09 3.49795e+09 3.49912e+09 1
000 207 2 0 3.51663e+09 3.51688e+09 3.5179e+09 3.5186e+09 1
000 208 2 0 3.52899e+09 3.52926e+09 3.53028e+09 3.53136e+09 1
000 209 2 0 3.54398e+09 3.54424e+09 3.54526e+09 3.54816e+09 0
000 210 2 0 3.56188e+09 3.56212e+09 3.56314e+09 3.56644e+09 0
000 211 1 0 3.57699e+09 3.57725e+09 3.57827e+09 3.58166e+09 0
001 212 2 0 3.59244e+09 3.5927e+09 3.59372e+09 3.59438e+09 0
000 213 2 1 3.61061e+09 3.61087e+09 3.61189e+09 3.61294e+09 1
001 214 2 1 3.62673e+09 3.62703e+09 3.62805e+09 3.62936e+09 0
001 215 2 0 3.64361e+09 3.64386e+09 3.64488e+09 3.64499e+09 0
000 216 2 1 3.66015e+09 3.66041e+09 3.66142e+09 3.66143e+09 1
001 217 2 1 3.67018e+09 3.67043e+09 3.67145e+09 3.67641e+09 0
001 218 1 1 3.70376e+09 3.70401e+09 3.70503e+09 3.70572e+09 0
000 219 1 0 3.72273e+09 3.72297e+09 3.72399e+09 3.72611e+09 1
001 220 1 0 3.73769e+09 3.73795e+09 3.73897e+09 3.7399e+09 0
001 221 1 1 3.75913e+09 3.75939e+09 3.76041e+09 3.76114e+09 0
000 222 1 1 3.77614e+09 3.77639e+09 3.77741e+09 3.779e+09 1
000 223 1 1 3.79423e+09 3.79449e+09 3.79551e+09 3.7975e+09 1
000 224 1 0 3.80882e+09 3.80907e+09 3.81009e+09 3.81069e+09 1
001 225 1 0 3.83943e+09 3.8397e+09 3.84072e+09 3.84144e+09 0
001 226 2 0 3.86219e+09 3.86245e+09 3.86347e+09 3.86479e+09 0
000 227 2 0 3.87232e+09 3.87257e+09 3.87359e+09 3.87488e+09 1
000 228 2 1 3.89288e+09 3.89314e+09 3.89416e+09 3.89547e+09 1
001 229 2 1 3.91408e+09 3.91433e+09 3.91535e+09 3.91883e+09 0
001 230 1 1 3.93444e+09 3.93468e+09 3.9357e+09 3.94037e+09 0
000 231 1 1 3.94946e+09 3.94971e+09 3.95073e+09 3.95284e+09 1
000 232 1 1 3.96027e+09 3.96051e+09 3.96153e+09 3.96237e+09 1
000 233 1 1 3.96951e+09 3.96976e+09 3.97078e+09 3.9708e+09 1
000 234 2 0 3.98076e+09 3.98101e+09 3.98202e+09 3.98231e+09 0
000 235 2 1 3.99083e+09 3.99109e+09 3.99211e+09 3.99794e+09 0
001 236 1 1 4.00798e+09 4.00824e+09 4.00926e+09 4.01123e+09 0
000 237 1 1 4.03016e+09 4.03041e+09 4.03143e+09 4.03152e+09 1
000 238 1 0 4.03946e+09 4.03972e+09 4.04073e+09 4.04173e+09 1
001 239 1 0 4.06149e+09 4.06174e+09 4.06276e+09 4.06442e+09 0
001 240 1 1 4.08776e+09 4.08802e+09 4.08904e+09 4.0898e+09 0
000 241 1 0 4.09942e+09 4.09967e+09 4.10068e+09 4.10239e+09 1
001 242 2 0 4.11883e+09 4.1191e+09 4.12012e+09 4.12058e+09 0
000 243 2 0 4.13298e+09 4.13324e+09 4.13426e+09 4.13545e+09 1
000 244 2 0 4.14838e+09 4.14863e+09 4.14964e+09 4.15112e+09 1
000 245 2 0 4.16312e+09 4.16336e+09 4.16438e+09 4.16445e+09 1
000 246 1 0 4.17252e+09 4.17276e+09 4.17378e+09 4.17879e+09 0
001 247 2 1 4.19236e+09 4.19263e+09 4.19365e+09 4.19426e+09 0
001 248 2 0 4.20693e+09 4.20718e+09 4.2082e+09 4.20893e+09 0
000 249 2 1 4.2427e+09 4.24295e+09 4.24397e+09 4.24518e+09 1
001 250 1 0 1.16224e+07 1.18663e+07 1.28852e+07 1.41551e+07 0
001 251 2 1 2.96469e+07 2.9899e+07 3.09179e+07 3.11681e+07 0
001 252 1 0 5.3587e+07 5.38388e+07 5.48578e+07 5.50789e+07 0
001 253 2 0 6.79117e+07 6.81619e+07 6.91808e+07 6.94628e+07 0
000 254 2 1 9.2713e+07 9.29678e+07 9.39867e+07 9.47688e+07 1
001 255 1 1 9.77531e+07 9.8003e+07 9.9022e+07 9.90697e+07 0
000 256 1 0 1.10029e+08 1.10284e+08 1.11303e+08 1.12582e+08 1
001 257 1 0 1.37864e+08 1.38128e+08 1.39146e+08 1.40853e+08 0
001 258 1 1 1.43539e+08 1.43801e+08 1.4482e+08 1.45886e+08 0
000 259 1 0 1.54418e+08 1.5467e+08 1.55689e+08 1.56276e+08 1
001 260 2 1 1.61559e+08 1.61812e+08 1.62831e+08 1.64729e+08 0
001 261 1 0 1.92758e+08 1.93012e+08 1.94031e+08 1.95022e+08 0
001 262 2 1 2.0127e+08 2.01533e+08 2.02552e+08 2.02627e+08 0
001 263 2 1 2.12109e+08 2.12374e+08 2.13393e+08 2.13596e+08 0
001 264 1 0 2.16167e+08 2.16422e+08 2.17441e+08 2.17491e+08 0
001 265 2 1 2.61084e+08 2.61371e+08 2.6239e+08 2.64197e+08 0
001 266 2 1 3.19484e+08 3.19741e+08 3.2076e+08 3.21494e+08 0
001 267 2 1 3.36563e+08 3.36815e+08 3.37834e+08 3.42981e+08 0
001 268 2 1 3.68375e+08 3.68623e+08 3.69642e+08 3.7045e+08 0
001 269 1 0 3.99872e+08 4.00124e+08 4.01143e+08 4.01595e+08 0
001 270 2 0 4.06782e+08 4.07032e+08 4.08051e+08 4.09908e+08 0
000 271 2 1 4.57971e+08 4.58233e+08 4.59252e+08 4.60599e+08 1
001 272 1 1 4.64379e+08 4.64638e+08 4.65657e+08 4.65715e+08 0
000 273 1 0 4.76453e+08 4.76711e+08 4.7773e+08 4.78252e+08 1
001 274 2 1 5.41868e+08 5.42121e+08 5.43139e+08 5.44093e+08 0
001 275 1 1 5.48382e+08 5.48638e+08 5.49656e+08 5.49878e+08 0
000 276 1 1 5.58976e+08 5.59245e+08 5.60264e+08 5.63544e+08 1
000 277 1 1 5.81975e+08 5.82221e+08 5.8324e+08 5.83604e+08 1
000 278 1 0 5.94158e+08 5.94412e+08 5.95431e+08 5.96921e+08 1
001 279 1 0 6.18223e+08 6.18471e+08 6.1949e+08 6.22204e+08 0
001 280 1 1 6.25797e+08 6.26051e+08 6.2707e+08 6.28194e+08 0
000 281 1 0 6.41264e+08 6.41508e+08 6.42527e+08 6.43289e+08 1
001 282 1 0 6.64742e+08 6.65001e+08 6.6602e+08 6.67164e+08 0
001 283 1 0 6.69805e+08 6.70071e+08 6.7109e+08 6.71127e+08 0
001 284 2 0 7.30967e+08 7.31218e+08 7.32237e+08 7.32456e+08 0
000 285 2 0 7.4277e+08 7.43032e+08 7.44051e+08 7.44676e+08 1
000 286 2 1 7.76108e+08 7.76361e+08 7.77379e+08 7.78634e+08 1
001 287 1 0 8.08466e+08 8.08725e+08 8.09744e+08 8.09873e+08 0
001 288 2 1 8.41425e+08 8.41688e+08 8.42707e+08 8.42795e+08 0
001 289 2 0 9.26699e+08 9.26972e+08 9.27991e+08 9.30772e+08 0
000 290 2 0 9.38809e+08 9.39059e+08 9.40078e+08 9.49332e+08 1
000 291 2 0 9.59341e+08 9.59599e+08 9.60618e+08 9.68373e+08 1
000 292 2 1 9.76136e+08 9.76391e+08 9.7741e+08 9.79749e+08 1
001 293 1 1 9.87551e+08 9.87807e+08 9.88826e+08 9.89472e+08 0
000 294 1 1 1.01163e+09 1.01188e+09 1.0129e+09 1.01315e+09 1
000 295 1 0 1.02937e+09 1.02962e+09 1.03064e+09 1.03218e+09 1
001 296 1 1 1.03501e+09 1.03526e+09 1.03628e+09 1.03658e+09 0
000 297 1 1 1.04961e+09 1.04986e+09 1.05088e+09 1.051e+09 1
000 298 1 1 1.0691e+09 1.06935e+09 1.07037e+09 1.07162e+09 1
000 299 1 0 1.0865e+09 1.08675e+09 1.08777e+09 1.09117e+09 1
001 300 2 0 1.11041e+09 1.11065e+09 1.11167e+09 1.11302e+09 0
000 301 2 0 1.12534e+09 1.12559e+09 1.12661e+09 1.12771e+09 1
000 302 2 1 1.1659e+09 1.16616e+09 1.16718e+09 1.16788e+09 1
001 303 1 1 1.18715e+09 1.18741e+09 1.18843e+09 1.18884e+09 0
000 304 1 1 1.20774e+09 1.20799e+09 1.20901e+09 1.21031e+09 1
000 305 1 1 1.2472e+09 1.24744e+09 1.24846e+09 1.24939e+09 1
000 306 1 0 1.25687e+09 1.25713e+09 1.25814e+09 1.26792e+09 1
001 307 2 0 1.2708e+09 1.27106e+09 1.27207e+09 1.27234e+09 0
000 308 2 1 1.28397e+09 1.28423e+09 1.28525e+09 1.28802e+09 1
001 309 2 0 1.30852e+09 1.30884e+09 1.30986e+09 1.31071e+09 0
000 310 2 1 1.32634e+09 1.32659e+09 1.32761e+09 1.33043e+09 1
001 311 1 1 1.33311e+09 1.33337e+09 1.33439e+09 1.33583e+09 0
000 312 1 0 1.35123e+09 1.35148e+09 1.3525e+09 1.35582e+09 1
001 313 2 0 1.3632e+09 1.36345e+09 1.36447e+09 1.36553e+09 0
000 314 2 0 1.3753e+09 1.37555e+09 1.37657e+09 1.38012e+09 1
000 315 2 1 1.40144e+09 1.40169e+09 1.40271e+09 1.40654e+09 1
001 316 2 1 1.41494e+09 1.4152e+09 1.41622e+09 1.41678e+09 0
001 317 2 1 1.42452e+09 1.42477e+09 1.42578e+09 1.42638e+09 0
001 318 1 1 1.43005e+09 1.4303e+09 1.43132e+09 1.43182e+09 0
000 319 1 1 1.44902e+09 1.44926e+09 1.45028e+09 1.45105e+09 1
000 320 1 1 1.45855e+09 1.4588e+09 1.45982e+09 1.46011e+09 1
000 321 1 1 1.4722e+09 1.47244e+09 1.47346e+09 1.47491e+09 1
000 322 2 0 1.4825e+09 1.48276e+09 1.48378e+09 1.48398e+09 0
000 323 2 1 1.4929e+09 1.49315e+09 1.49417e+09 1.49534e+09 0
001 324 2 0 1.51291e+09 1.51318e+09 1.51419e+09 1.51526e+09 0
000 325 2 0 1.54362e+09 1.54387e+09 1.54489e+09 1.54632e+09 1
000 326 2 1 1.55361e+09 1.55386e+09 1.55488e+09 1.55604e+09 1
001 327 1 0 1.57349e+09 1.57374e+09 1.57476e+09 1.57609e+09 0
001 328 2 0 1.58904e+09 1.5893e+09 1.59032e+09 1.59279e+09 0
000 329 2 0 1.60108e+09 1.60133e+09 1.60235e+09 1.60423e+09 1
000 330 2 0 1.61238e+09 1.61264e+09 1.61366e+09 1.61369e+09 1
000 331 2 1 1.62976e+09 1.63001e+09 1.63103e+09 1.63304e+09 1
001 332 1 1 1.64208e+09 1.64233e+09 1.64334e+09 1.64362e+09 0
000 333 1 0 1.65437e+09 1.65463e+09 1.65564e+09 1.65737e+09 1
001 334 1 1 1.69722e+09 1.69749e+09 1.6985e+09 1.69964e+09 0
000 335 1 0 1.7154e+09 1.71566e+09 1.71668e+09 1.71673e+09 1
001 336 1 0 1.73717e+09 1.73742e+09 1.73844e+09 1.74428e+09 0
001 337 2 1 1.75751e+09 1.75776e+09 1.75878e+09 1.76114e+09 0
001 338 1 0 1.77841e+09 1.77866e+09 1.77968e+09 1.78028e+09 0
001 339 1 0 1.79045e+09 1.7907e+09 1.79171e+09 1.79411e+09 0
001 340 1 1 1.81058e+09 1.81083e+09 1.81185e+09 1.81227e+09 0
000 341 1 0 1.86454e+09 1.86479e+09 1.86581e+09 1.87103e+09 1
001 342 1 1 1.89732e+09 1.89758e+09 1.8986e+09 1.90011e+09 0
000 343 1 0 1.92839e+09 1.92864e+09 1.92966e+09 1.93139e+09 1
001 344 1 1 1.94643e+09 1.94669e+09 1.94771e+09 1.95124e+09 0
000 345 1 0 1.96109e+09 1.96134e+09 1.96236e+09 1.96575e+09 1
001 346 2 0 1.9868e+09 1.98706e+09 1.98808e+09 1.98839e+09 0
000 347 2 1 1.99652e+09 1.99678e+09 1.9978e+09 1.99782e+09 1
001 348 1 1 2.00585e+09 2.00609e+09 2.00711e+09 2.00712e+09 0
000 349 1 0 2.01419e+09 2.01444e+09 2.01546e+09 2.01753e+09 1
001 350 1 0 2.02378e+09 2.02403e+09 2.02505e+09 2.03049e+09 0
001 351 2 0 2.04165e+09 2.0419e+09 2.04292e+09 2.04561e+09 0
000 352 2 1 2.0601e+09 2.06035e+09 2.06137e+09 2.06189e+09 1
001 353 2 1 2.06489e+09 2.06514e+09 2.06616e+09 2.06618e+09 0
001 354 1 0 2.08595e+09 2.08621e+09 2.08723e+09 2.08812e+09 0
001 355 1 0 2.10932e+09 2.10958e+09 2.1106e+09 2.11093e+09 0
001 356 2 0 2.13249e+09 2.13274e+09 2.13376e+09 2.13502e+09 0
000 357 2 0 2.14816e+09 2.14841e+09 2.14943e+09 2.1501e+09 1
000 358 2 1 2.15983e+09 2.16007e+09 2.16109e+09 2.16177e+09 1
001 359 1 1 2.18015e+09 2.18041e+09 2.18143e+09 2.18182e+09 0
000 360 1 1 2.18931e+09 2.18957e+09 2.19059e+09 2.19349e+09 1
000 361 1 0 2.20652e+09 2.20678e+09 2.2078e+09 2.21046e+09 1
001 362 1 1 2.21739e+09 2.21765e+09 2.21866e+09 2.22104e+09 0
000 363 1 0 2.25146e+09 2.25171e+09 2.25273e+09 2.25554e+09 1
001 364 1 0 2.26764e+09 2.2679e+09 2.26892e+09 2.27171e+09 0
001 365 2 1 2.28995e+09 2.29021e+09 2.29123e+09 2.29284e+09 0
001 366 2 1 2.30582e+09 2.30606e+09 2.30708e+09 2.30836e+09 0
001 367 1 1 2.33843e+09 2.33869e+09 2.33971e+09 2.34011e+09 0
000 368 1 0 2.35406e+09 2.35432e+09 2.35534e+09 2.36049e+09 1
001 369 2 0 2.38785e+09 2.38811e+09 2.38913e+09 2.39121e+09 0
000 370 2 0 2.40752e+09 2.40776e+09 2.40878e+09 2.40893e+09 1
000 371 2 1 2.41952e+09 2.41978e+09 2.4208e+09 2.42318e+09 1
001 372 2 0 2.43057e+09 2.43082e+09 2.43183e+09 2.43276e+09 0
000 373 2 0 2.44098e+09 2.44124e+09 2.44226e+09 2.44407e+09 1
000 374 2 1 2.45664e+09 2.4569e+09 2.45792e+09 2.45836e+09 1
001 375 1 0 2.47406e+09 2.47431e+09 2.47533e+09 2.47648e+09 0
001 376 2 1 2.49445e+09 2.49471e+09 2.49573e+09 2.49654e+09 0
001 377 1 1 2.52991e+09 2.53016e+09 2.53118e+09 2.53393e+09 0
000 378 1 0 2.54422e+09 2.54446e+09 2.54548e+09 2.54629e+09 1
001 379 1 1 2.56888e+09 2.56913e+09 2.57015e+09 2.5709e+09 0
000 380 1 1 2.57814e+09 2.57838e+09 2.5794e+09 2.57966e+09 1
000 381 1 1 2.59083e+09 2.59109e+09 2.59211e+09 2.59403e+09 1
000 382 1 0 2.60118e+09 2.60144e+09 2.60245e+09 2.60423e+09 1
001 383 1 0 2.60931e+09 2.60957e+09 2.61059e+09 2.61061e+09 0
001 384 2 1 2.61816e+09 2.61842e+09 2.61943e+09 2.62159e+09 0
001 385 2 0 2.63172e+09 2.63198e+09 2.63299e+09 2.63367e+09 0
000 386 2 1 2.64092e+09 2.64117e+09 2.64218e+09 2.64245e+09 1
001 387 2 1 2.65113e+09 2.65139e+09 2.6524e+09 2.65303e+09 0
001 388 1 0 2.65933e+09 2.65959e+09 2.66061e+09 2.66352e+09 0
001 389 2 1 2.66733e+09 2.66759e+09 2.66861e+09 2.66927e+09 0
001 390 1 1 2.6748e+09 2.67505e+09 2.67607e+09 2.67609e+09 0
000 391 1 1 2.68521e+09 2.68546e+09 2.68648e+09 2.68687e+09 1
000 392 1 1 2.69823e+09 2.69849e+09 2.69951e+09 2.70207e+09 1
000 393 1 0 2.71223e+09 2.71248e+09 2.7135e+09 2.71546e+09 1
001 394 2 0 2.73594e+09 2.73619e+09 2.73721e+09 2.74167e+09 0
000 395 2 1 2.7534e+09 2.75366e+09 2.75468e+09 2.75681e+09 1
001 396 2 1 2.76342e+09 2.76367e+09 2.76469e+09 2.76475e+09 0
001 397 2 1 2.76861e+09 2.76887e+09 2.76989e+09 2.77071e+09 0
001 398 2 0 2.77824e+09 2.77848e+09 2.7795e+09 2.78124e+09 0
000 399 2 1 2.79116e+09 2.79142e+09 2.79244e+09 2.79336e+09 1
001 400 2 1 2.79585e+09 2.7961e+09 2.79712e+09 2.82496e+09 0
001 401 1 1 2.82947e+09 2.82972e+09 2.83073e+09 2.83739e+09 0
000 402 1 0 2.84447e+09 2.84473e+09 2.84575e+09 2.89484e+09 1
001 403 2 1 2.8975e+09 2.89775e+09 2.89877e+09 2.90223e+09 0
001 404 1 0 2.90581e+09 2.90605e+09 2.90707e+09 2.91655e+09 0
001 405 1 0 2.91928e+09 2.91953e+09 2.92055e+09 2.92157e+09 0
001 406 1 1 2.92436e+09 2.92461e+09 2.92562e+09 2.99656e+09 0
000 407 1 1 3.00409e+09 3.00434e+09 3.00536e+09 3.01844e+09 1
000 408 1 1 3.02594e+09 3.02618e+09 3.0272e+09 3.03085e+09 1
000 409 1 1 3.03793e+09 3.03818e+09 3.0392e+09 3.04444e+09 1
000 410 1 1 3.05177e+09 3.05202e+09 3.05304e+09 3.05607e+09 0
000 411 1 1 3.0633e+09 3.06355e+09 3.06457e+09 3.08036e+09 0
000 412 2 1 3.08794e+09 3.08819e+09 3.0892e+09 3.18027e+09 0
001 413 1 1 3.18634e+09 3.1866e+09 3.18761e+09 3.26986e+09 0
000 414 1 0 3.2802e+09 3.28045e+09 3.28147e+09 3.31501e+09 1
001 415 2 0 3.32413e+09 3.32438e+09 3.3254e+09 3.33242e+09 0
000 416 2 1 3.33985e+09 3.3401e+09 3.34112e+09 3.34411e+09 1
001 417 1 1 3.34675e+09 3.34701e+09 3.34803e+09 3.35287e+09 0
000 418 1 0 3.36002e+09 3.36027e+09 3.36128e+09 3.66709e+09 1
001 419 1 1 3.66982e+09 3.67006e+09 3.67108e+09 3.6721e+09 0
000 420 1 1 3.67925e+09 3.6795e+09 3.68052e+09 3.68052e+09 1
000 421 1 1 3.68781e+09 3.68807e+09 3.68909e+09 3.69013e+09 1
000 422 1 1 3.69879e+09 3.69905e+09 3.70007e+09 3.70391e+09 1
000 423 2 1 3.71117e+09 3.71142e+09 3.71244e+09 3.71365e+09 0
001 424 2 0 3.71633e+09 3.7166e+09 3.71762e+09 3.71972e+09 0
000 425 2 1 3.72716e+09 3.72741e+09 3.72843e+09 3.76741e+09 1
001 426 2 0 3.771e+09 3.77125e+09 3.77227e+09 3.77402e+09 0
000 427 2 1 3.78115e+09 3.7814e+09 3.78242e+09 3.85724e+09 1
001 428 2 1 3.8599e+09 3.8602e+09 3.86122e+09 3.86127e+09 0
001 429 2 1 3.86594e+09 3.86618e+09 3.8672e+09 3.88496e+09 0
001 430 1 1 3.88771e+09 3.88796e+09 3.88898e+09 3.89415e+09 0
000 431 1 1 3.90124e+09 3.90149e+09 3.90251e+09 3.90461e+09 1
000 432 1 0 3.91194e+09 3.91219e+09 3.9132e+09 3.93132e+09 1
001 433 1 1 3.93394e+09 3.93419e+09 3.93521e+09 3.94682e+09 0
000 434 1 0 3.95393e+09 3.95418e+09 3.9552e+09 3.99804e+09 1
001 435 2 0 4.00584e+09 4.00609e+09 4.00711e+09 4.21265e+09 0
000 436 2 0 4.21995e+09 4.2202e+09 4.22122e+09 4.25692e+09 1
000 437 2 1 4.2641e+09 4.26435e+09 4.26537e+09 1.69544e+08 1
001 438 2 1 1.73112e+08 1.73361e+08 1.7438e+08 1.75206e+08 0
001 439 2 1 1.78972e+08 1.7923e+08 1.80249e+08 1.90223e+08 0
001 440 2 1 1.92881e+08 1.93127e+08 1.94146e+08 1.97769e+08 0
001 441 2 0 2.00188e+08 2.00443e+08 2.01462e+08 2.03298e+08 0
000 442 2 1 2.10613e+08 2.10858e+08 2.11877e+08 2.3187e+08 1
001 443 2 1 2.36206e+08 2.36451e+08 2.3747e+08 2.4168e+08 0
001 444 2 1 2.44209e+08 2.44453e+08 2.45472e+08 2.47419e+08 0
001 