trial trialType response stillTime stimOnset stimOffset respTime correctionTrial correct
001 2 1 1.07459e+07 1.10499e+07 1.20688e+07 1.63167e+07 0
001 002 1 1 1.91498e+07 1.94349e+07 2.04538e+07 5.91201e+08 0
000 003 1 0 6.04772e+08 6.05064e+08 6.06083e+08 6.07152e+08 1
001 004 1 0 6.09768e+08 6.10039e+08 6.11058e+08 6.12297e+08 0
001 005 1 0 6.27663e+08 6.2792e+08 6.28939e+08 6.3456e+08 0
001 006 1 0 6.38389e+08 6.38645e+08 6.39664e+08 6.39686e+08 0
001 007 2 0 6.74586e+08 6.7484e+08 6.75859e+08 6.77064e+08 0
000 008 2 0 7.12636e+08 7.12886e+08 7.13905e+08 7.1628e+08 1
000 009 2 1 7.40573e+08 7.40816e+08 7.41835e+08 7.45363e+08 1
001 010 2 0 7.59358e+08 7.59604e+08 7.60623e+08 7.65592e+08 0
000 011 2 1 7.73054e+08 7.73297e+08 7.74316e+08 7.76303e+08 1
001 012 1 0 7.8014e+08 7.80383e+08 7.81402e+08 7.83859e+08 0
001 013 1 1 7.93064e+08 7.93309e+08 7.94327e+08 7.94914e+08 0
000 014 1 0 8.04405e+08 8.04654e+08 8.05673e+08 8.0852e+08 1
001 015 2 1 8.16406e+08 8.16659e+08 8.17678e+08 8.26849e+08 0
001 016 1 0 8.57786e+08 8.5803e+08 8.59049e+08 8.60998e+08 0
001 017 2 0 8.64515e+08 8.64763e+08 8.65782e+08 8.65972e+08 0
000 018 2 0 8.73904e+08 8.74154e+08 8.75173e+08 8.78851e+08 1
000 019 2 1 9.00235e+08 9.00491e+08 9.0151e+08 9.03118e+08 1
001 020 2 1 9.07814e+08 9.08056e+08 9.09075e+08 9.09462e+08 0
001 021 1 0 9.17975e+08 9.18225e+08 9.19244e+08 9.22156e+08 0
001 022 2 0 9.30663e+08 9.30906e+08 9.31925e+08 9.33015e+08 0
000 023 2 1 9.40275e+08 9.40527e+08 9.41546e+08 9.43832e+08 1
001 024 1 0 9.4634e+08 9.46595e+08 9.47614e+08 9.47717e+08 0
001 025 2 0 9.50559e+08 9.50805e+08 9.51824e+08 9.53043e+08 0
000 026 2 0 9.71632e+08 9.71887e+08 9.72906e+08 9.75395e+08 1
000 027 2 0 9.90074e+08 9.90321e+08 9.91339e+08 9.91717e+08 1
000 028 2 0 1.01146e+09 1.0117e+09 1.01272e+09 1.02008e+09 1
000 029 1 0 1.02748e+09 1.02774e+09 1.02876e+09 1.02895e+09 0
001 030 1 1 1.04487e+09 1.04512e+09 1.04614e+09 1.04703e+09 0
000 031 1 0 1.07429e+09 1.07454e+09 1.07556e+09 1.08361e+09 1
001 032 2 0 1.09001e+09 1.09026e+09 1.09128e+09 1.09179e+09 0
000 033 2 0 1.09951e+09 1.09976e+09 1.10077e+09 1.10673e+09 1
000 034 2 0 1.11518e+09 1.11544e+09 1.11646e+09 1.12105e+09 1
000 035 2 0 1.1359e+09 1.13614e+09 1.13716e+09 1.13949e+09 1
000 036 2 0 1.14693e+09 1.14718e+09 1.1482e+09 1.151e+09 0
000 037 2 1 1.15916e+09 1.15941e+09 1.16042e+09 1.17349e+09 0
001 038 2 0 1.17608e+09 1.17634e+09 1.17736e+09 1.17794e+09 0
000 039 2 1 1.1856e+09 1.18584e+09 1.18686e+09 1.18796e+09 1
001 040 2 0 1.19528e+09 1.19553e+09 1.19655e+09 1.1984e+09 0
000 041 2 1 1.2088e+09 1.20905e+09 1.21007e+09 1.21308e+09 1
001 042 2 1 1.22154e+09 1.22179e+09 1.22281e+09 1.22336e+09 0
001 043 2 1 1.22614e+09 1.22638e+09 1.2274e+09 1.23335e+09 0
001 044 2 1 1.2391e+09 1.23935e+09 1.24037e+09 1.24425e+09 0
001 045 1 0 1.25247e+09 1.25271e+09 1.25373e+09 1.2542e+09 0
001 046 1 1 1.26155e+09 1.26181e+09 1.26283e+09 1.26363e+09 0
000 047 1 1 1.27871e+09 1.27896e+09 1.27998e+09 1.28593e+09 1
000 048 1 0 1.29812e+09 1.29838e+09 1.2994e+09 1.30603e+09 1
001 049 2 0 1.32115e+09 1.32139e+09 1.32241e+09 1.32278e+09 0
000 050 2 0 1.3448e+09 1.34506e+09 1.34608e+09 1.34612e+09 1
000 051 2 0 1.35531e+09 1.35555e+09 1.35657e+09 1.35884e+09 1
000 052 2 1 1.37449e+09 1.37473e+09 1.37575e+09 1.37924e+09 1
001 053 1 0 1.39036e+09 1.39061e+09 1.39163e+09 1.39168e+09 0
001 054 2 1 1.48326e+09 1.48351e+09 1.48452e+09 1.48508e+09 0
001 055 2 0 1.49012e+09 1.49036e+09 1.49138e+09 1.4915e+09 0
000 056 2 0 1.51833e+09 1.51858e+09 1.5196e+09 1.52048e+09 1
000 057 2 1 1.52834e+09 1.52859e+09 1.52961e+09 1.53012e+09 1
001 058 2 0 1.56004e+09 1.5603e+09 1.56132e+09 1.56825e+09 0
000 059 2 0 1.57556e+09 1.57581e+09 1.57682e+09 1.57831e+09 1
000 060 2 1 1.60668e+09 1.60693e+09 1.60795e+09 1.61347e+09 1
001 061 2 0 1.61656e+09 1.61682e+09 1.61784e+09 1.62212e+09 0
000 062 2 0 1.63219e+09 1.63244e+09 1.63346e+09 1.63525e+09 1
000 063 2 1 1.64306e+09 1.6433e+09 1.64432e+09 1.64572e+09 1
001 064 2 0 1.6488e+09 1.64905e+09 1.65007e+09 1.65044e+09 0
000 065 2 0 1.65895e+09 1.6592e+09 1.66022e+09 1.66091e+09 1
000 066 2 1 1.67213e+09 1.67238e+09 1.6734e+09 1.67613e+09 1
001 067 1 1 1.68153e+09 1.68177e+09 1.68279e+09 1.68406e+09 0
000 068 1 0 1.69514e+09 1.69538e+09 1.6964e+09 1.6965e+09 1
001 069 1 1 1.69922e+09 1.69947e+09 1.70049e+09 1.70056e+09 0
000 070 1 1 1.70802e+09 1.70827e+09 1.70929e+09 1.71379e+09 1
000 071 1 1 1.7476e+09 1.74786e+09 1.74888e+09 1.74923e+09 1
000 072 1 1 1.77294e+09 1.77319e+09 1.7742e+09 1.77529e+09 1
000 073 1 0 1.78319e+09 1.78344e+09 1.78446e+09 1.78636e+09 0
001 074 1 0 1.79282e+09 1.79307e+09 1.79409e+09 1.79623e+09 0
001 075 1 0 1.84857e+09 1.84882e+09 1.84984e+09 1.85055e+09 0
001 076 2 1 1.87745e+09 1.8777e+09 1.87872e+09 1.88289e+09 0
001 077 2 1 1.88718e+09 1.88742e+09 1.88844e+09 1.88978e+09 0
001 078 1 0 1.8972e+09 1.89745e+09 1.89847e+09 1.89912e+09 0
001 079 1 1 1.97745e+09 1.9777e+09 1.97872e+09 1.98209e+09 0
000 080 1 0 1.99244e+09 1.9927e+09 1.99372e+09 1.99781e+09 1
001 081 2 1 2.01769e+09 2.01794e+09 2.01896e+09 2.01912e+09 0
001 082 2 0 2.02701e+09 2.02726e+09 2.02828e+09 2.02873e+09 0
000 083 2 1 2.04351e+09 2.04376e+09 2.04478e+09 2.04481e+09 1
001 084 2 0 2.07783e+09 2.07808e+09 2.0791e+09 2.0793e+09 0
000 085 2 1 2.09489e+09 2.09515e+09 2.09617e+09 2.09658e+09 1
001 086 1 0 2.2171e+09 2.21735e+09 2.21837e+09 2.22989e+09 0
001 087 2 1 2.23574e+09 2.23599e+09 2.23701e+09 2.23875e+09 0
001 088 2 1 2.2676e+09 2.26785e+09 2.26887e+09 2.27026e+09 0
001 089 2 1 2.2951e+09 2.29535e+09 2.29637e+09 2.29975e+09 0
001 090 2 1 2.32775e+09 2.32801e+09 2.32902e+09 2.32914e+09 0
001 091 2 0 2.35337e+09 2.35361e+09 2.35463e+09 2.35562e+09 0
000 092 2 1 2.37477e+09 2.37502e+09 2.37604e+09 2.37715e+09 1
001 093 2 1 2.39398e+09 2.39423e+09 2.39525e+09 2.39618e+09 0
001 094 2 1 2.40387e+09 2.40411e+09 2.40513e+09 2.41017e+09 0
001 095 1 1 2.44086e+09 2.44111e+09 2.44213e+09 2.44285e+09 0
000 096 1 1 2.46133e+09 2.46158e+09 2.4626e+09 2.46369e+09 1
000 097 1 1 2.54572e+09 2.54598e+09 2.54699e+09 2.54749e+09 1
000 098 1 0 2.61837e+09 2.61865e+09 2.61967e+09 2.62079e+09 1
001 099 1 1 2.63388e+09 2.63413e+09 2.63515e+09 2.63666e+09 0
000 100 1 1 2.68995e+09 2.69024e+09 2.69126e+09 2.69176e+09 1
000 101 1 0 2.70332e+09 2.70356e+09 2.70458e+09 2.70588e+09 1
001 102 2 1 2.73463e+09 2.73488e+09 2.7359e+09 2.73728e+09 0
001 103 1 1 2.77127e+09 2.77152e+09 2.77254e+09 2.77271e+09 0
000 104 1 0 2.80467e+09 2.80492e+09 2.80594e+09 2.80644e+09 1
001 105 1 1 2.85267e+09 2.85292e+09 2.85394e+09 2.85577e+09 0
000 106 1 0 2.8672e+09 2.86746e+09 2.86848e+09 2.86983e+09 1
001 107 1 0 2.93231e+09 2.93257e+09 2.93359e+09 2.93462e+09 0
001 108 2 1 3.2101e+09 3.21035e+09 3.21137e+09 3.21195e+09 0
001 109 1 0 3.31716e+09 3.31741e+09 3.31843e+09 3.31852e+09 0
001 110 2 1 3.43944e+09 3.43969e+09 3.44071e+09 3.44222e+09 0
001 111 1 1 3.54624e+09 3.54649e+09 3.54751e+09 3.54816e+09 0
000 112 1 1 3.6351e+09 3.63534e+09 3.63636e+09 3.63729e+09 1
000 113 1 1 3.64621e+09 3.64646e+09 3.64748e+09 3.64786e+09 1
000 114 1 1 3.65774e+09 3.65799e+09 3.65901e+09 3.661e+09 1
000 115 1 1 3.67995e+09 3.6802e+09 3.68122e+09 3.68298e+09 0
000 116 1 1 3.6906e+09 3.69086e+09 3.69188e+09 3.69195e+09 0
000 117 2 0 3.70257e+09 3.70282e+09 3.70383e+09 3.70584e+09 0
000 118 2 1 3.80141e+09 3.8017e+09 3.80272e+09 3.80283e+09 0
001 119 1 1 3.81119e+09 3.81144e+09 3.81246e+09 3.81261e+09 0
000 120 1 0 3.83126e+09 3.83151e+09 3.83253e+09 3.83312e+09 1
001 121 2 0 4.00374e+09 4.00399e+09 4.00501e+09 4.00508e+09 0
000 122 2 0 4.03231e+09 4.03256e+09 4.03358e+09 4.03443e+09 1
000 123 2 1 4.04211e+09 4.04236e+09 4.04338e+09 4.04363e+09 1
001 124 1 1 4.04913e+09 4.04939e+09 4.05041e+09 4.05135e+09 0
000 125 1 1 4.06643e+09 4.06667e+09 4.06769e+09 4.06863e+09 1
000 126 1 1 4.07617e+09 4.07642e+09 4.07744e+09 4.07776e+09 1
000 127 1 1 4.0852e+09 4.08545e+09 4.08647e+09 4.0874e+09 1
000 128 1 1 4.09563e+09 4.09589e+09 4.09691e+09 4.09942e+09 0
000 129 2 1 4.10651e+09 4.10675e+09 4.10777e+09 4.10856e+09 0
001 130 1 1 4.14591e+09 4.14616e+09 4.14718e+09 4.1485e+09 0
000 131 1 0 4.15778e+09 4.15802e+09 4.15904e+09 4.15918e+09 1
001 132 1 1 4.1681e+09 4.16835e+09 4.16937e+09 4.16943e+09 0
000 133 1 1 4.17914e+09 4.17939e+09 4.1804e+09 4.18078e+09 1
000 134 1 1 4.23374e+09 4.23402e+09 4.23504e+09 4.23616e+09 1
000 135 1 0 4.26891e+09 4.26916e+09 4.27018e+09 4.27092e+09 1
001 136 1 1 6.90801e+07 6.93346e+07 7.03535e+07 7.05819e+07 0
000 137 1 1 8.21443e+07 8.23904e+07 8.34093e+07 8.84595e+07 1
000 138 1 1 1.2942e+08 1.29676e+08 1.30695e+08 1.31366e+08 1
000 139 1 1 1.40514e+08 1.4077e+08 1.41789e+08 1.42782e+08 1
000 140 2 0 1.67429e+08 1.67672e+08 1.68691e+08 1.696e+08 0
000 141 1 0 2.05074e+08 2.05336e+08 2.06355e+08 2.0922e+08 0
001 142 1 0 3.49384e+08 3.49637e+08 3.50656e+08 3.51608e+08 0
001 143 2 0 4.40234e+08 4.40484e+08 4.41503e+08 4.42984e+08 0
000 144 2 1 6.68039e+08 6.68294e+08 6.69313e+08 6.69333e+08 1
001 145 2 0 7.1439e+08 7.14644e+08 7.15662e+08 7.16565e+08 0
000 146 2 0 8.08996e+08 8.09239e+08 8.10258e+08 8.11091e+08 1
000 147 2 1 8.19734e+08 8.19977e+08 8.20996e+08 8.21714e+08 1
001 148 1 1 9.5457e+08 9.54817e+08 9.55836e+08 9.57655e+08 0
000 149 1 0 1.10656e+09 1.10681e+09 1.10783e+09 1.10798e+09 1
001 150 2 1 1.19086e+09 1.19112e+09 1.19214e+09 1.1935e+09 0
001 151 1 0 1.41969e+09 1.41995e+09 1.42097e+09 1.42155e+09 0
001 152 1 1 1.43253e+09 1.43277e+09 1.43379e+09 1.43447e+09 0
000 153 1 0 1.47954e+09 1.4798e+09 1.48081e+09 1.48082e+09 1
001 154 1 1 1.53291e+09 1.53316e+09 1.53418e+09 1.53885e+09 0
000 155 1 0 1.71317e+09 1.71342e+09 1.71444e+09 1.71622e+09 1
001 156 2 0 1.82913e+09 1.82938e+09 1.8304e+09 1.83047e+09 0
000 157 2 1 1.86099e+09 1.86124e+09 1.86226e+09 1.86377e+09 1
001 158 2 1 2.01607e+09 2.01632e+09 2.01734e+09 2.0183e+09 0
001 159 1 1 2.05548e+09 2.05573e+09 2.05675e+09 2.06252e+09 0
000 160 1 0 2.07384e+09 2.07409e+09 2.0751e+09 2.07776e+09 1
001 161 2 1 2.11293e+09 2.11318e+09 2.1142e+09 2.11572e+09 0
001 162 1 0 2.13137e+09 2.13162e+09 2.13264e+09 2.1338e+09 0
001 163 1 1 2.39979e+09 2.40004e+09 2.40106e+09 2.40163e+09 0
000 164 1 1 2.4145e+09 2.41474e+09 2.41576e+09 2.41628e+09 1
000 165 1 1 2.44332e+09 2.44357e+09 2.44459e+09 2.44635e+09 1
000 166 1 0 2.50488e+09 2.50512e+09 2.50614e+09 2.50617e+09 1
001 167 1 0 2.52477e+09 2.52503e+09 2.52605e+09 2.52614e+09 0
001 168 2 0 2.66044e+09 2.6607e+09 2.66172e+09 2.66199e+09 0
000 169 2 0 2.6694e+09 2.66964e+09 2.67066e+09 2.6708e+09 1
000 170 2 1 2.70095e+09 2.7012e+09 2.70222e+09 2.70357e+09 1
001 171 1 0 2.71068e+09 2.71093e+09 2.71195e+09 2.71196e+09 0
001 172 2 0 2.89329e+09 2.89354e+09 2.89456e+09 2.89469e+09 0
000 173 2 0 3.06264e+09 3.06289e+09 3.06391e+09 3.0656e+09 1
000 174 2 0 3.08778e+09 3.08803e+09 3.08905e+09 3.09376e+09 1
000 175 2 0 3.11106e+09 3.11132e+09 3.11233e+09 3.11261e+09 1
000 176 1 1 3.14333e+09 3.14359e+09 3.14461e+09 3.14525e+09 0
000 177 1 1 3.15727e+09 3.15752e+09 3.15854e+09 3.15896e+09 0
000 178 2 1 3.16678e+09 3.16702e+09 3.16804e+09 3.17282e+09 0
001 179 2 1 3.24625e+09 3.24655e+09 3.24757e+09 3.24815e+09 0
001 180 1 1 3.37048e+09 3.37073e+09 3.37175e+09 3.37195e+09 0
000 181 1 0 3.38048e+09 3.38072e+09 3.38174e+09 3.38189e+09 1
001 182 1 1 3.40941e+09 3.40967e+09 3.41069e+09 3.41243e+09 0
000 183 1 1 3.44321e+09 3.44346e+09 3.44448e+09 3.44518e+09 1
000 184 1 0 3.46938e+09 3.46962e+09 3.47064e+09 3.47202e+09 1
001 185 1 0 3.47745e+09 3.4777e+09 3.47872e+09 3.47988e+09 0
001 186 1 0 3.61319e+09 3.61345e+09 3.61446e+09 3.61465e+09 0
001 187 2 0 3.74262e+09 3.74287e+09 3.74389e+09 3.74424e+09 0
000 188 2 0 3.75166e+09 3.7519e+09 3.75292e+09 3.75347e+09 1
000 189 2 0 3.7704e+09 3.77065e+09 3.77167e+09 3.77183e+09 1
000 190 2 1 3.82916e+09 3.8294e+09 3.83042e+09 3.83089e+09 1
001 191 1 0 3.848e+09 3.84825e+09 3.84927e+09 3.85292e+09 0
001 192 1 0 3.93407e+09 3.93433e+09 3.93535e+09 3.93537e+09 0
001 193 2 1 3.97606e+09 3.97632e+09 3.97734e+09 3.9776e+09 0
001 194 2 1 4.20071e+09 4.20097e+09 4.20199e+09 4.20287e+09 0
001 195 2 1 4.22452e+09 4.22477e+09 4.22579e+09 4.22677e+09 0
001 196 1 0 4.26172e+09 4.26197e+09 4.26299e+09 4.26334e+09 0
001 197 2 1 4.27309e+09 4.27334e+09 4.27436e+09 4.27646e+09 0
001 198 2 1 5.98632e+06 6.2446e+06 7.26354e+06 7.70566e+06 0
001 199 1 1 1.82887e+07 1.85301e+07 1.95491e+07 2.11129e+07 0
000 200 1 0 2.90028e+07 2.92569e+07 3.02758e+07 3.04847e+07 1
001 201 1 0 1.51982e+08 1.52267e+08 1.53286e+08 1.53329e+08 0
001 202 2 0 2.84137e+08 2.84389e+08 2.85408e+08 2.86471e+08 0
000 203 2 0 2.95929e+08 2.96184e+08 2.97203e+08 2.99343e+08 1
000 204 2 0 3.22761e+08 3.23011e+08 3.24029e+08 3.2803e+08 1
000 205 2 0 3.62893e+08 3.63149e+08 3.64168e+08 3.66925e+08 1
000 206 1 0 3.8184e+08 3.82084e+08 3.83103e+08 3.8331e+08 0
001 207 2 1 4.38107e+08 4.38348e+08 4.39367e+08 4.40909e+08 0
001 208 1 0 4.74251e+08 4.745e+08 4.75519e+08 4.77015e+08 0
001 209 2 1 4.92378e+08 4.92623e+08 4.93642e+08 4.9369e+08 0
001 210 1 0 5.33481e+08 5.33725e+08 5.34744e+08 5.3511e+08 0
001 211 2 0 5.97072e+08 5.9736e+08 5.98379e+08 6.00702e+08 0
000 212 2 0 6.2353e+08 6.23786e+08 6.24805e+08 6.26196e+08 1
000 213 2 0 6.50535e+08 6.50788e+08 6.51807e+08 6.60314e+08 1
000 214 2 0 6.72176e+08 6.7243e+08 6.73448e+08 6.76654e+08 1
000 215 1 1 6.88732e+08 6.88984e+08 6.90003e+08 6.92773e+08 0
000 216 2 1 7.00696e+08 7.0094e+08 7.01959e+08 7.02284e+08 0
001 217 1 0 7.26231e+08 7.26479e+08 7.27498e+08 7.27861e+08 0
001 218 2 1 7.91756e+08 7.91999e+08 7.93018e+08 7.94371e+08 0
001 219 1 0 8.01439e+08 8.01681e+08 8.027e+08 8.06418e+08 0
001 220 2 1 8.3468e+08 8.34933e+08 8.35952e+08 8.40571e+08 0
001 221 2 1 8.85624e+08 8.85872e+08 8.86891e+08 8.88572e+08 0
001 222 2 0 9.27788e+08 9.28035e+08 9.29054e+08 9.31991e+08 0
000 223 2 0 1.00733e+09 1.00758e+09 1.0086e+09 1.01002e+09 1
000 224 2 0 1.02055e+09 1.0208e+09 1.02182e+09 1.0225e+09 1
000 225 2 1 1.03611e+09 1.03636e+09 1.03738e+09 1.03871e+09 1
001 226 2 0 1.12553e+09 1.12577e+09 1.12679e+09 1.12821e+09 0
000 227 2 1 1.14946e+09 1.14972e+09 1.15074e+09 1.15113e+09 1
001 228 1 0 1.18293e+09 1.18319e+09 1.1842e+09 1.18459e+09 0
001 229 2 1 1.19261e+09 1.19287e+09 1.19389e+09 1.1939e+09 0
001 230 2 1 1.29086e+09 1.29112e+09 1.29214e+09 1.29247e+09 0
001 231 1 0 1.39586e+09 1.39611e+09 1.39713e+09 1.4043e+09 0
001 232 2 1 1.42096e+09 1.42121e+09 1.42223e+09 1.42235e+09 0
001 233 1 0 1.44782e+09 1.44812e+09 1.44914e+09 1.45006e+09 0
001 234 1 1 1.51656e+09 1.5168e+09 1.51782e+09 1.51823e+09 0
000 235 1 1 1.55162e+09 1.55186e+09 1.55288e+09 1.55386e+09 1
000 236 1 1 1.59483e+09 1.59507e+09 1.59609e+09 1.59628e+09 1
000 237 1 1 1.61328e+09 1.61353e+09 1.61455e+09 1.61472e+09 1
000 238 1 1 1.62263e+09 1.62288e+09 1.6239e+09 1.62512e+09 0
000 239 2 0 1.67186e+09 1.67212e+09 1.67313e+09 1.6738e+09 0
000 240 1 0 1.69566e+09 1.69591e+09 1.69693e+09 1.73776e+09 0
001 241 2 0 1.74529e+09 1.74554e+09 1.74656e+09 1.74968e+09 0
000 242 2 0 1.79994e+09 1.80019e+09 1.80121e+09 1.80235e+09 1
000 243 2 0 1.81728e+09 1.81753e+09 1.81855e+09 1.82621e+09 1
000 244 2 0 1.83715e+09 1.8374e+09 1.83842e+09 1.83851e+09 1
000 245 1 0 1.84907e+09 1.84931e+09 1.85033e+09 1.86209e+09 0
001 246 1 0 1.8787e+09 1.87895e+09 1.87997e+09 1.87998e+09 0
001 247 1 0 1.89964e+09 1.89989e+09 1.9009e+09 1.90604e+09 0
001 248 1 0 1.94224e+09 1.94248e+09 1.9435e+09 1.95449e+09 0
001 249 1 1 1.97806e+09 1.97831e+09 1.97933e+09 1.98023e+09 0
000 250 1 1 1.99983e+09 2.00007e+09 2.00109e+09 2.0019e+09 1
000 251 1 0 2.04454e+09 2.0448e+09 2.04581e+09 2.07929e+09 1
001 252 1 0 2.09321e+09 2.09346e+09 2.09448e+09 2.11147e+09 0
001 253 1 0 2.13482e+09 2.13506e+09 2.13608e+09 2.14278e+09 0
001 254 1 0 2.18681e+09 2.18707e+09 2.18809e+09 2.18898e+09 0
001 255 2 0 2.19153e+09 2.19178e+09 2.1928e+09 2.26492e+09 0
000 256 2 0 2.28995e+09 2.29021e+09 2.29123e+09 2.29806e+09 1
000 257 2 0 2.31201e+09 2.31225e+09 2.31327e+09 2.34883e+09 1
000 258 2 0 2.36658e+09 2.36682e+09 2.36784e+09 2.36794e+09 1
000 259 2 0 2.37759e+09 2.37784e+09 2.37886e+09 2.42863e+09 0
000 260 2 1 2.43574e+09 2.43599e+09 2.43701e+09 2.43757e+09 0
001 261 2 0 2.46358e+09 2.46383e+09 2.46485e+09 2.47034e+09 0
000 262 2 0 2.47851e+09 2.47876e+09 2.47978e+09 2.50373e+09 1
000 263 2 1 2.52529e+09 2.52554e+09 2.52656e+09 2.59766e+09 1
001 264 2 0 2.63161e+09 2.63185e+09 2.63287e+09 2.65362e+09 0
000 265 2 0 2.66109e+09 2.66134e+09 2.66236e+09 2.68573e+09 1
000 266 2 1 2.69907e+09 2.69932e+09 2.70034e+09 2.71002e+09 1
001 267 1 1 2.7172e+09 2.71744e+09 2.71846e+09 2.71858e+09 0
000 268 1 0 2.72868e+09 2.72894e+09 2.72996e+09 2.75153e+09 1
001 269 2 0 2.77538e+09 2.77562e+09 2.77664e+09 2.78722e+09 0
000 270 2 0 2.79499e+09 2.79524e+09 2.79626e+09 2.81533e+09 1
000 271 2 0 2.83923e+09 2.83948e+09 2.8405e+09 2.846e+09 1
000 272 2 0 2.85306e+09 2.85331e+09 2.85433e+09 2.91104e+09 1
000 273 2 1 2.91832e+09 2.91858e+09 2.9196e+09 2.93973e+09 0
001 274 2 0 2.94831e+09 2.94857e+09 2.94959e+09 2.95013e+09 0
000 275 2 0 2.96222e+09 2.96247e+09 2.96348e+09 2.96602e+09 1
000 276 2 0 2.97901e+09 2.97926e+09 2.98028e+09 3.0187e+09 1
000 277 2 0 3.04645e+09 3.04669e+09 3.04771e+09 3.07173e+09 1
000 278 1 0 3.08298e+09 3.08323e+09 3.08424e+09 3.08724e+09 0
001 279 2 0 3.10134e+09 3.10159e+09 3.10261e+09 3.11963e+09 0
000 280 2 0 3.1374e+09 3.13766e+09 3.13868e+09 3.15992e+09 1
000 281 2 0 3.16807e+09 3.16832e+09 3.16934e+09 3.2124e+09 1
000 282 2 0 3.21984e+09 3.2201e+09 3.22112e+09 3.2365e+09 1
000 283 2 0 3.25646e+09 3.25671e+09 3.25773e+09 3.27036e+09 0
000 284 1 0 3.27774e+09 3.27799e+09 3.27901e+09 3.30537e+09 0
001 285 1 0 3.33845e+09 3.3387e+09 3.33972e+09 3.3499e+09 0
001 286 2 0 3.36756e+09 3.36781e+09 3.36883e+09 3.42964e+09 0
000 287 2 0 3.46141e+09 3.46167e+09 3.46269e+09 3.47935e+09 1
000 288 2 0 3.48644e+09 3.48669e+09 3.48771e+09 3.49905e+09 1
000 289 2 0 3.50646e+09 3.50671e+09 3.50773e+09 3.56436e+09 1
000 290 1 1 3.59734e+09 3.59759e+09 3.59861e+09 3.61482e+09 0
000 291 2 0 3.63488e+09 3.63512e+09 3.63614e+09 3.65199e+09 0
000 292 2 0 3.66787e+09 3.66812e+09 3.66914e+09 3.79763e+09 0
000 293 2 0 3.80479e+09 3.80504e+09 3.80606e+09 3.80607e+09 0
000 294 2 0 3.83018e+09 3.83043e+09 3.83145e+09 3.84894e+09 0
000 295 1 1 3.85649e+09 3.85674e+09 3.85776e+09 3.94747e+09 0
000 296 2 1 3.96141e+09 3.96167e+09 3.96269e+09 3.98582e+09 0
001 297 1 0 3.98932e+09 3.98958e+09 3.9906e+09 3.99094e+09 0
001 298 1 0 4.01277e+09 4.01302e+09 4.01404e+09 4.11498e+09 0
001 299 1 0 4.1331e+09 4.13335e+09 4.13437e+09 4.1426e+09 0
001 300 2 0 4.14518e+09 4.14543e+09 4.14645e+09 4.14925e+09 0
000 301 2 0 4.16475e+09 4.16499e+09 4.16601e+09 4.1972e+09 1
000 302 2 0 4.20445e+09 4.2047e+09 4.20572e+09 4.21389e+09 1
000 303 2 0 4.22711e+09 4.22737e+09 4.22839e+09 1.61337e+07 1
000 304 2 0 3.81973e+07 3.84535e+07 3.94725e+07 5.53329e+07 0
000 305 1 0 6.81861e+07 6.84409e+07 6.94598e+07 8.67369e+07 0
001 306 2 0 9.03045e+07 9.05524e+07 9.15713e+07 1.06768e+08 0
000 307 2 0 1.38964e+08 1.39207e+08 1.40226e+08 2.05119e+08 1
000 308 2 0 2.18117e+08 2.18366e+08 2.19385e+08 2.24828e+08 1
000 309 2 1 2.41918e+08 2.42162e+08 2.43181e+08 2.4393e+08 1
001 310 1 0 2.55104e+08 2.55355e+08 2.56374e+08 2.72057e+08 0
001 311 1 0 2.94996e+08 2.95251e+08 2.9627e+08 3.90052e+08 0
001 312 2 0 4.14238e+08 4.1449e+08 4.15509e+08 4.16099e+08 0
000 313 2 0 4.2683e+08 4.27075e+08 4.28094e+08 4.80823e+08 1
000 314 2 0 5.07106e+08 5.07352e+08 5.08371e+08 5.95455e+08 1
000 315 2 0 6.11233e+08 6.11484e+08 6.12502e+08 6.12529e+08 1
000 316 1 0 6.19903e+08 6.20157e+08 6.21176e+08 6.26008e+08 0
001 317 1 0 6.44358e+08 6.44606e+08 6.45625e+08 6.87909e+08 0
001 318 1 1 6.97887e+08 6.98131e+08 6.9915e+08 6.99182e+08 0
000 319 1 0 7.09878e+08 7.10119e+08 7.11138e+08 7.45745e+08 1
001 320 1 0 7.55724e+08 7.55971e+08 7.5699e+08 7.58474e+08 0
001 321 1 0 7.69252e+08 7.69496e+08 7.70515e+08 8.34313e+08 0
001 322 2 0 8.37352e+08 8.37595e+08 8.38614e+08 9.02718e+08 0
000 323 2 0 9.09885e+08 9.10128e+08 9.11147e+08 9.78662e+08 1
000 324 2 1 9.91051e+08 9.91293e+08 9.92312e+08 1.00082e+09 1
001 325 2 0 1.01224e+09 1.01249e+09 1.01351e+09 1.06269e+09 0
000 326 2 0 1.08241e+09 1.08265e+09 1.08367e+09 1.13234e+09 1
000 327 2 0 1.13951e+09 1.13976e+09 1.14078e+09 1.14091e+09 1
000 328 2 0 1.16035e+09 1.16059e+09 1.16161e+09 1.20944e+09 1
000 329 2 1 1.22326e+09 1.22351e+09 1.22453e+09 1.22477e+09 0
001 330 2 0 1.23067e+09 1.23092e+09 1.23194e+09 1.24147e+09 0
000 331 2 0 1.25165e+09 1.25191e+09 1.25292e+09 1.30482e+09 1
000 332 2 0 1.31318e+09 1.31344e+09 1.31445e+09 1.31446e+09 1
000 333 2 0 1.32262e+09 1.32286e+09 1.32388e+09 1.32803e+09 1
000 334 1 0 1.33865e+09 1.3389e+09 1.33992e+09 1.35902e+09 0
001 335 2 0 1.38177e+09 1.38202e+09 1.38303e+09 1.4031e+09 0
000 336 2 0 1.41182e+09 1.41207e+09 1.41309e+09 1.41737e+09 1
000 337 2 0 1.42834e+09 1.42859e+09 1.42961e+09 1.61935e+09 1
000 338 2 0 1.64152e+09 1.64176e+09 1.64278e+09 1.64423e+09 1
000 339 2 0 1.65551e+09 1.65576e+09 1.65678e+09 1.68134e+09 0
000 340 1 0 1.7048e+09 1.70505e+09 1.70607e+09 1.73109e+09 0
001 341 1 0 1.75107e+09 1.75132e+09 1.75233e+09 1.75348e+09 0
001 342 2 0 1.75629e+09 1.75654e+09 1.75756e+09 1.75772e+09 0
000 343 2 0 1.76564e+09 1.76589e+09 1.76691e+09 1.81735e+09 1
000 344 2 0 1.8306e+09 1.83085e+09 1.83187e+09 1.83801e+09 1
000 345 2 0 1.848e+09 1.84826e+09 1.84928e+09 1.85797e+09 1
000 346 1 0 1.867e+09 1.86724e+09 1.86826e+09 1.87721e+09 0
001 347 2 0 1.88468e+09 1.88493e+09 1.88595e+09 1.88709e+09 0
000 348 2 0 1.89531e+09 1.89556e+09 1.89658e+09 1.93757e+09 1
000 349 2 1 1.94591e+09 1.94616e+09 1.94717e+09 1.94795e+09 1
001 350 2 0 1.95854e+09 1.95878e+09 1.9598e+09 2.00452e+09 0
000 351 2 0 2.0156e+09 2.01586e+09 2.01688e+09 2.01831e+09 1
000 352 2 1 2.03137e+09 2.03162e+09 2.03264e+09 2.04694e+09 1
001 353 1 0 2.05797e+09 2.05822e+09 2.05924e+09 2.1382e+09 0
001 354 1 0 2.15501e+09 2.15526e+09 2.15628e+09 2.18492e+09 0
001 355 1 1 2.20068e+09 2.20093e+09 2.20195e+09 2.20207e+09 0
000 356 1 0 2.20977e+09 2.21003e+09 2.21104e+09 2.23691e+09 1
001 357 1 0 2.24606e+09 2.24631e+09 2.24733e+09 2.34837e+09 0
001 358 2 0 2.35233e+09 2.35258e+09 2.3536e+09 2.35597e+09 0
000 359 2 0 2.3638e+09 2.36404e+09 2.36506e+09 2.36644e+09 1
000 360 2 0 2.37849e+09 2.37873e+09 2.37975e+09 2.44165e+09 1
000 361 2 0 2.44874e+09 2.44899e+09 2.45001e+09 2.45172e+09 1
000 362 1 1 2.4617e+09 2.46195e+09 2.46297e+09 2.46322e+09 0
000 363 1 0 2.47074e+09 2.47098e+09 2.472e+09 2.50333e+09 0
001 364 1 0 2.5108e+09 2.51105e+09 2.51206e+09 2.5139e+09 0
001 365 1 0 2.51848e+09 2.51873e+09 2.51975e+09 2.52522e+09 0
001 366 1 0 2.52942e+09 2.52967e+09 2.53068e+09 2.53182e+09 0
001 367 1 1 2.53532e+09 2.53557e+09 2.53659e+09 2.53661e+09 0
000 368 1 0 2.54391e+09 2.54416e+09 2.54517e+09 2.54529e+09 1
001 369 1 0 2.55118e+09 2.55144e+09 2.55246e+09 2.59233e+09 0
001 370 2 0 2.59809e+09 2.59835e+09 2.59937e+09 2.59963e+09 0
000 371 2 1 2.60722e+09 2.60748e+09 2.6085e+09 2.61519e+09 1
001 372 2 0 2.61995e+09 2.6202e+09 2.62121e+09 2.62163e+09 0
000 373 2 0 2.62916e+09 2.62941e+09 2.63043e+09 2.64367e+09 1
000 374 2 0 2.65109e+09 2.65134e+09 2.65236e+09 2.65293e+09 1
000 375 2 0 2.66866e+09 2.6689e+09 2.66992e+09 2.67052e+09 1
000 376 1 0 2.67807e+09 2.67833e+09 2.67934e+09 2.6803e+09 0
001 377 2 0 2.68622e+09 2.68648e+09 2.68749e+09 2.68789e+09 0
000 378 2 0 2.69663e+09 2.69688e+09 2.6979e+09 2.70414e+09 1
000 379 2 0 2.71424e+09 2.7145e+09 2.71552e+09 2.729e+09 1
000 380 2 0 2.73994e+09 2.74019e+09 2.74121e+09 2.74992e+09 1
000 381 2 0 2.75781e+09 2.75807e+09 2.75909e+09 2.76838e+09 0
000 382 1 1 2.77645e+09 2.7767e+09 2.77772e+09 2.80785e+09 0
000 383 1 0 2.81841e+09 2.81865e+09 2.81967e+09 2.82031e+09 0
001 384 1 0 2.83094e+09 2.83118e+09 2.8322e+09 2.84328e+09 0
001 385 2 0 2.85247e+09 2.85271e+09 2.85373e+09 2.85421e+09 0
000 386 2 0 2.86157e+09 2.86183e+09 2.86285e+09 2.88336e+09 1
000 387 2 0 2.89086e+09 2.89112e+09 2.89213e+09 2.89215e+09 1
000 388 2 0 2.90253e+09 2.90278e+09 2.9038e+09 2.92488e+09 1
000 389 2 0 2.93292e+09 2.93317e+09 2.93419e+09 3.01349e+09 0
000 390 2 0 3.0206e+09 3.02085e+09 3.02187e+09 3.02269e+09 0
000 391 1 0 3.03157e+09 3.03181e+09 3.03283e+09 3.05239e+09 0
001 392 2 0 3.05552e+09 3.05576e+09 3.05678e+09 3.05686e+09 0
000 393 2 0 3.06389e+09 3.06414e+09 3.06516e+09 3.06847e+09 1
000 394 2 0 3.07567e+09 3.07592e+09 3.07694e+09 3.10019e+09 1
000 395 2 0 3.10819e+09 3.10844e+09 3.10946e+09 3.11172e+09 1
000 396 1 0 3.1204e+09 3.12066e+09 3.12167e+09 3.12735e+09 0
001 397 2 0 3.13203e+09 3.13227e+09 3.13329e+09 3.13329e+09 0
000 398 2 0 3.14149e+09 3.14174e+09 3.14276e+09 3.16827e+09 1
000 399 2 0 3.17564e+09 3.17589e+09 3.17691e+09 3.1876e+09 1
000 400 2 1 3.20499e+09 3.20524e+09 3.20626e+09 3.20629e+09 1
001 401 1 0 3.21174e+09 3.21198e+09 3.213e+09 3.21658e+09 0
001 402 2 0 3.22359e+09 3.22384e+09 3.22486e+09 3.25024e+09 0
000 403 2 1 3.26456e+09 3.26481e+09 3.26582e+09 3.3131e+09 1
001 404 2 1 3.31657e+09 3.31682e+09 3.31784e+09 3.32017e+09 0
001 405 2 1 3.33503e+09 3.33529e+09 3.33631e+09 3.33686e+09 0
001 406 2 0 3.33999e+09 3.34023e+09 3.34125e+09 3.36508e+09 0
000 407 2 1 3.37591e+09 3.37617e+09 3.37719e+09 3.38486e+09 1
001 408 2 0 3.39145e+09 3.3917e+09 3.39272e+09 3.3991e+09 0
000 409 2 0 3.40818e+09 3.40843e+09 3.40945e+09 3.44757e+09 1
000 410 2 0 3.45484e+09 3.45508e+09 3.4561e+09 3.46118e+09 1
000 411 2 0 3.47165e+09 3.47191e+09 3.47293e+09 3.49716e+09 1
000 412 1 1 3.50947e+09 3.50971e+09 3.51073e+09 3.51228e+09 0
000 413 2 0 3.51958e+09 3.51984e+09 3.52086e+09 3.52149e+09 0
000 414 1 0 3.5289e+09 3.52914e+09 3.53016e+09 3.56187e+09 0
001 415 2 1 3.56493e+09 3.56519e+09 3.5662e+09 3.56901e+09 0
001 416 2 0 3.57744e+09 3.57769e+09 3.57871e+09 3.5866e+09 0
000 417 2 0 3.59386e+09 3.5941e+09 3.59512e+09 3.60327e+09 1
000 418 2 1 3.61042e+09 3.61068e+09 3.61169e+09 3.61178e+09 1
001 419 2 0 3.62416e+09 3.62441e+09 3.62543e+09 3.6341e+09 0
000 420 2 0 3.64126e+09 3.64151e+09 3.64253e+09 3.65001e+09 1
000 421 2 1 3.66445e+09 3.66471e+09 3.66572e+09 3.74118e+09 1
001 422 1 0 3.75553e+09 3.75578e+09 3.7568e+09 3.7929e+09 0
001 423 1 0 3.80294e+09 3.80319e+09 3.80421e+09 3.84263e+09 0
001 424 2 1 3.84586e+09 3.8461e+09 3.84712e+09 3.85238e+09 0
001 425 2 0 3.85808e+09 3.85832e+09 3.85934e+09 3.86305e+09 0
000 426 2 0 3.87013e+09 3.87038e+09 3.8714e+09 3.88496e+09 1
000 427 2 0 3.89238e+09 3.89263e+09 3.89365e+09 3.90155e+09 1
000 428 2 0 3.91214e+09 3.9124e+09 3.91342e+09 3.92391e+09 1
000 429 1 1 3.93146e+09 3.93171e+09 3.93273e+09 3.98014e+09 0
000 430 2 0 3.98859e+09 3.98885e+09 3.98986e+09 3.99287e+09 0
000 431 2 0 4.00002e+09 4.00027e+09 4.00129e+09 4.00181e+09 0
000 432 2 0 4.01171e+09 4.01195e+09 4.01297e+09 4.05691e+09 0
000 433 2 0 4.07291e+09 4.07316e+09 4.07418e+09 4.07761e+09 0
000 434 2 0 4.08478e+09 4.08503e+09 4.08605e+09 4.12369e+09 0
000 435 2 1 4.13225e+09 4.13249e+09 4.13351e+09 4.13807e+09 0
001 436 1 0 4.15098e+09 4.15122e+09 4.15224e+09 4.15286e+09 0
001 437 1 0 4.16062e+09 4.16087e+09 4.16189e+09 4.16399e+09 0
001 438 2 0 4.16747e+09 4.16773e+09 4.16875e+09 4.23836e+09 0
000 439 2 0 4.24571e+09 4.24596e+09 4.24698e+09 4.2475e+09 1
000 440 2 0 4.25797e+09 4.25821e+09 4.25923e+09 4.26182e+09 1
000 441 2 0 4.26885e+09 4.2691e+09 4.27012e+09 4.27196e+09 1
000 442 1 0 4.27934e+09 4.27958e+09 4.2806e+09 4.28149e+09 0
001 443 1 0 4.28643e+09 4.28668e+09 4.28769e+09 1.9005e+07 0
001 444 2 0 2.73746e+07 2.76234e+07 2.86424e+07 3.35042e+07 0
000 445 2 0 4.59418e+07 4.61894e+07 4.72083e+07 4.76279e+07 1
000 446 2 1 5.47031e+07 5.49475e+07 5.59664e+07 1.13456e+08 1
001 447 2 0 1.17716e+08 1.1797e+08 1.18989e+08 1.23304e+08 0
000 448 2 0 1.32092e+08 1.32347e+08 1.33366e+08 1.33866e+08 1
000 449 2 0 1.41155e+08 1.41409e+08 1.42428e+08 1.97126e+08 1
000 450 2 0 2.12939e+08 2.13185e+08 2.14204e+08 2.20042e+08 1
000 451 1 0 2.27348e+08 2.27599e+08 2.28618e+08 2.33051e+08 0
001 452 1 0 2.41771e+08 2.42014e+08 2.43033e+08 3.13907e+08 0
001 453 1 0 3.1891e+08 3.19159e+08 3.20178e+08 3.21591e+08 0
001 454 2 0 3.26657e+08 3.26905e+08 3.27923e+08 3.29398e+08 0
000 455 2 0 3.42871e+08 3.43111e+08 3.4413e+08 3.4513e+08 1
000 456 2 1 3.52971e+08 3.53224e+08 3.54243e+08 3.55756e+08 1
001 457 2 0 3.66156e+08 3.66411e+08 3.6743e+08 3.67515e+08 0
000 458 2 0 3.74777e+08 3.75029e+08 3.76048e+08 4.9347e+08 1
000 459 2 0 5.11614e+08 5.11857e+08 5.12876e+08 5.1503e+08 1
000 460 2 0 5.26016e+08 5.26265e+08 5.27284e+08 5.29144e+08 1
000 461 1 0 5.41019e+08 5.41274e+08 5.42293e+08 5.42543e+08 0
001 462 1 0 5.48146e+08 5.48404e+08 5.49423e+08 5.49782e+08 0
001 463 1 0 5.58652e+08 5.58908e+08 5.59927e+08 5.98258e+08 0
001 464 1 0 6.04229e+08 6.04481e+08 6.055e+08 6.05646e+08 0
001 465 2 0 6.20405e+08 6.20651e+08 6.2167e+08 6.73665e+08 0
000 466 2 1 6.80814e+08 6.81058e+08 6.82077e+08 6.82597e+08 1
001 467 1 0 6.88043e+08 6.88288e+08 6.89307e+08 6.89431e+08 0
001 468 2 0 6.98781e+08 6.99035e+08 7.00054e+08 7.33456e+08 0
000 469 2 0 7.50436e+08 7.50678e+08 7.51697e+08 8.06826e+08 1
000 470 2 1 8.15603e+08 8.15859e+08 8.16877e+08 8.17153e+08 1
001 471 2 0 8.23613e+08 8.23861e+08 8.2488e+08 8.30554e+08 0
000 472 2 0 8.39904e+08 8.40155e+08 8.41174e+08 8.42608e+08 1
000 473 2 0 8.50516e+08 8.50768e+08 8.51787e+08 9.22e+08 1
000 474 2 0 9.33475e+08 9.33721e+08 9.3474e+08 9.35211e+08 1
000 475 2 0 9.50365e+08 9.50625e+08 9.51644e+08 9.69899e+08 0
000 476 1 0 9.80325e+08 9.80579e+08 9.81598e+08 9.81621e+08 0
001 477 1 0 9.87688e+08 9.8794e+08 9.88959e+08 1.04489e+09 0
001 478 1 0 1.06643e+09 1.06668e+09 1.0677e+09 1.10912e+09 0
001 479 2 1 1.11566e+09 1.1159e+09 1.11692e+09 1.1172e+09 0
001 480 1 0 1.12523e+09 1.12549e+09 1.1265e+09 1.14942e+09 0
001 481 1 0 1.16083e+09 1.16108e+09 1.1621e+09 1.19326e+09 0
001 482 1 1 1.19827e+09 1.19852e+09 1.19954e+09 1.19955e+09 0
000 483 1 0 1.2069e+09 1.20714e+09 1.20815e+09 1.20824e+09 1
001 484 2 0 1.21577e+09 1.21602e+09 1.21704e+09 1.30961e+09 0
000 485 2 1 1.3169e+09 1.31715e+09 1.31817e+09 1.32168e+09 1
001 486 1 0 1.33232e+09 1.33257e+09 1.33359e+09 1.3336e+09 0
001 487 1 0 1.34344e+09 1.34369e+09 1.34471e+09 1.34564e+09 0
001 488 1 0 1.36037e+09 1.36063e+09 1.36165e+09 1.39635e+09 0
001 489 1 0 1.40044e+09 1.40069e+09 1.40171e+09 1.40439e+09 0
001 490 2 0 1.42088e+09 1.42113e+09 1.42215e+09 1.46011e+09 0
000 491 2 0 1.47672e+09 1.47696e+09 1.47798e+09 1.4873e+09 1
000 492 2 0 1.4962e+09 1.49645e+09 1.49747e+09 1.55333e+09 1
000 493 2 0 1.56252e+09 1.56277e+09 1.56379e+09 1.5654e+09 1
000 494 1 0 1.57687e+09 1.57711e+09 1.57813e+09 1.66117e+09 0
001 495 1 0 1.66924e+09 1.66948e+09 1.6705e+09 1.67183e+09 0
001 496 2 0 1.68992e+09 1.69018e+09 1.6912e+09 1.76044e+09 0
000 497 2 1 1.76783e+09 1.76807e+09 1.76909e+09 1.76917e+09 1
001 498 2 1 1.77959e+09 1.77983e+09 1.78085e+09 1.7814e+09 0
001 499 2 0 1.79666e+09 1.79691e+09 1.79792e+09 1.88109e+09 0
000 500 2 0 1.90675e+09 1.907e+09 1.90802e+09 1.99034e+09 1
000 501 2 0 2.01076e+09 2.011e+09 2.01202e+09 2.01202e+09 1
000 502 2 0 2.0287e+09 2.02894e+09 2.02996e+09 2.0765e+09 1
000 503 2 0 2.0992e+09 2.09945e+09 2.10047e+09 2.1643e+09 0
000 504 1 0 2.17536e+09 2.1756e+09 2.17662e+09 2.17683e+09 0
001 505 2 0 2.1899e+09 2.19015e+09 2.19117e+09 2.22551e+09 0
000 506 2 0 2.23399e+09 2.23424e+09 2.23526e+09 2.23526e+09 1
000 507 2 0 2.25048e+09 2.25073e+09 2.25175e+09 2.32011e+09 1
000 508 2 1 2.32895e+09 2.32921e+09 2.33023e+09 2.33024e+09 1
001 509 1 0 2.3425e+09 2.34276e+09 2.34377e+09 2.34401e+09 0
001 510 1 0 2.3538e+09 2.35405e+09 2.35507e+09 2.39138e+09 0
001 511 2 0 2.41568e+09 2.41593e+09 2.41695e+09 2.46408e+09 0
000 512 2 0 2.4749e+09 2.47516e+09 2.47618e+09 2.47726e+09 1
000 513 2 0 2.48992e+09 2.49018e+09 2.4912e+09 2.53423e+09 1
000 514 2 0 2.54727e+09 2.54752e+09 2.54854e+09 2.55558e+09 1
000 515 2 0 2.56339e+09 2.56365e+09 2.56467e+09 2.56473e+09 0
000 516 2 0 2.57292e+09 2.57318e+09 2.5742e+09 2.58276e+09 0
000 517 2 0 2.59442e+09 2.59467e+09 2.59569e+09 2.6433e+09 0
000 518 2 1 2.66107e+09 2.66132e+09 2.66234e+09 2.66244e+09 0
001 519 2 0 2.66884e+09 2.66909e+09 2.67011e+09 2.707e+09 0
000 520 2 1 2.71899e+09 2.71924e+09 2.72026e+09 2.72093e+09 1
001 521 1 1 2.72715e+09 2.7274e+09 2.72842e+09 2.72899e+09 0
000 522 1 0 2.74247e+09 2.74272e+09 2.74373e+09 2.80927e+09 1
001 523 2 0 2.83263e+09 2.83289e+09 2.83391e+09 2.84485e+09 0
000 524 2 0 2.85762e+09 2.85787e+09 2.85888e+09 2.90451e+09 1
000 525 2 0 2.93184e+09 2.93209e+09 2.93311e+09 2.94996e+09 1
000 526 2 0 2.96537e+09 2.96561e+09 2.96663e+09 2.99475e+09 1
000 527 1 0 3.01718e+09 3.01742e+09 3.01844e+09 3.01933e+09 0
001 528 1 0 3.03869e+09 3.03894e+09 3.03996e+09 3.10987e+09 0
001 529 2 0 3.1355e+09 3.13576e+09 3.13678e+09 3.18526e+09 0
000 530 2 0 3.19909e+09 3.19933e+09 3.20035e+09 3.20349e+09 1
000 531 2 0 3.21564e+09 3.21589e+09 3.21691e+09 3.22689e+09 1
000 532 2 0 3.24581e+09 3.24606e+09 3.24708e+09 3.27054e+09 1
000 533 1 0 3.2855e+09 3.28574e+09 3.28676e+09 3.29591e+09 0
001 534 1 0 3.30475e+09 3.305e+09 3.30602e+09 3.32129e+09 0
001 535 2 0 3.33706e+09 3.33731e+09 3.33833e+09 3.37889e+09 0
000 536 2 0 3.3902e+09 3.39045e+09 3.39146e+09 3.39157e+09 1
000 537 2 0 3.40762e+09 3.40787e+09 3.40889e+09 3.47142e+09 1
000 538 2 1 3.48953e+09 3.48977e+09 3.49079e+09 3.49089e+09 1
001 539 2 0 3.49832e+09 3.49857e+09 3.49959e+09 3.51536e+09 0
000 540 2 0 3.54519e+09 3.54545e+09 3.54647e+09 3.61143e+09 1
000 541 2 0 3.62414e+09 3.62438e+09 3.6254e+09 3.62647e+09 1
000 542 2 0 3.64081e+09 3.64106e+09 3.64208e+09 3.66718e+09 1
000 543 2 0 3.6952e+09 3.69546e+09 3.69648e+09 3.75986e+09 0
000 544 1 0 3.77911e+09 3.77937e+09 3.78039e+09 3.78374e+09 0
001 545 2 0 3.79284e+09 3.7931e+09 3.79412e+09 3.83583e+09 0
000 546 2 0 3.84893e+09 3.84917e+09 3.85019e+09 3.85255e+09 1
000 547 2 0 3.86955e+09 3.86981e+09 3.87083e+09 3.92121e+09 1
000 548 2 0 3.9453e+09 3.94554e+09 3.94656e+09 3.96428e+09 1
000 549 1 0 3.9715e+09 3.97175e+09 3.97277e+09 3.97314e+09 0
001 550 1 0 3.99906e+09 3.99931e+09 4.00033e+09 4.07994e+09 0
001 551 2 0 4.09291e+09 4.09315e+09 4.09417e+09 4.09446e+09 0
000 552 2 0 4.10473e+09 4.10497e+09 4.10599e+09 4.13077e+09 1
000 553 2 0 4.15817e+09 4.15841e+09 4.15943e+09 4.21904e+09 1
000 554 2 0 4.23436e+09 4.23461e+09 4.23563e+09 4.28345e+09 1
000 555 1 0 3.22562e+06 3.47636e+06 4.49531e+06 1.13637e+07 0
001 556 2 0 2.29223e+07 2.31679e+07 2.41869e+07 2.97331e+07 0
000 557 2 0 3.9976e+07 4.02165e+07 4.12355e+07 1.3939e+08 1
000 558 2 0 1.64868e+08 1.65111e+08 1.6613e+08 1.95617e+08 1
000 559 2 0 2.20347e+08 2.206e+08 2.21619e+08 2.55184e+08 1
000 560 2 0 2.64973e+08 2.65226e+08 2.66245e+08 2.6636e+08 0
000 561 1 0 2.85208e+08 2.85457e+08 2.86476e+08 3.75658e+08 0
001 562 2 0 3.9892e+08 3.99162e+08 4.00181e+08 4.17405e+08 0
000 563 2 1 4.30755e+08 4.31007e+08 4.32026e+08 4.35801e+08 1
001 564 1 1 4.44755e+08 4.44998e+08 4.46017e+08 4.46707e+08 0
000 565 1 1 4.53764e+08 4.54004e+08 4.55023e+08 4.56114e+08 1
000 566 1 0 4.63366e+08 4.63617e+08 4.64636e+08 5.49444e+08 1
001 567 1 0 5.71213e+08 5.71458e+08 5.72477e+08 5.85733e+08 0
001 568 1 0 5.88469e+08 5.88725e+08 5.89743e+08 5.89837e+08 0
001 569 1 0 5.98942e+08 5.99186e+08 6.00204e+08 6.28948e+08 0
001 570 2 0 6.45275e+08 6.45521e+08 6.4654e+08 7.0616e+08 0
000 571 2 1 7.23495e+08 7.23741e+08 7.2476e+08 7.26789e+08 1
001 572 1 0 7.40669e+08 7.40926e+08 7.41945e+08 7.83335e+08 0
001 573 2 0 7.9961e+08 7.99871e+08 8.0089e+08 8.03327e+08 0
000 574 2 0 8.16313e+08 8.1656e+08 8.17579e+08 8.17724e+08 1
000 575 2 0 8.29572e+08 8.29823e+08 8.30842e+08 9.26267e+08 1
000 576 2 0 9.37495e+08 9.37739e+08 9.38758e+08 9.39795e+08 1
000 577 2 0 9.50339e+08 9.50581e+08 9.516e+08 9.87307e+08 0
000 578 1 1 9.9701e+08 9.97253e+08 9.98272e+08 9.98292e+08 0
000 579 2 0 1.00733e+09 1.00758e+09 1.0086e+09 1.03167e+09 0
000 580 1 0 1.04166e+09 1.04191e+09 1.04293e+09 1.04314e+09 0
001 581 1 0 1.05866e+09 1.05893e+09 1.05994e+09 1.11101e+09 0
001 582 2 1 1.13909e+09 1.13934e+09 1.14036e+09 1.14124e+09 0
001 583 2 0 1.15338e+09 1.15362e+09 1.15464e+09 1.20508e+09 0
000 584 2 0 1.22057e+09 1.22082e+09 1.22184e+09 1.22198e+09 1
000 585 2 1 1.23044e+09 1.23068e+09 1.2317e+09 1.23637e+09 1
001 586 2 0 1.24424e+09 1.24449e+09 1.24551e+09 1.24794e+09 0
000 587 2 1 1.25899e+09 1.25923e+09 1.26025e+09 1.26031e+09 1
001 588 2 0 1.2666e+09 1.26686e+09 1.26788e+09 1.33917e+09 0
000 589 2 0 1.34941e+09 1.34966e+09 1.35068e+09 1.3509e+09 1
000 590 2 0 1.3811e+09 1.38134e+09 1.38236e+09 1.4667e+09 1
000 591 2 0 1.48908e+09 1.48932e+09 1.49034e+09 1.49038e+09 1
000 592 1 0 1.50516e+09 1.50541e+09 1.50643e+09 1.57539e+09 0
001 593 2 0 1.59233e+09 1.59258e+09 1.5936e+09 1.59432e+09 0
000 594 2 0 1.60592e+09 1.60617e+09 1.60718e+09 1.60978e+09 1
000 595 2 0 1.61724e+09 1.61749e+09 1.61851e+09 1.62286e+09 1
000 596 2 0 1.63413e+09 1.63437e+09 1.63539e+09 1.68634e+09 1
000 597 1 1 1.69436e+09 1.69461e+09 1.69563e+09 1.69595e+09 0
000 598 1 0 1.70473e+09 1.70498e+09 1.706e+09 1.7104e+09 0
001 599 2 0 1.72163e+09 1.72189e+09 1.72291e+09 1.77215e+09 0
000 600 2 0 1.78153e+09 1.78177e+09 1.78279e+09 1.78328e+09 1
000 601 2 0 1.80267e+09 1.80291e+09 1.80393e+09 1.82173e+09 1
000 602 2 0 1.8454e+09 1.84564e+09 1.84666e+09 1.87553e+09 1
000 603 1 1 1.89021e+09 1.89046e+09 1.89148e+09 1.89151e+09 0
000 604 1 0 1.89867e+09 1.89892e+09 1.89994e+09 1.904e+09 0
001 605 2 0 1.91297e+09 1.91321e+09 1.91423e+09 1.91523e+09 0
000 606 2 1 1.92243e+09 1.92268e+09 1.9237e+09 1.99292e+09 1
001 607 1 0 2.01649e+09 2.01673e+09 2.01775e+09 2.01975e+09 0
001 608 1 0 2.03246e+09 2.03271e+09 2.03373e+09 2.04515e+09 0
001 609 2 0 2.05792e+09 2.05817e+09 2.05919e+09 2.06224e+09 0
000 610 2 0 2.07509e+09 2.07534e+09 2.07636e+09 2.13809e+09 1
000 611 2 0 2.16612e+09 2.16638e+09 2.1674e+09 2.1756e+09 1
000 612 2 0 2.18413e+09 2.18438e+09 2.1854e+09 2.18688e+09 1
000 613 1 0 2.19428e+09 2.19452e+09 2.19554e+09 2.28483e+09 0
001 614 2 0 2.2926e+09 2.29285e+09 2.29387e+09 2.29463e+09 0
000 615 2 0 2.31057e+09 2.31083e+09 2.31185e+09 2.31798e+09 1
000 616 2 0 2.33335e+09 2.3336e+09 2.33461e+09 2.33484e+09 1
000 617 2 0 2.34242e+09 2.34266e+09 2.34368e+09 2.3471e+09 1
000 618 2 0 2.36998e+09 2.37022e+09 2.37124e+09 2.44711e+09 0
000 619 2 0 2.46586e+09 2.46611e+09 2.46713e+09 2.47027e+09 0
000 620 2 0 2.4812e+09 2.48144e+09 2.48246e+09 2.49159e+09 0
000 621 2 0 2.50075e+09 2.501e+09 2.50202e+09 2.53567e+09 0
000 622 1 0 2.55479e+09 2.55503e+09 2.55605e+09 2.55606e+09 0
001 623 1 0 2.56712e+09 2.56737e+09 2.56838e+09 2.59607e+09 0
001 624 1 0 2.62692e+09 2.62717e+09 2.62819e+09 2.64618e+09 0
001 625 2 0 2.66351e+09 2.66376e+09 2.66478e+09 2.73975e+09 0
000 626 2 0 2.77246e+09 2.77271e+09 2.77373e+09 2.77373e+09 1
000 627 2 0 2.7878e+09 2.78804e+09 2.78906e+09 2.86565e+09 1
000 628 2 0 2.87842e+09 2.87866e+09 2.87968e+09 2.87971e+09 1
000 629 2 0 2.90436e+09 2.90461e+09 2.90562e+09 2.90727e+09 0
000 630 1 0 2.91677e+09 2.91703e+09 2.91805e+09 2.94248e+09 0
001 631 1 1 2.95004e+09 2.9503e+09 2.95132e+09 2.95348e+09 0
000 632 1 0 2.96892e+09 2.96917e+09 2.97018e+09 3.03848e+09 1
001 633 1 0 3.05551e+09 3.05577e+09 3.05679e+09 3.05702e+09 0
001 634 2 0 3.06647e+09 3.06672e+09 3.06774e+09 3.06786e+09 0
000 635 2 0 3.08037e+09 3.08061e+09 3.08163e+09 3.08379e+09 1
000 636 2 0 3.0952e+09 3.09544e+09 3.09646e+09 3.09678e+09 1
000 637 2 1 3.10383e+09 3.10409e+09 3.1051e+09 3.13212e+09 1
001 638 1 0 3.14568e+09 3.14593e+09 3.14695e+09 3.16495e+09 0
001 639 1 0 3.17672e+09 3.17697e+09 3.17799e+09 3.2516e+09 0
001 640 1 0 3.26078e+09 3.26103e+09 3.26205e+09 3.28945e+09 0
001 641 1 0 3.29875e+09 3.29901e+09 3.30003e+09 3.30258e+09 0
001 642 1 1 3.31052e+09 3.31076e+09 3.31178e+09 3.32123e+09 0
000 643 1 0 3.33371e+09 3.33396e+09 3.33498e+09 3.34925e+09 1
001 644 1 0 3.36236e+09 3.36261e+09 3.36363e+09 3.45371e+09 0
001 645 1 1 3.47977e+09 3.48003e+09 3.48105e+09 3.48118e+09 0
000 646 1 0 3.48842e+09 3.48867e+09 3.48969e+09 3.4913e+09 1
001 647 2 0 3.50644e+09 3.50669e+09 3.5077e+09 3.50925e+09 0
000 648 2 0 3.52305e+09 3.5233e+09 3.52431e+09 3.55053e+09 1
000 649 2 0 3.55757e+09 3.55783e+09 3.55885e+09 3.61733e+09 1
000 650 2 1 3.63219e+09 3.63244e+09 3.63346e+09 3.63387e+09 1
001 651 2 0 3.64722e+09 3.64746e+09 3.64848e+09 3.64917e+09 0
000 652 2 0 3.65811e+09 3.65836e+09 3.65937e+09 3.66626e+09 1
000 653 2 0 3.67993e+09 3.68017e+09 3.68118e+09 3.77982e+09 1
000 654 2 0 3.79821e+09 3.79846e+09 3.79948e+09 3.80044e+09 1
000 655 1 0 3.81153e+09 3.81178e+09 3.8128e+09 3.91536e+09 0
001 656 2 0 3.94106e+09 3.94131e+09 3.94233e+09 3.94573e+09 0
000 657 2 0 3.95624e+09 3.95649e+09 3.95751e+09 3.95752e+09 1
000 658 2 0 3.96813e+09 3.96838e+09 3.9694e+09 3.96948e+09 1
000 659 2 0 3.9897e+09 3.98995e+09 3.99097e+09 3.99143e+09 1
000 660 1 0 4.00209e+09 4.00234e+09 4.00336e+09 4.0129e+09 0
001 661 2 0 4.0261e+09 4.02635e+09 4.02736e+09 4.11807e+09 0
000 662 2 0 4.15168e+09 4.15193e+09 4.15295e+09 4.25508e+09 1
000 663 2 0 4.26299e+09 4.26324e+09 4.26426e+09 4.26507e+09 1
000 664 2 1 4.289e+09 4.28925e+09 4.29027e+09 8.49382e+06 1
001 665 2 0 2.06776e+07 2.09318e+07 2.19508e+07 6.87243e+07 0
000 666 2 0 9.47354e+07 9.49803e+07 9.59993e+07 1.69323e+08 1
000 667 2 0 1.82469e+08 1.82709e+08 1.83728e+08 1.83781e+08 1
000 668 2 0 1.97996e+08 1.98238e+08 1.99257e+08 2.0045e+08 1
000 669 2 0 2.18142e+08 2.18393e+08 2.19412e+08 2.20216e+08 0
000 670 2 0 2.37798e+08 2.38051e+08 2.3907e+08 3.47694e+08 0
000 671 2 0 3.68138e+08 3.68383e+08 3.69402e+08 3.79148e+08 0
000 672 1 0 3.913e+08 3.91551e+08 3.9257e+08 4.11341e+08 0
001 673 2 1 4.27247e+08 4.275e+08 4.28519e+08 4.29424e+08 0
001 674 1 0 4.39397e+08 4.3964e+08 4.40659e+08 4.51053e+08 0
001 675 2 0 4.63853e+08 4.641e+08 4.65119e+08 5.35789e+08 0
000 676 2 1 5.58182e+08 5.5843e+08 5.59449e+08 5.61623e+08 1
001 677 1 0 5.72643e+08 5.72898e+08 5.73917e+08 6.11024e+08 0
001 678 1 0 6.14386e+08 6.14639e+08 6.15658e+08 6.16319e+08 0
001 679 2 0 6.39411e+08 6.39667e+08 6.40686e+08 6.42249e+08 0
000 680 2 0 6.50991e+08 6.51234e+08 6.52253e+08 7.18036e+08 1
000 681 2 0 7.60385e+08 7.60625e+08 7.61644e+08 7.67326e+08 1
000 682 2 0 7.74508e+08 7.74765e+08 7.75784e+08 8.75899e+08 1
000 683 1 0 9.07446e+08 9.07697e+08 9.08716e+08 9.4514e+08 0
001 684 2 0 9.58922e+08 9.59175e+08 9.60194e+08 9.61543e+08 0
000 685 2 0 9.6959e+08 9.69833e+08 9.70852e+08 9.88978e+08 1
000 686 2 0 9.99469e+08 9.99711e+08 1.00073e+09 1.00078e+09 1
000 687 2 0 1.00786e+09 1.00811e+09 1.00913e+09 1.15277e+09 1
000 688 1 0 1.17398e+09 1.17423e+09 1.17525e+09 1.17563e+09 0
001 689 1 0 1.1822e+09 1.18244e+09 1.18346e+09 1.23954e+09 0
001 690 2 1 1.27005e+09 1.27029e+09 1.27131e+09 1.27361e+09 0
001 691 1 0 1.29597e+09 1.29621e+09 1.29723e+09 1.44047e+09 0
001 692 2 0 1.45228e+09 1.45252e+09 1.45354e+09 1.467e+09 0
000 693 2 1 1.47523e+09 1.47547e+09 1.47649e+09 1.49153e+09 1
001 694 2 0 1.50363e+09 1.50387e+09 1.50489e+09 1.59024e+09 0
000 695 2 0 1.59869e+09 1.59894e+09 1.59996e+09 1.60952e+09 1
000 696 2 1 1.61794e+09 1.61819e+09 1.61921e+09 1.62159e+09 1
001 697 2 0 1.63201e+09 1.63226e+09 1.63328e+09 1.77267e+09 0
000 698 2 0 1.78752e+09 1.78776e+09 1.78878e+09 1.79586e+09 1
000 699 2 0 1.80317e+09 1.80342e+09 1.80443e+09 1.80912e+09 1
000 700 2 0 1.82027e+09 1.82052e+09 1.82154e+09 1.96525e+09 1
000 701 2 0 1.97249e+09 1.97274e+09 1.97376e+09 1.9745e+09 0
000 702 1 0 1.98194e+09 1.98219e+09 1.9832e+09 1.98484e+09 0
001 703 2 1 1.99034e+09 1.99059e+09 1.99161e+09 1.99336e+09 0
001 704 2 1 2.00925e+09 2.00949e+09 2.01051e+09 2.01359e+09 0
001 705 2 1 2.02136e+09 2.02161e+09 2.02263e+09 2.1407e+09 0
001 706 2 0 2.14749e+09 2.14775e+09 2.14876e+09 2.15679e+09 0
000 707 2 0 2.16744e+09 2.16768e+09 2.1687e+09 2.26496e+09 1
000 708 2 0 2.27225e+09 2.2725e+09 2.27352e+09 2.27865e+09 1
000 709 2 1 2.29095e+09 2.2912e+09 2.29222e+09 2.2946e+09 1
001 710 1 1 2.30434e+09 2.3046e+09 2.30562e+09 2.30645e+09 0
000 711 1 0 2.32027e+09 2.32052e+09 2.32154e+09 2.32837e+09 1
001 712 1 0 2.33168e+09 2.33194e+09 2.33296e+09 2.33623e+09 0
001 713 1 0 2.34033e+09 2.34058e+09 2.3416e+09 2.34699e+09 0
001 714 2 0 2.35226e+09 2.35252e+09 2.35354e+09 2.39693e+09 0
000 715 2 0 2.40585e+09 2.4061e+09 2.40712e+09 2.41662e+09 1
000 716 2 0 2.42406e+09 2.4243e+09 2.42532e+09 2.43036e+09 1
000 717 2 0 2.43751e+09 2.43775e+09 2.43877e+09 2.44123e+09 1
000 718 1 0 2.44848e+09 2.44872e+09 2.44974e+09 2.45172e+09 0
001 719 2 0 2.4553e+09 2.45555e+09 2.45657e+09 2.47193e+09 0
000 720 2 0 2.48084e+09 2.48109e+09 2.48211e+09 2.48603e+09 1
000 721 2 0 2.49337e+09 2.49362e+09 2.49464e+09 2.49482e+09 1
000 722 2 0 2.5066e+09 2.50685e+09 2.50787e+09 2.5131e+09 1
000 723 2 0 2.5223e+09 2.52256e+09 2.52358e+09 2.57777e+09 0
000 724 1 0 2.58844e+09 2.5887e+09 2.58972e+09 2.58983e+09 0
001 725 2 0 2.63384e+09 2.6341e+09 2.63511e+09 2.63922e+09 0
000 726 2 0 2.64738e+09 2.64764e+09 2.64866e+09 2.64954e+09 1
000 727 2 0 2.65672e+09 2.65697e+09 2.65798e+09 2.66292e+09 1
000 728 2 0 2.672e+09 2.67226e+09 2.67328e+09 2.67339e+09 1
000 729 1 0 2.68081e+09 2.68107e+09 2.68209e+09 2.69964e+09 0
001 730 2 0 2.71406e+09 2.71431e+09 2.71533e+09 2.73144e+09 0
000 731 2 0 2.73976e+09 2.74e+09 2.74102e+09 2.75137e+09 1
000 732 2 0 2.75943e+09 2.75967e+09 2.76069e+09 2.76172e+09 1
000 733 2 0 2.76994e+09 2.77019e+09 2.7712e+09 2.78034e+09 1
000 734 1 0 2.7886e+09 2.78885e+09 2.78987e+09 2.79525e+09 0
001 735 2 0 2.80256e+09 2.80281e+09 2.80383e+09 2.83085e+09 0
000 736 2 0 2.85343e+09 2.85368e+09 2.8547e+09 2.86312e+09 1
000 737 2 0 2.87071e+09 2.87095e+09 2.87197e+09 2.94714e+09 1
000 738 2 0 2.95466e+09 2.9549e+09 2.95592e+09 2.95722e+09 1
000 739 1 0 2.96441e+09 2.96466e+09 2.96568e+09 2.96638e+09 0
001 740 1 0 2.97894e+09 2.97918e+09 2.9802e+09 2.98291e+09 0
001 741 2 0 2.99063e+09 2.99088e+09 2.99189e+09 2.994e+09 0
000 742 2 0 3.00144e+09 3.00169e+09 3.00271e+09 3.02086e+09 1
000 743 2 0 3.02877e+09 3.02901e+09 3.03003e+09 3.05157e+09 1
000 744 2 0 3.06023e+09 3.06048e+09 3.0615e+09 3.06263e+09 1
000 745 2 0 3.08335e+09 3.0836e+09 3.08462e+09 3.09076e+09 0
000 746 2 0 3.09788e+09 3.09813e+09 3.09915e+09 3.0998e+09 0
000 747 1 0 3.11615e+09 3.1164e+09 3.11742e+09 3.16105e+09 0
001 748 2 1 3.16571e+09 3.16595e+09 3.16697e+09 3.16883e+09 0
001 749 2 0 3.17647e+09 3.17673e+09 3.17775e+09 3.18295e+09 0
000 750 2 1 3.1914e+09 3.19165e+09 3.19267e+09 3.20804e+09 1
001 751 1 0 3.21491e+09 3.21516e+09 3.21617e+09 3.30613e+09 0
001 752 1 0 3.30974e+09 3.30999e+09 3.311e+09 3.31689e+09 0
001 753 1 0 3.32638e+09 3.32663e+09 3.32765e+09 3.32796e+09 0
001 754 1 0 3.33073e+09 3.33098e+09 3.33199e+09 3.33222e+09 0
001 755 1 0 3.33469e+09 3.33494e+09 3.33596e+09 3.33751e+09 0
001 756 2 0 3.34033e+09 3.34058e+09 3.34159e+09 3.34253e+09 0
000 757 2 0 3.3516e+09 3.35185e+09 3.35287e+09 3.35606e+09 1
000 758 2 0 3.36318e+09 3.36343e+09 3.36445e+09 3.37235e+09 1
000 759 2 0 3.38563e+09 3.38587e+09 3.38689e+09 3.39392e+09 1
000 760 1 0 3.41095e+09 3.41121e+09 3.41222e+09 3.43782e+09 0
001 761 1 0 3.4434e+09 3.44365e+09 3.44467e+09 3.44722e+09 0
001 762 2 0 3.44999e+09 3.45024e+09 3.45126e+09 3.46307e+09 0
000 763 2 0 3.47045e+09 3.4707e+09 3.47172e+09 3.48596e+09 1
000 764 2 0 3.49325e+09 3.4935e+09 3.49452e+09 3.49643e+09 1
000 765 2 0 3.50468e+09 3.50492e+09 3.50594e+09 3.50842e+09 1
000 766 2 0 3.51588e+09 3.51613e+09 3.51715e+09 3.53174e+09 0
000 767 2 0 3.5393e+09 3.53954e+09 3.54056e+09 3.59021e+09 0
000 768 1 0 3.5973e+09 3.59755e+09 3.59857e+09 3.6049e+09 0
001 769 1 0 3.61221e+09 3.61245e+09 3.61347e+09 3.6135e+09 0
001 770 1 1 3.62453e+09 3.62479e+09 3.62581e+09 3.62597e+09 0
000 771 1 0 3.63666e+09 3.63691e+09 3.63793e+09 3.66997e+09 1
001 772 2 0 3.70576e+09 3.70601e+09 3.70703e+09 3.85317e+09 0
000 773 2 0 3.86238e+09 3.86264e+09 3.86366e+09 3.86666e+09 1
000 774 2 0 3.88799e+09 3.88823e+09 3.88925e+09 3.89e+09 1
000 775 2 1 3.89734e+09 3.89758e+09 3.8986e+09 3.93575e+09 1
001 776 1 0 3.95431e+09 3.95457e+09 3.95558e+09 3.98897e+09 0
001 777 1 0 4.00694e+09 4.00719e+09 4.00821e+09 4.00949e+09 0
001 778 1 1 4.02173e+09 4.02198e+09 4.023e+09 4.02922e+09 0
000 779 1 0 4.03665e+09 4.0369e+09 4.03792e+09 4.09283e+09 1
001 780 2 0 4.10892e+09 4.10917e+09 4.11019e+09 4.11215e+09 0
000 781 2 0 4.1197e+09 4.11995e+09 4.12097e+09 4.12742e+09 1
000 782 2 0 4.13448e+09 4.13473e+09 4.13575e+09 4.13647e+09 1
000 783 2 1 4.14356e+09 4.1438e+09 4.14482e+09 4.14485e+09 1
001 784 1 0 4.14772e+09 4.14797e+09 4.14899e+09 4.14937e+09 0
001 785 1 0 4.15973e+09 4.15999e+09 4.161e+09 4.17295e+09 0
001 786 2 1 4.17711e+09 4.17736e+09 4.17838e+09 4.17857e+09 0
001 787 1 0 4.18241e+09 4.18266e+09 4.18368e+09 4.18438e+09 0
001 788 2 0 4.19768e+09 4.19793e+09 4.19895e+09 4.26792e+09 0
000 789 2 0 4.27522e+09 4.27548e+09 4.2765e+09 1.33143e+07 1
000 790 2 0 2.03367e+07 2.05863e+07 2.16053e+07 2.8897e+07 1
000 791 2 0 4.177e+07 4.20182e+07 4.30372e+07 4.83249e+07 1
000 792 2 0 5.58776e+07 5.61203e+07 5.71392e+07 8.84809e+07 0
000 793 2 0 9.56396e+07 9.58821e+07 9.6901e+07 1.2372e+08 0
000 794 2 0 1.30932e+08 1.31183e+08 1.32202e+08 1.69611e+08 0
000 795 2 0 1.77123e+08 1.77376e+08 1.78395e+08 2.22385e+08 0
000 796 1 0 2.29802e+08 2.30049e+08 2.31068e+08 2.66769e+08 0
001 797 1 0 2.7995e+08 2.802e+08 2.81219e+08 2.88681e+08 0
001 798 2 0 3.0269e+08 3.02934e+08 3.03953e+08 3.14019e+08 0
000 799 2 0 3.21216e+08 3.21457e+08 3.22476e+08 3.96536e+08 1
000 800 2 0 4.03656e+08 4.03909e+08 4.04927e+08 4.58042e+08 1
000 801 2 0 4.65073e+08 4.65322e+08 4.66341e+08 4.91353e+08 1
000 802 2 0 4.99057e+08 4.99312e+08 5.00331e+08 5.50224e+08 0
000 803 2 1 5.57499e+08 5.5775e+08 5.58769e+08 6.83348e+08 0
001 804 1 0 6.99614e+08 6.99858e+08 7.00877e+08 8.44389e+08 0
001 805 2 0 8.5099e+08 8.51236e+08 8.52255e+08 8.54963e+08 0
000 806 2 0 8.62771e+08 8.63023e+08 8.64041e+08 9.4918e+08 1
000 807 2 0 9.58734e+08 9.58979e+08 9.59998e+08 1.01877e+09 1
000 808 2 0 1.02586e+09 1.02611e+09 1.02713e+09 1.10013e+09 1
000 809 2 0 1.10768e+09 1.10793e+09 1.10895e+09 1.1601e+09 0
000 810 2 0 1.17285e+09 1.1731e+09 1.17412e+09 1.35618e+09 0
000 811 1 0 1.36366e+09 1.36392e+09 1.36494e+09 1.598e+09 0
001 812 1 0 1.61132e+09 1.61157e+09 1.61259e+09 1.61617e+09 0
001 813 1 0 1.6311e+09 1.63134e+09 1.63236e+09 1.72505e+09 0
001 814 2 0 1.73667e+09 1.73691e+09 1.73793e+09 1.8767e+09 0
000 815 2 0 1.8841e+09 1.88434e+09 1.88536e+09 1.88839e+09 1
000 816 2 0 1.89591e+09 1.89615e+09 1.89717e+09 2.01386e+09 1
000 817 2 0 2.02136e+09 2.02161e+09 2.02262e+09 2.47647e+09 1
000 818 1 0 2.48383e+09 2.48407e+09 2.48509e+09 2.48714e+09 0
001 819 2 0 2.50688e+09 2.50713e+09 2.50815e+09 2.5145e+09 0
000 820 2 0 2.52161e+09 2.52186e+09 2.52288e+09 2.64673e+09 1
000 821 2 0 2.65408e+09 2.65433e+09 2.65535e+09 2.67016e+09 1
000 822 2 0 2.6774e+09 2.67766e+09 2.67868e+09 2.90052e+09 1
000 823 1 0 2.90803e+09 2.90828e+09 2.9093e+09 3.11201e+09 0
001 824 1 0 3.11452e+09 3.11477e+09 3.11579e+09 3.12368e+09 0
001 825 2 0 3.12921e+09 3.12946e+09 3.13048e+09 3.13407e+09 0
000 826 2 0 3.14146e+09 3.1417e+09 3.14272e+09 3.2822e+09 1
000 827 2 1 3.28948e+09 3.28972e+09 3.29074e+09 3.29185e+09 1
001 828 1 0 3.30446e+09 3.30471e+09 3.30573e+09 3.30893e+09 0
001 829 2 0 3.31368e+09 3.31393e+09 3.31495e+09 3.71203e+09 0
000 830 2 0 3.71935e+09 3.7196e+09 3.72062e+09 3.81094e+09 1
000 831 2 0 3.81797e+09 3.81823e+09 3.81924e+09 4.07241e+09 1
000 832 2 0 4.07968e+09 4.07993e+09 4.08095e+09 3.30202e+08 1
000 833 2 0 3.37419e+08 3.37676e+08 3.38695e+08 4.23037e+08 0
000 834 2 0 4.30212e+08 4.30466e+08 4.31485e+08 1.03412e+09 0
000 835 1 1 1.04167e+09 1.04193e+09 1.04295e+09 1.73192e+09 0
000 836 2 1 1.7394e+09 1.73964e+09 1.74066e+09 1.95348e+09 0
001 837 2 0 1.95695e+09 1.9572e+09 1.95822e+09 2.30659e+09 0
000 838 2 1 2.31398e+09 2.31423e+09 2.31524e+09 2.31952e+09 1
001 839 1 1 2.32229e+09 2.32254e+09 2.32356e+09 2.32382e+09 0
000 840 1 1 2.33115e+09 2.3314e+09 2.33242e+09 2.34119e+09 1
000 841 1 1 2.35489e+09 2.35514e+09 2.35616e+09 2.36247e+09 1
000 842 1 1 2.36997e+09 2.37022e+09 2.37124e+09 2.47791e+09 1
000 843 1 0 2.48698e+09 2.48724e+09 2.48826e+09 2.7073e+09 0
001 844 1 0 2.71003e+09 2.71029e+09 2.71131e+09 2.71483e+09 0
001 845 1 1 2.71797e+09 2.71821e+09 2.71923e+09 2.75174e+09 0
000 846 1 1 2.7589e+09 2.75915e+09 2.76017e+09 3.02839e+09 1
000 847 1 1 3.03584e+09 3.03609e+09 3.03711e+09 3.30411e+09 1
000 848 1 1 3.31123e+09 3.31147e+09 3.31249e+09 3.60299e+09 1
000 849 1 0 3.61087e+09 3.61112e+09 3.61214e+09 3.63351e+09 0
001 850 2 0 3.64002e+09 3.64026e+09 3.64128e+09 3.9417e+09 0
000 851 2 0 3.94886e+09 3.94911e+09 3.95013e+09 3.95877e+09 1
000 852 2 1 3.96619e+09 3.96645e+09 3.96747e+09 4.87629e+08 1
001 853 1 0 4.90178e+08 4.90432e+08 4.91451e+08 4.93412e+08 0
001 854 1 0 4.99675e+08 4.99921e+08 5.0094e+08 5.23673e+08 0
001 855 2 0 5.35997e+08 5.36238e+08 5.37257e+08 5.40287e+08 0
000 856 2 0 5.47386e+08 5.47629e+08 5.48648e+08 5.53276e+08 1
000 857 2 1 5.60786e+08 5.61035e+08 5.62053e+08 5.62778e+08 1
001 858 1 0 5.6601e+08 5.66265e+08 5.67284e+08 6.80515e+08 0
001 859 1 0 6.83079e+08 6.83336e+08 6.84355e+08 6.89364e+08 0
001 860 1 0 6.92267e+08 6.92519e+08 6.93538e+08 8.77986e+08 0
001 861 2 0 8.80832e+08 8.8109e+08 8.82109e+08 1.07651e+09 0
000 862 2 0 1.08363e+09 1.08389e+09 1.0849e+09 1.0985e+09 1
000 863 2 0 1.10557e+09 1.10582e+09 1.10684e+09 1.11178e+09 1
000 864 2 0 1.11904e+09 1.1193e+09 1.12032e+09 1.32013e+09 1
000 865 2 0 1.32758e+09 1.32783e+09 1.32885e+09 1.57131e+09 0
000 866 2 0 1.57868e+09 1.57893e+09 1.57995e+09 1.96666e+09 0
000 867 2 0 1.97406e+09 1.97431e+09 1.97532e+09 2.02235e+09 0
000 868 2 0 2.02983e+09 2.03008e+09 2.0311e+09 2.28096e+09 0
000 869 2 0 2.28844e+09 2.2887e+09 2.28972e+09 2.56724e+09 0
000 870 1 0 2.57461e+09 2.57487e+09 2.57588e+09 2.58684e+09 0
001 871 1 0 2.59065e+09 2.5909e+09 2.59192e+09 2.6137e+09 0
001 872 2 0 2.62382e+09 2.62407e+09 2.62509e+09 2.64334e+09 0
000 873 2 1 2.65086e+09 2.65111e+09 2.65213e+09 2.84404e+09 1
001 874 2 0 2.84697e+09 2.84722e+09 2.84824e+09 2.84995e+09 0
000 875 2 0 2.85733e+09 2.85759e+09 2.85861e+09 2.87064e+09 1
000 876 2 1 2.87783e+09 2.87808e+09 2.8791e+09 3.18454e+09 1
001 877 1 0 3.18874e+09 3.18899e+09 3.19001e+09 3.19231e+09 0
001 878 1 0 3.19698e+09 3.19723e+09 3.19825e+09 3.21407e+09 0
001 879 1 0 3.21797e+09 3.21822e+09 3.21924e+09 3.22373e+09 0
001 880 1 1 3.22909e+09 3.22934e+09 3.23036e+09 3.23047e+09 0
000 881 1 1 3.23781e+09 3.23806e+09 3.23908e+09 3.24301e+09 1
000 882 1 1 3.2501e+09 3.25035e+09 3.25137e+09 3.50031e+09 1
000 883 1 0 3.50934e+09 3.50959e+09 3.51061e+09 3.51173e+09 1
001 884 2 0 3.51778e+09 3.51803e+09 3.51905e+09 3.51959e+09 0
000 885 2 0 3.52701e+09 3.52726e+09 3.52828e+09 3.53123e+09 1
000 886 2 0 3.5383e+09 3.53855e+09 3.53957e+09 3.65086e+09 1
000 887 2 1 3.65818e+09 3.65843e+09 3.65945e+09 4.02662e+09 1
001 888 2 0 4.02941e+09 4.02966e+09 4.03068e+09 4.07271e+09 0
000 889 2 0 4.07989e+09 4.08014e+09 4.08115e+09 2.54228e+06 1
000 890 2 1 1.19153e+07 1.2158e+07 1.3177e+07 2.77969e+08 1
001 891 2 0 2.80859e+08 2.81102e+08 2.82121e+08 3.08686e+08 0
000 892 2 0 3.17444e+08 3.17692e+08 3.18711e+08 3.41914e+08 1
000 893 2 0 3.49227e+08 3.49476e+08 3.50495e+08 5.96069e+08 1
000 894 2 0 6.03315e+08 6.03571e+08 6.0459e+08 1.21194e+09 1
000 895 2 0 1.21947e+09 1.21972e+09 1.22074e+09 1.22794e+09 0
000 896 1 0 1.2354e+09 1.23564e+09 1.23666e+09 1.24155e+09 0
001 897 2 0 1.24977e+09 1.25001e+09 1.25103e+09 1.26507e+09 0
000 898 2 0 1.27221e+09 1.27246e+09 1.27348e+09 1.49393e+09 1
000 899 2 0 1.50108e+09 1.50134e+09 1.50236e+09 1.76645e+09 1
000 900 2 0 1.77376e+09 1.77401e+09 1.77503e+09 1.7847e+09 1
000 901 1 0 1.79217e+09 1.79242e+09 1.79344e+09 2.02315e+09 0
001 902 2 0 2.03664e+09 2.0369e+09 2.03791e+09 2.04507e+09 0
000 903 2 1 2.05244e+09 2.05269e+09 2.05371e+09 2.05711e+09 1
001 904 2 1 2.05999e+09 2.06023e+09 2.06125e+09 2.06147e+09 0
001 905 1 0 2.06986e+09 2.07011e+09 2.07113e+09 2.07135e+09 0
001 906 2 1 2.07451e+09 2.07475e+09 2.07577e+09 2.09014e+09 0
001 907 1 1 2.09358e+09 2.09383e+09 2.09485e+09 2.31569e+09 0
000 908 1 1 2.32292e+09 2.32318e+09 2.3242e+09 2.33196e+09 1
000 909 1 1 2.33935e+09 2.3396e+09 2.34062e+09 2.75785e+09 1
000 910 1 0 2.7651e+09 2.76535e+09 2.76637e+09 2.77918e+09 1
001 911 1 1 2.7817e+09 2.78196e+09 2.78298e+09 2.78525e+09 0
000 912 1 1 2.79504e+09 2.79529e+09 2.79631e+09 2.83693e+09 1
000 913 1 1 2.84443e+09 2.84467e+09 2.84569e+09 3.24611e+09 1
000 914 1 0 3.25354e+09 3.25378e+09 3.2548e+09 3.31299e+09 1
001 915 1 1 3.32216e+09 3.32241e+09 3.32343e+09 3.32773e+09 0
000 916 1 1 3.33503e+09 3.33529e+09 3.33631e+09 3.65698e+09 1
000 917 1 1 3.66433e+09 3.66458e+09 3.6656e+09 3.6692e+09 1
000 918 1 0 3.67825e+09 3.6785e+09 3.67952e+09 3.68887e+09 1
001 919 2 1 3.69317e+09 3.69342e+09 3.69444e+09 3.69594e+09 0
001 920 2 0 3.69921e+09 3.69945e+09 3.70047e+09 3.70063e+09 0
000 921 2 0 3.70842e+09 3.70867e+09 3.70969e+09 3.93815e+09 1
000 922 2 0 3.94519e+09 3.94543e+09 3.94645e+09 3.94973e+09 1
000 923 2 0 3.95716e+09 3.9574e+09 3.95842e+09 3.96137e+09 1
000 924 1 0 3.96847e+09 3.96873e+09 3.96975e+09 3.97726e+09 0
001 925 1 1 3.97987e+09 3.98012e+09 3.98114e+09 3.98166e+09 0
000 926 1 0 3.98874e+09 3.98899e+09 3.99001e+09 4.00039e+09 1
001 927 2 0 4.00621e+09 4.00646e+09 4.00748e+09 4.0206e+09 0
000 928 2 0 4.03038e+09 4.03063e+09 4.03164e+09 4.25999e+09 1
000 929 2 0 4.26707e+09 4.26732e+09 4.26833e+09 4.27004e+09 1
000 930 2 1 4.2773e+09 4.27755e+09 4.27857e+09 4.28425e+09 1
001 931 1 0 4.29225e+09 4.29249e+09 4.29351e+09 9.1114e+07 0
001 932 2 0 9.37155e+07 9.396e+07 9.4979e+07 1.60221e+08 0
000 933 2 0 1.67502e+08 1.67754e+08 1.68773e+08 6.08023e+08 1
000 934 2 0 6.15164e+08 6.15407e+08 6.16426e+08 6.25199e+08 1
000 935 2 0 6.32235e+08 6.32475e+08 6.33494e+08 6.48946e+08 1
000 936 1 0 6.56493e+08 6.56749e+08 6.57768e+08 8.33192e+08 0
001 937 2 0 8.35685e+08 8.35936e+08 8.36955e+08 8.40898e+08 0
000 938 2 0 8.47964e+08 8.48214e+08 8.49233e+08 8.52748e+08 1
000 939 2 0 8.59958e+08 8.6021e+08 8.61229e+08 8.67402e+08 1
000 940 2 0 8.74804e+08 8.75046e+08 8.76065e+08 1.16061e+09 1
000 941 2 0 1.16787e+09 1.16812e+09 1.16914e+09 1.18502e+09 0
000 942 2 0 1.19256e+09 1.1928e+09 1.19382e+09 1.34542e+09 0
000 943 2 0 1.35254e+09 1.35278e+09 1.3538e+09 1.37244e+09 0
000 944 2 0 1.37958e+09 1.37983e+09 1.38085e+09 1.87944e+09 0
000 945 2 0 1.88688e+09 1.88714e+09 1.88816e+09 1.89167e+09 0
000 946 1 0 1.89877e+09 1.89902e+09 1.90004e+09 1.90577e+09 0
001 947 2 1 1.91932e+09 1.91957e+09 1.92059e+09 1.935e+09 0
001 948 1 0 1.93883e+09 1.93909e+09 1.94011e+09 1.94044e+09 0
001 949 1 0 1.94319e+09 1.94345e+09 1.94447e+09 1.94459e+09 0
001 950 2 1 1.95325e+09 1.9535e+09 1.95452e+09 1.96495e+09 0
001 951 1 1 1.96963e+09 1.96989e+09 1.9709e+09 1.97299e+09 0
000 952 1 1 1.98005e+09 1.98029e+09 1.98131e+09 2.33049e+09 1
000 953 1 1 2.35284e+09 2.35308e+09 2.3541e+09 2.35424e+09 1
000 954 1 1 2.36453e+09 2.36477e+09 2.36579e+09 2.43024e+09 1
000 955 1 0 2.43779e+09 2.43805e+09 2.43907e+09 2.57453e+09 0
001 956 1 0 2.57823e+09 2.57848e+09 2.5795e+09 2.57972e+09 0
001 957 2 0 2.58401e+09 2.58425e+09 2.58527e+09 2.58581e+09 0
000 958 2 0 2.59323e+09 2.59348e+09 2.5945e+09 2.74217e+09 1
000 959 2 0 2.75353e+09 2.75377e+09 2.75479e+09 2.7614e+09 1
000 960 2 0 2.77527e+09 2.77553e+09 2.77655e+09 2.90736e+09 1
000 961 2 0 2.91484e+09 2.91509e+09 2.91611e+09 3.21871e+09 0
000 962 1 0 3.24082e+09 3.24107e+09 3.24209e+09 3.59863e+09 0
001 963 1 0 3.60239e+09 3.60265e+09 3.60367e+09 3.60384e+09 0
001 964 2 0 3.60852e+09 3.60878e+09 3.6098e+09 3.61314e+09 0
000 965 2 0 3.62041e+09 3.62066e+09 3.62168e+09 3.62309e+09 1
000 966 2 1 3.63275e+09 3.63301e+09 3.63403e+09 3.63657e+09 1
001 967 2 0 3.64394e+09 3.64418e+09 3.6452e+09 3.64879e+09 0
000 968 2 0 3.65615e+09 3.65641e+09 3.65743e+09 3.66307e+09 1
000 969 2 0 3.67054e+09 3.67079e+09 3.6718e+09 3.8676e+09 1
000 970 2 0 3.87628e+09 3.87653e+09 3.87755e+09 3.87782e+09 1
000 971 1 1 3.88509e+09 3.88533e+09 3.88635e+09 4.2064e+09 0
000 972 2 0 4.21353e+09 4.21378e+09 4.2148e+09 2.63331e+08 0
000 973 1 0 2.72315e+08 2.72557e+08 2.73576e+08 2.95847e+08 0
001 974 1 0 3.00677e+08 3.00924e+08 3.01943e+08 3.03136e+08 0
001 975 2 0 3.09418e+08 3.09666e+08 3.10685e+08 3.1243e+08 0
000 976 2 0 3.2619e+08 3.26449e+08 3.27468e+08 3.3822e+08 1
000 977 2 1 3.45583e+08 3.45825e+08 3.46844e+08 3.51686e+08 1
001 978 2 0 3.57609e+08 3.57853e+08 3.58872e+08 4.81936e+08 0
000 979 2 1 4.8905e+08 4.89296e+08 4.90315e+08 8.55985e+08 1
001 980 2 0 8.60875e+08 8.6113e+08 8.62149e+08 1.22558e+09 0
000 981 2 0 1.2362e+09 1.23645e+09 1.23747e+09 1.24987e+09 1
000 982 2 0 1.25926e+09 1.25951e+09 1.26053e+09 1.26552e+09 1
000 983 2 0 1.27337e+09 1.27361e+09 1.27463e+09 1.27923e+09 1
000 984 1 1 1.28658e+09 1.28684e+09 1.28785e+09 1.34056e+09 0
000 985 2 0 1.35103e+09 1.35127e+09 1.35229e+09 1.63372e+09 0
000 986 1 1 1.64084e+09 1.64109e+09 1.64211e+09 1.93926e+09 0
000 987 2 0 1.95223e+09 1.95248e+09 1.9535e+09 1.95566e+09 0
000 988 1 0 1.96284e+09 1.96309e+09 1.96411e+09 1.96849e+09 0
001 989 1 0 1.97105e+09 1.9713e+09 1.97232e+09 1.97963e+09 0
001 990 1 0 1.98916e+09 1.98941e+09 1.99043e+09 1.99542e+09 0
001 991 2 1 2.00517e+09 2.00542e+09 2.00644e+09 2.00684e+09 0
001 992 2 1 2.01672e+09 2.01698e+09 2.01799e+09 2.02257e+09 0
001 993 1 1 2.02652e+09 2.02677e+09 2.02778e+09 2.03071e+09 0
000 994 1 0 2.0469e+09 2.04714e+09 2.04816e+09 2.32063e+09 1
001 995 1 0 2.32592e+09 2.32618e+09 2.3272e+09 2.32749e+09 0
001 996 1 0 2.33097e+09 2.33122e+09 2.33224e+09 2.40558e+09 0
001 997 2 0 2.40816e+09 2.40841e+09 2.40943e+09 2.42245e+09 0
000 998 2 0 2.43154e+09 2.43178e+09 2.4328e+09 2.43497e+09 1
000 999 2 0 2.44318e+09 2.44343e+09 2.44445e+09 2.45804e+09 1
000 1000 2 1 2.46531e+09 2.46556e+09 2.46658e+09 2.68842e+09 1
001 1001 2 0 2.69194e+09 2.69218e+09 2.6932e+09 2.698e+09 0
000 1002 2 0 2.70525e+09 2.70549e+09 2.70651e+09 2.70856e+09 1
000 1003 2 0 2.71572e+09 2.71596e+09 2.71698e+09 2.73147e+09 1
000 1004 2 0 2.73895e+09 2.7392e+09 2.74022e+09 2.99314e+09 1
000 1005 2 0 3.00066e+09 3.00091e+09 3.00193e+09 3.02019e+09 0
000 1006 1 0 3.02959e+09 3.02983e+09 3.03085e+09 3.22903e+09 0
001 1007 2 0 3.23552e+09 3.23576e+09 3.23678e+09 3.24873e+09 0
000 1008 2 0 3.25697e+09 3.25722e+09 3.25824e+09 3.62841e+09 1
000 1009 2 0 3.63619e+09 3.63643e+09 3.63745e+09 3.64693e+09 1
000 1010 2 0 3.65429e+09 3.65454e+09 3.65556e+09 3.68761e+09 1
000 1011 1 1 3.6989e+09 3.69915e+09 3.70017e+09 3.96907e+09 0
000 1012 2 0 3.97713e+09 3.97737e+09 3.97839e+09 3.98281e+09 0
000 1013 1 0 3.99017e+09 3.99043e+09 3.99144e+09 2.20318e+08 0
001 1014 1 0 2.23113e+08 2.23371e+08 2.2439e+08 2.3067e+08 0
001 1015 1 1 2.34024e+08 2.34277e+08 2.35296e+08 2.40221e+08 0
000 1016 1 0 2.47519e+08 2.47774e+08 2.48793e+08 2.49224e+08 1
001 1017 1 0 2.54731e+08 2.54974e+08 2.55993e+08 2.56141e+08 0
001 1018 1 0 2.5939e+08 2.59643e+08 2.60662e+08 2.74692e+08 0
001 1019 2 0 2.77312e+08 2.77582e+08 2.78601e+08 2.81488e+08 0
000 1020 2 0 2.88647e+08 2.88893e+08 2.89912e+08 2.94747e+08 1
000 1021 2 0 3.01792e+08 3.02049e+08 3.03068e+08 3.04969e+08 1
000 1022 2 0 3.1246e+08 3.1271e+08 3.13729e+08 4.43616e+08 1
000 1023 2 1 4.51036e+08 4.51278e+08 4.52297e+08 1.39354e+09 0
001 1024 2 0 1.39744e+09 1.3977e+09 1.39872e+09 1.41217e+09 0
000 1025 2 1 1.42392e+09 1.42417e+09 1.42518e+09 1.43031e+09 1
001 1026 2 0 1.44327e+09 1.44351e+09 1.44453e+09 1.44642e+09 0
000 1027 2 0 1.45357e+09 1.45382e+09 1.45484e+09 1.53656e+09 1
000 1028 2 0 1.54378e+09 1.54403e+09 1.54505e+09 2.26635e+09 1
000 1029 2 1 2.27349e+09 2.27373e+09 2.27475e+09 2.41298e+09 1
001 1030 1 0 2.41844e+09 2.4187e+09 2.41972e+09 2.42076e+09 0
001 1031 1 0 2.42854e+09 2.42879e+09 2.42981e+09 2.45956e+09 0
001 1032 2 1 2.46221e+09 2.46246e+09 2.46348e+09 3.11163e+09 0
001 1033 1 0 3.11599e+09 3.11625e+09 3.11727e+09 3.11883e+09 0
001 1034 1 1 3.12172e+09 3.12197e+09 3.12299e+09 3.12366e+09 0
000 1035 1 0 3.13089e+09 3.13114e+09 3.13216e+09 3.14864e+09 1
001 1036 1 0 3.1512e+09 3.15145e+09 3.15246e+09 3.16332e+09 0
001 1037 2 0 3.16734e+09 3.1676e+09 3.16862e+09 3.22246e+09 0
000 1038 2 0 3.23005e+09 3.23029e+09 3.23131e+09 3.23951e+09 1
000 1039 2 1 3.247e+09 3.24725e+09 3.24827e+09 3.71707e+09 1
001 1040 1 1 3.72149e+09 3.72174e+09 3.72276e+09 3.72921e+09 0
000 1041 1 1 3.73658e+09 3.73683e+09 3.73785e+09 3.77397e+09 1
000 1042 1 0 3.78117e+09 3.78143e+09 3.78245e+09 4.11746e+09 1
001 1043 2 0 4.1203e+09 4.12056e+09 4.12158e+09 4.12184e+09 0
000 1044 2 0 4.12902e+09 4.12926e+09 4.13028e+09 1.29641e+08 1
000 1045 2 1 1.41899e+08 1.42142e+08 1.43161e+08 1.53833e+08 1
001 1046 2 0 1.56432e+08 1.56681e+08 1.577e+08 1.61504e+08 0
000 1047 2 0 1.69538e+08 1.69781e+08 1.708e+08 1.79027e+08 1
000 1048 2 0 1.86219e+08 1.86475e+08 1.87494e+08 1.94569e+08 1
000 1049 2 0 2.01981e+08 2.02223e+08 2.03242e+08 2.73533e+08 1
000 1050 1 0 2.81086e+08 2.81335e+08 2.82354e+08 7.90848e+08 0
001 1051 2 0 7.93397e+08 7.9364e+08 7.94659e+08 1.09007e+09 0
000 1052 2 0 1.09925e+09 1.09949e+09 1.10051e+09 1.11149e+09 1
000 1053 2 0 1.11922e+09 1.11947e+09 1.12049e+09 1.24622e+09 1
000 1054 2 1 1.25331e+09 1.25356e+09 1.25458e+09 1.75056e+09 1
001 1055 1 0 1.75421e+09 1.75446e+09 1.75548e+09 1.75625e+09 0
001 1056 1 0 1.75912e+09 1.75938e+09 1.7604e+09 2.17933e+09 0
001 1057 2 0 2.18321e+09 2.18346e+09 2.18448e+09 2.18519e+09 0
000 1058 2 0 2.1972e+09 2.19745e+09 2.19847e+09 2.50282e+09 1
000 1059 2 1 2.51034e+09 2.51058e+09 2.5116e+09 3.02376e+09 1
001 1060 1 0 3.02633e+09 3.02657e+09 3.02759e+09 3.03117e+09 0
001 1061 2 1 3.03402e+09 3.03427e+09 3.03529e+09 3.03551e+09 0
001 1062 1 0 3.04531e+09 3.04557e+09 3.04659e+09 3.05193e+09 0
001 1063 2 1 3.05487e+09 3.05511e+09 3.05613e+09 3.08829e+09 0
001 1064 2 0 3.09096e+09 3.09122e+09 3.09224e+09 3.3089e+09 0
000 1065 2 0 3.31612e+09 3.31636e+09 3.31738e+09 3.33535e+09 1
000 1066 2 0 3.34281e+09 3.34306e+09 3.34408e+09 3.74484e+09 1
000 1067 2 0 3.75705e+09 3.75729e+09 3.75831e+09 3.76114e+09 1
000 1068 1 0 3.76876e+09 3.76901e+09 3.77003e+09 3.77095e+09 0
001 1069 1 0 3.77927e+09 3.77952e+09 3.78054e+09 3.78128e+09 0
001 1070 2 0 3.79804e+09 3.7983e+09 3.79932e+09 1.95873e+07 0
000 1071 2 0 2.73777e+07 2.76267e+07 2.86457e+07 3.39178e+07 1
000 1072 2 0 4.1857e+07 4.211e+07 4.3129e+07 4.84688e+07 1
000 1073 2 1 5.77505e+07 5.80086e+07 5.90275e+07 8.58026e+07 1
001 1074 2 0 9.03711e+07 9.06298e+07 9.16488e+07 9.24351e+07 0
000 1075 2 0 9.98584e+07 1.00111e+08 1.01129e+08 1.02682e+08 1
000 1076 2 1 1.09817e+08 1.1006e+08 1.11079e+08 2.3604e+08 1
001 1077 2 1 2.38895e+08 2.3914e+08 2.40159e+08 2.43916e+08 0
001 1078 1 0 2.46541e+08 2.46785e+08 2.47804e+08 2.50071e+08 0
001 1079 2 0 2.60348e+08 2.606e+08 2.61619e+08 2.63019e+08 0
000 1080 2 1 2.73037e+08 2.73287e+08 2.74306e+08 2.74945e+08 1
001 1081 1 1 2.77958e+08 2.78206e+08 2.79225e+08 2.81522e+08 0
000 1082 1 0 2.91311e+08 2.91556e+08 2.92575e+08 3.10611e+08 1
001 1083 2 0 3.16936e+08 3.17181e+08 3.182e+08 5.59513e+08 0
000 1084 2 0 5.66715e+08 5.66957e+08 5.67976e+08 5.78293e+08 1
000 1085 2 0 5.85753e+08 5.85995e+08 5.87014e+08 7.1195e+08 1
000 1086 2 0 7.19408e+08 7.1965e+08 7.20669e+08 8.05445e+08 1
000 1087 2 0 8.1298e+08 8.13231e+08 8.1425e+08 8.93629e+08 0
000 1088 1 0 9.00814e+08 9.01064e+08 9.02083e+08 9.63081e+08 0
001 1089 2 0 9.67825e+08 9.68071e+08 9.6909e+08 9.69128e+08 0
000 1090 2 0 9.78477e+08 9.78722e+08 9.79741e+08 1.00611e+09 1
000 1091 2 0 1.01601e+09 1.01625e+09 1.01727e+09 1.01851e+09 1
000 1092 2 1 1.02624e+09 1.02649e+09 1.02751e+09 1.41705e+09 1
001 1093 2 0 1.42934e+09 1.42959e+09 1.43061e+09 1.43619e+09 0
000 1094 2 0 1.44874e+09 1.44898e+09 1.45e+09 1.6061e+09 1
000 1095 2 1 1.6135e+09 1.61375e+09 1.61477e+09 1.6148e+09 1
001 1096 2 1 1.61935e+09 1.61961e+09 1.62063e+09 1.62087e+09 0
001 1097 2 0 1.62686e+09 1.62711e+09 1.62813e+09 1.62816e+09 0
000 1098 2 0 1.6354e+09 1.63565e+09 1.63666e+09 1.63939e+09 1
000 1099 2 0 1.64727e+09 1.64752e+09 1.64854e+09 1.6528e+09 1
000 1100 2 0 1.65986e+09 1.6601e+09 1.66112e+09 1.67487e+09 1
000 1101 1 0 1.68226e+09 1.68251e+09 1.68353e+09 1.88261e+09 0
001 1102 2 0 1.8884e+09 1.88866e+09 1.88968e+09 2.09735e+09 0
000 1103 2 0 2.10457e+09 2.10482e+09 2.10584e+09 2.97688e+09 1
000 1104 2 1 2.98436e+09 2.98462e+09 2.98564e+09 3.07352e+09 1
001 1105 1 1 3.07627e+09 3.07652e+09 3.07754e+09 3.3018e+09 0
000 1106 1 0 3.31597e+09 3.31622e+09 3.31724e+09 3.31967e+09 1
001 1107 1 1 3.32308e+09 3.32333e+09 3.32435e+09 3.33045e+09 0
000 1108 1 0 3.33876e+09 3.33901e+09 3.34003e+09 3.34059e+09 1
001 1109 2 1 3.34357e+09 3.34382e+09 3.34484e+09 3.34487e+09 0
001 1110 1 1 3.35877e+09 3.35902e+09 3.36004e+09 3.36269e+09 0
000 1111 1 0 3.36984e+09 3.37009e+09 3.37111e+09 3.56916e+09 1
001 1112 2 0 3.57204e+09 3.57229e+09 3.57331e+09 3.57723e+09 0
000 1113 2 0 3.58467e+09 3.58492e+09 3.58594e+09 3.72379e+09 1
000 1114 2 0 3.73093e+09 3.73118e+09 3.7322e+09 3.76755e+09 1
000 1115 2 0 3.77492e+09 3.77517e+09 3.77619e+09 3.92734e+09 1
000 1116 1 0 3.93644e+09 3.93669e+09 3.93771e+09 3.95165e+09 0
001 1117 2 1 3.95499e+09 3.95524e+09 3.95626e+09 3.95944e+09 0
001 1118 1 0 3.97198e+09 3.97222e+09 3.97324e+09 3.97428e+09 0
001 1119 2 1 3.97706e+09 3.97732e+09 3.97834e+09 3.99233e+09 0
001 1120 2 0 3.99861e+09 3.99885e+09 3.99987e+09 4.0002e+09 0
000 1121 2 0 4.00746e+09 4.00771e+09 4.00873e+09 4.00938e+09 1
000 1122 2 0 4.01802e+09 4.01827e+09 4.01929e+09 4.02011e+09 1
000 1123 2 0 4.0281e+09 4.02835e+09 4.02937e+09 7.44507e+07 1
000 1124 1 0 8.16712e+07 8.19185e+07 8.29374e+07 7.73159e+08 0
001 1125 1 0 7.7605e+08 7.76306e+08 7.77325e+08 8.13359e+08 0
001 1126 1 0 8.15882e+08 8.16128e+08 8.17147e+08 8.17525e+08 0
001 1127 1 0 8.31724e+08 8.31965e+08 8.32984e+08 8.42387e+08 0
001 1128 2 1 8.45299e+08 8.45554e+08 8.46573e+08 8.52366e+08 0
001 1129 2 0 8.56644e+08 8.56899e+08 8.57918e+08 8.75707e+08 0
000 1130 2 0 8.82895e+08 8.83148e+08 8.84167e+08 9.30302e+08 1
000 1131 2 0 9.40971e+08 9.41212e+08 9.42231e+08 9.50903e+08 1
000 1132 2 1 9.58328e+08 9.58575e+08 9.59594e+08 1.62264e+09 1
001 1133 1 0 1.62546e+09 1.62571e+09 1.62672e+09 1.66794e+09 0
001 1134 2 0 1.67056e+09 1.6708e+09 1.67182e+09 1.67255e+09 0
000 1135 2 0 1.6801e+09 1.68035e+09 1.68137e+09 1.68259e+09 1
000 1136 2 0 1.68987e+09 1.69012e+09 1.69114e+09 1.69214e+09 1
000 1137 2 0 1.70265e+09 1.70291e+09 1.70393e+09 1.74084e+09 1
000 1138 1 0 1.74808e+09 1.74833e+09 1.74935e+09 1.82851e+09 0
001 1139 1 0 1.83664e+09 1.83688e+09 1.8379e+09 1.83901e+09 0
001 1140 2 0 1.84912e+09 1.84937e+09 1.85039e+09 2.41744e+09 0
000 1141 2 0 2.4252e+09 2.42545e+09 2.42647e+09 2.43502e+09 1
000 1142 2 0 2.44216e+09 2.4424e+09 2.44342e+09 2.44587e+09 1
000 1143 2 0 2.45416e+09 2.45441e+09 2.45543e+09 2.46178e+09 1
000 1144 2 0 2.469e+09 2.46925e+09 2.47027e+09 2.50293e+09 0
000 1145 2 0 2.51008e+09 2.51034e+09 2.51136e+09 2.5565e+09 0
000 1146 2 0 2.56386e+09 2.56412e+09 2.56514e+09 2.60473e+09 0
000 