trial trialType response stillTime stimOnset stimOffset respTime correctionTrial correct
001 1 1 3.03412e+06 3.28613e+06 4.30508e+06 1.03872e+07 0
000 002 1 1 1.76661e+07 1.79169e+07 1.89358e+07 2.68074e+08 1
000 003 1 1 2.85288e+08 2.85545e+08 2.86564e+08 2.91345e+08 1
000 004 1 0 2.98538e+08 2.98794e+08 2.99813e+08 2.9997e+08 1
001 005 2 1 3.1271e+08 3.1296e+08 3.13979e+08 3.14643e+08 0
001 006 1 0 3.17263e+08 3.17515e+08 3.18534e+08 3.22569e+08 0
001 007 1 0 3.24961e+08 3.25222e+08 3.26241e+08 3.3283e+08 0
001 008 2 0 3.35553e+08 3.35809e+08 3.36828e+08 3.39172e+08 0
000 009 2 0 3.61543e+08 3.61804e+08 3.62823e+08 3.66905e+08 1
000 010 2 1 3.82128e+08 3.82383e+08 3.83402e+08 3.85157e+08 1
001 011 1 0 4.02804e+08 4.03057e+08 4.04076e+08 4.11369e+08 0
001 012 2 0 4.13874e+08 4.1413e+08 4.15149e+08 4.19415e+08 0
000 013 2 0 4.34496e+08 4.34752e+08 4.35771e+08 4.39288e+08 1
000 014 2 0 4.46364e+08 4.4662e+08 4.47639e+08 4.48201e+08 1
000 015 2 0 4.68443e+08 4.68708e+08 4.69727e+08 4.70392e+08 1
000 016 2 1 4.77493e+08 4.77777e+08 4.78796e+08 4.79832e+08 0
001 017 1 0 5.0217e+08 5.02423e+08 5.03442e+08 5.06611e+08 0
001 018 1 0 5.0921e+08 5.09464e+08 5.10483e+08 5.18444e+08 0
001 019 2 0 5.21155e+08 5.21416e+08 5.22435e+08 5.23977e+08 0
000 020 2 0 5.35935e+08 5.3619e+08 5.37209e+08 5.37234e+08 1
000 021 2 1 5.47577e+08 5.4783e+08 5.48849e+08 5.49679e+08 1
001 022 1 0 5.5478e+08 5.55032e+08 5.56051e+08 5.59206e+08 0
001 023 2 0 5.61762e+08 5.62012e+08 5.63031e+08 5.66447e+08 0
000 024 2 1 5.77295e+08 5.77552e+08 5.78571e+08 5.78679e+08 1
001 025 1 0 5.85615e+08 5.85877e+08 5.86896e+08 5.87145e+08 0
001 026 1 0 6.10369e+08 6.1063e+08 6.11649e+08 6.12136e+08 0
001 027 1 0 6.14596e+08 6.14849e+08 6.15868e+08 6.24942e+08 0
001 028 1 0 6.27607e+08 6.27874e+08 6.28893e+08 6.38511e+08 0
001 029 1 0 6.41174e+08 6.41439e+08 6.42458e+08 6.46403e+08 0
001 030 2 0 6.49296e+08 6.49553e+08 6.50572e+08 6.74568e+08 0
000 031 2 0 6.81694e+08 6.81952e+08 6.82971e+08 6.83197e+08 1
000 032 2 0 6.9055e+08 6.90801e+08 6.9182e+08 6.91953e+08 1
000 033 2 0 7.02019e+08 7.0227e+08 7.03289e+08 7.04656e+08 1
000 034 1 0 7.19587e+08 7.19849e+08 7.20868e+08 7.26266e+08 0
001 035 1 0 7.28946e+08 7.29201e+08 7.3022e+08 7.36273e+08 0
001 036 2 0 7.38798e+08 7.39054e+08 7.40073e+08 7.42414e+08 0
000 037 2 0 7.55927e+08 7.56182e+08 7.57201e+08 7.57278e+08 1
000 038 2 1 7.6445e+08 7.647e+08 7.65719e+08 7.66744e+08 1
001 039 2 0 8.0488e+08 8.05133e+08 8.06152e+08 8.06838e+08 0
000 040 2 1 8.15526e+08 8.15784e+08 8.16803e+08 8.19875e+08 1
001 041 1 0 8.23584e+08 8.23846e+08 8.24865e+08 8.32719e+08 0
001 042 2 0 8.36148e+08 8.36411e+08 8.3743e+08 8.40495e+08 0
000 043 2 0 8.4792e+08 8.4818e+08 8.49199e+08 8.50183e+08 1
000 044 2 0 8.59267e+08 8.59528e+08 8.60547e+08 8.62367e+08 1
000 045 2 1 8.70646e+08 8.709e+08 8.71919e+08 8.74123e+08 1
001 046 2 1 8.76733e+08 8.76993e+08 8.78012e+08 8.95277e+08 0
001 047 2 0 8.97879e+08 8.98133e+08 8.99152e+08 9.01533e+08 0
000 048 2 0 9.08655e+08 9.08917e+08 9.09936e+08 9.12149e+08 1
000 049 2 0 9.21065e+08 9.21318e+08 9.22337e+08 9.23848e+08 1
000 050 2 0 9.34566e+08 9.34822e+08 9.35841e+08 9.36445e+08 1
000 051 2 0 9.47136e+08 9.47393e+08 9.48412e+08 9.50532e+08 0
000 052 2 0 9.6308e+08 9.63337e+08 9.64356e+08 9.68297e+08 0
000 053 2 0 9.8588e+08 9.8613e+08 9.87149e+08 9.88823e+08 0
000 054 1 0 9.96432e+08 9.96684e+08 9.97703e+08 9.98054e+08 0
001 055 1 0 1.00064e+09 1.00091e+09 1.00193e+09 1.0021e+09 0
001 056 2 1 1.0099e+09 1.01016e+09 1.01118e+09 1.01637e+09 0
001 057 1 1 1.02e+09 1.02025e+09 1.02127e+09 1.04403e+09 0
000 058 1 1 1.08659e+09 1.08684e+09 1.08786e+09 1.08886e+09 1
000 059 1 0 1.09593e+09 1.09618e+09 1.0972e+09 1.10116e+09 1
001 060 1 0 1.10394e+09 1.10419e+09 1.10521e+09 1.11209e+09 0
001 061 1 0 1.115e+09 1.11525e+09 1.11627e+09 1.11764e+09 0
001 062 1 0 1.12058e+09 1.12084e+09 1.12186e+09 1.12629e+09 0
001 063 2 0 1.13148e+09 1.13173e+09 1.13275e+09 1.13648e+09 0
000 064 2 1 1.14353e+09 1.14378e+09 1.1448e+09 1.14482e+09 1
001 065 2 0 1.14749e+09 1.14774e+09 1.14876e+09 1.16864e+09 0
000 066 2 1 1.17601e+09 1.17627e+09 1.17729e+09 1.18074e+09 1
001 067 1 0 1.1836e+09 1.18386e+09 1.18488e+09 1.18982e+09 0
001 068 2 0 1.19261e+09 1.19285e+09 1.19387e+09 1.1976e+09 0
000 069 2 0 1.21234e+09 1.21261e+09 1.21362e+09 1.2137e+09 1
000 070 2 1 1.22117e+09 1.22143e+09 1.22245e+09 1.2245e+09 1
001 071 2 0 1.24709e+09 1.24734e+09 1.24836e+09 1.24872e+09 0
000 072 2 0 1.26662e+09 1.26687e+09 1.26789e+09 1.27454e+09 1
000 073 2 0 1.28592e+09 1.28617e+09 1.28719e+09 1.28802e+09 1
000 074 2 0 1.30465e+09 1.30491e+09 1.30592e+09 1.30923e+09 1
000 075 2 0 1.31668e+09 1.31693e+09 1.31795e+09 1.31955e+09 0
000 076 2 0 1.32769e+09 1.32795e+09 1.32897e+09 1.32919e+09 0
000 077 2 0 1.33806e+09 1.33832e+09 1.33934e+09 1.34241e+09 0
000 078 2 1 1.35025e+09 1.3505e+09 1.35152e+09 1.35171e+09 0
001 079 1 0 1.36176e+09 1.36202e+09 1.36304e+09 1.36714e+09 0
001 080 1 0 1.36969e+09 1.36995e+09 1.37097e+09 1.37697e+09 0
001 081 1 0 1.37946e+09 1.37972e+09 1.38074e+09 1.38361e+09 0
001 082 1 0 1.38608e+09 1.38633e+09 1.38735e+09 1.3886e+09 0
001 083 2 0 1.39287e+09 1.39313e+09 1.39415e+09 1.39762e+09 0
000 084 2 0 1.42438e+09 1.42464e+09 1.42566e+09 1.42569e+09 1
000 085 2 1 1.43978e+09 1.44003e+09 1.44105e+09 1.44112e+09 1
001 086 2 1 1.44368e+09 1.44392e+09 1.44494e+09 1.44505e+09 0
001 087 2 0 1.46497e+09 1.46522e+09 1.46624e+09 1.46654e+09 0
000 088 2 0 1.52021e+09 1.52048e+09 1.5215e+09 1.52158e+09 1
000 089 2 0 1.53321e+09 1.53346e+09 1.53448e+09 1.53566e+09 1
000 090 2 1 1.54381e+09 1.54407e+09 1.54509e+09 1.54541e+09 1
001 091 2 1 1.54841e+09 1.54866e+09 1.54968e+09 1.55067e+09 0
001 092 1 1 1.57553e+09 1.5758e+09 1.57681e+09 1.57878e+09 0
000 093 1 0 1.59249e+09 1.59274e+09 1.59376e+09 1.59524e+09 1
001 094 1 0 1.60623e+09 1.60647e+09 1.60749e+09 1.60789e+09 0
001 095 2 0 1.6152e+09 1.61547e+09 1.61649e+09 1.61675e+09 0
000 096 2 0 1.62515e+09 1.6254e+09 1.62642e+09 1.62648e+09 1
000 097 2 0 1.63373e+09 1.63397e+09 1.63499e+09 1.63504e+09 1
000 098 2 0 1.65202e+09 1.65226e+09 1.65328e+09 1.65331e+09 1
000 099 2 1 1.67214e+09 1.6724e+09 1.67342e+09 1.67343e+09 0
001 100 1 0 1.67716e+09 1.6774e+09 1.67842e+09 1.67917e+09 0
001 101 2 0 1.68487e+09 1.68513e+09 1.68615e+09 1.69081e+09 0
000 102 2 0 1.70921e+09 1.70946e+09 1.71048e+09 1.71089e+09 1
000 103 2 1 1.72084e+09 1.72109e+09 1.72211e+09 1.72247e+09 1
001 104 1 0 1.72712e+09 1.72737e+09 1.72839e+09 1.73026e+09 0
001 105 1 0 1.73277e+09 1.73302e+09 1.73404e+09 1.74795e+09 0
001 106 2 0 1.7507e+09 1.75095e+09 1.75197e+09 1.75805e+09 0
000 107 2 0 1.76546e+09 1.76571e+09 1.76673e+09 1.76746e+09 1
000 108 2 1 1.77837e+09 1.77862e+09 1.77964e+09 1.78128e+09 1
001 109 1 0 1.78402e+09 1.78427e+09 1.78529e+09 1.78615e+09 0
001 110 2 0 1.80663e+09 1.80688e+09 1.8079e+09 1.80899e+09 0
000 111 2 0 1.81708e+09 1.81733e+09 1.81835e+09 1.82026e+09 1
000 112 2 1 1.83062e+09 1.83087e+09 1.83189e+09 1.83191e+09 1
001 113 2 0 1.83905e+09 1.8393e+09 1.84032e+09 1.8408e+09 0
000 114 2 0 1.85121e+09 1.85147e+09 1.85249e+09 1.85305e+09 1
000 115 2 0 1.86813e+09 1.8684e+09 1.86942e+09 1.86973e+09 1
000 116 2 1 1.87937e+09 1.87962e+09 1.88064e+09 1.88065e+09 1
001 117 2 1 1.88403e+09 1.88428e+09 1.8853e+09 1.88987e+09 0
001 118 1 0 1.90899e+09 1.90924e+09 1.91026e+09 1.91207e+09 0
001 119 2 0 1.92168e+09 1.92194e+09 1.92296e+09 1.92916e+09 0
000 120 2 0 1.94048e+09 1.94073e+09 1.94175e+09 1.94177e+09 1
000 121 2 0 1.9508e+09 1.95105e+09 1.95207e+09 1.95277e+09 1
000 122 2 0 1.96255e+09 1.9628e+09 1.96382e+09 1.97043e+09 1
000 123 1 1 1.97973e+09 1.97998e+09 1.981e+09 1.98295e+09 0
000 124 1 1 1.9947e+09 1.99496e+09 1.99598e+09 1.99899e+09 0
000 125 1 0 2.01532e+09 2.01558e+09 2.01659e+09 2.01662e+09 0
001 126 1 0 2.0491e+09 2.04935e+09 2.05037e+09 2.0509e+09 0
001 127 1 0 2.06372e+09 2.06398e+09 2.065e+09 2.06538e+09 0
001 128 1 0 2.08292e+09 2.08319e+09 2.0842e+09 2.08471e+09 0
001 129 1 1 2.10348e+09 2.10373e+09 2.10475e+09 2.10478e+09 0
000 130 1 0 2.16911e+09 2.16937e+09 2.17039e+09 2.17271e+09 1
001 131 1 0 2.1797e+09 2.17997e+09 2.18098e+09 2.18103e+09 0
001 132 1 0 2.19635e+09 2.1966e+09 2.19762e+09 2.19767e+09 0
001 133 1 0 2.21246e+09 2.21272e+09 2.21374e+09 2.21389e+09 0
001 134 2 0 2.22655e+09 2.22682e+09 2.22783e+09 2.22916e+09 0
000 135 2 0 2.2533e+09 2.25356e+09 2.25458e+09 2.2546e+09 1
000 136 2 0 2.26505e+09 2.2653e+09 2.26632e+09 2.26944e+09 1
000 137 2 0 2.27829e+09 2.27854e+09 2.27956e+09 2.27974e+09 1
000 138 2 1 2.28736e+09 2.2876e+09 2.28862e+09 2.28877e+09 0
001 139 1 0 2.29435e+09 2.29461e+09 2.29563e+09 2.29654e+09 0
001 140 1 0 2.32857e+09 2.32882e+09 2.32984e+09 2.33095e+09 0
001 141 2 1 2.33363e+09 2.33389e+09 2.3349e+09 2.33537e+09 0
001 142 2 0 2.35311e+09 2.35337e+09 2.35439e+09 2.35579e+09 0
000 143 2 0 2.37347e+09 2.37372e+09 2.37474e+09 2.37503e+09 1
000 144 2 0 2.38558e+09 2.38584e+09 2.38686e+09 2.38787e+09 1
000 145 2 0 2.40962e+09 2.40987e+09 2.41089e+09 2.4118e+09 1
000 146 2 0 2.42441e+09 2.42467e+09 2.42568e+09 2.4282e+09 0
000 147 1 0 2.46415e+09 2.46442e+09 2.46544e+09 2.46634e+09 0
001 148 2 0 2.47227e+09 2.47253e+09 2.47355e+09 2.47528e+09 0
000 149 2 0 2.49543e+09 2.4957e+09 2.49672e+09 2.49752e+09 1
000 150 2 1 2.51307e+09 2.51333e+09 2.51435e+09 2.51623e+09 1
001 151 1 0 2.54914e+09 2.54939e+09 2.55041e+09 2.55114e+09 0
001 152 2 0 2.57634e+09 2.57661e+09 2.57763e+09 2.57939e+09 0
000 153 2 0 2.58986e+09 2.59012e+09 2.59114e+09 2.5941e+09 1
000 154 2 0 2.61794e+09 2.61819e+09 2.61921e+09 2.62216e+09 1
000 155 2 0 2.63097e+09 2.63122e+09 2.63224e+09 2.63275e+09 1
000 156 1 0 2.64006e+09 2.64032e+09 2.64134e+09 2.64175e+09 0
001 157 1 0 2.65834e+09 2.65859e+09 2.65961e+09 2.66113e+09 0
001 158 2 1 2.67538e+09 2.67563e+09 2.67665e+09 2.6775e+09 0
001 159 2 1 2.6816e+09 2.68186e+09 2.68287e+09 2.68394e+09 0
001 160 2 0 2.69437e+09 2.69462e+09 2.69564e+09 2.69671e+09 0
000 161 2 0 2.7041e+09 2.70437e+09 2.70539e+09 2.70692e+09 1
000 162 2 0 2.71395e+09 2.7142e+09 2.71522e+09 2.71618e+09 1
000 163 2 1 2.75257e+09 2.75283e+09 2.75384e+09 2.75452e+09 1
001 164 1 0 2.78877e+09 2.78901e+09 2.79003e+09 2.7901e+09 0
001 165 2 0 2.79379e+09 2.79405e+09 2.79507e+09 2.81866e+09 0
000 166 2 1 2.83125e+09 2.83151e+09 2.83252e+09 2.83255e+09 1
001 167 2 0 2.8613e+09 2.86155e+09 2.86257e+09 2.86312e+09 0
000 168 2 0 2.89143e+09 2.89169e+09 2.89271e+09 2.89787e+09 1
000 169 2 0 2.90591e+09 2.90617e+09 2.90719e+09 2.90733e+09 1
000 170 2 0 2.91979e+09 2.92004e+09 2.92106e+09 2.92214e+09 1
000 171 2 0 2.94477e+09 2.94502e+09 2.94604e+09 2.94713e+09 0
000 172 2 0 2.98528e+09 2.98554e+09 2.98656e+09 2.98732e+09 0
000 173 1 1 2.99774e+09 2.99799e+09 2.99901e+09 2.99971e+09 0
000 174 1 0 3.01344e+09 3.01369e+09 3.01471e+09 3.01479e+09 0
001 175 2 1 3.02335e+09 3.0236e+09 3.02462e+09 3.02726e+09 0
001 176 1 0 3.03883e+09 3.03909e+09 3.04011e+09 3.04164e+09 0
001 177 2 0 3.04407e+09 3.04433e+09 3.04535e+09 3.05144e+09 0
000 178 2 0 3.06131e+09 3.06156e+09 3.06258e+09 3.0631e+09 1
000 179 2 1 3.07339e+09 3.07365e+09 3.07467e+09 3.07519e+09 1
001 180 1 0 3.10515e+09 3.1054e+09 3.10642e+09 3.10764e+09 0
001 181 2 0 3.12407e+09 3.12432e+09 3.12534e+09 3.12589e+09 0
000 182 2 1 3.14103e+09 3.14129e+09 3.1423e+09 3.14274e+09 1
001 183 1 1 3.14994e+09 3.1502e+09 3.15122e+09 3.16608e+09 0
000 184 1 0 3.18033e+09 3.18058e+09 3.1816e+09 3.18167e+09 1
001 185 2 0 3.21294e+09 3.21319e+09 3.21421e+09 3.21674e+09 0
000 186 2 0 3.23852e+09 3.23878e+09 3.2398e+09 3.24202e+09 1
000 187 2 0 3.27324e+09 3.27349e+09 3.27451e+09 3.27454e+09 1
000 188 2 0 3.28628e+09 3.28654e+09 3.28756e+09 3.288e+09 1
000 189 1 1 3.29969e+09 3.29995e+09 3.30096e+09 3.30099e+09 0
000 190 1 1 3.32447e+09 3.32473e+09 3.32575e+09 3.33313e+09 0
000 191 1 1 3.34088e+09 3.34113e+09 3.34215e+09 3.3423e+09 0
000 192 2 0 3.35023e+09 3.35049e+09 3.3515e+09 3.35181e+09 0
000 193 2 1 3.35915e+09 3.35941e+09 3.36043e+09 3.36079e+09 0
001 194 2 1 3.38274e+09 3.383e+09 3.38402e+09 3.38423e+09 0
001 195 2 0 3.39008e+09 3.39032e+09 3.39134e+09 3.39358e+09 0
000 196 2 0 3.4122e+09 3.41246e+09 3.41348e+09 3.42407e+09 1
000 197 2 1 3.43189e+09 3.43214e+09 3.43316e+09 3.43366e+09 1
001 198 1 0 3.43669e+09 3.43695e+09 3.43796e+09 3.43969e+09 0
001 199 1 0 3.45208e+09 3.45235e+09 3.45336e+09 3.45364e+09 0
001 200 2 0 3.47151e+09 3.47176e+09 3.47278e+09 3.47297e+09 0
000 201 2 0 3.48231e+09 3.48257e+09 3.48358e+09 3.48513e+09 1
000 202 2 1 3.50008e+09 3.50034e+09 3.50136e+09 3.50195e+09 1
001 203 2 0 3.50941e+09 3.50967e+09 3.51069e+09 3.51165e+09 0
000 204 2 0 3.52043e+09 3.52068e+09 3.5217e+09 3.52491e+09 1
000 205 2 1 3.53547e+09 3.53572e+09 3.53674e+09 3.53758e+09 1
001 206 1 1 3.54159e+09 3.54184e+09 3.54286e+09 3.54303e+09 0
000 207 1 1 3.57904e+09 3.57934e+09 3.58036e+09 3.5823e+09 1
000 208 1 0 3.59333e+09 3.59359e+09 3.59461e+09 3.59696e+09 1
001 209 2 1 3.59953e+09 3.59978e+09 3.60079e+09 3.6041e+09 0
001 210 2 0 3.61568e+09 3.61594e+09 3.61695e+09 3.61831e+09 0
000 211 2 1 3.62573e+09 3.62599e+09 3.62701e+09 3.62933e+09 1
001 212 1 1 3.63442e+09 3.63467e+09 3.63569e+09 3.64018e+09 0
000 213 1 1 3.66614e+09 3.66639e+09 3.66741e+09 3.66775e+09 1
000 214 1 1 3.67498e+09 3.67523e+09 3.67625e+09 3.67652e+09 1
000 215 1 1 3.68494e+09 3.6852e+09 3.68622e+09 3.68827e+09 1
000 216 1 0 3.69557e+09 3.69583e+09 3.69685e+09 3.69704e+09 0
001 217 2 1 3.70249e+09 3.70274e+09 3.70376e+09 3.70479e+09 0
001 218 2 1 3.71885e+09 3.71911e+09 3.72013e+09 3.72109e+09 0
001 219 1 1 3.7405e+09 3.74074e+09 3.74176e+09 3.74302e+09 0
000 220 1 1 3.75951e+09 3.75975e+09 3.76077e+09 3.76109e+09 1
000 221 1 0 3.77528e+09 3.77553e+09 3.77654e+09 3.77664e+09 1
001 222 1 0 3.78056e+09 3.78081e+09 3.78183e+09 3.78364e+09 0
001 223 2 0 3.79061e+09 3.79085e+09 3.79187e+09 3.80129e+09 0
000 224 2 0 3.8086e+09 3.80886e+09 3.80988e+09 3.81124e+09 1
000 225 2 0 3.82009e+09 3.82034e+09 3.82136e+09 3.82936e+09 1
000 226 2 0 3.83807e+09 3.83832e+09 3.83934e+09 3.84534e+09 1
000 227 1 0 3.85656e+09 3.85682e+09 3.85784e+09 3.86059e+09 0
001 228 2 1 3.86478e+09 3.86504e+09 3.86605e+09 3.86659e+09 0
001 229 1 1 3.87397e+09 3.87422e+09 3.87524e+09 3.88204e+09 0
000 230 1 0 3.88938e+09 3.88965e+09 3.89067e+09 3.89243e+09 1
001 231 2 0 3.90342e+09 3.90367e+09 3.90469e+09 3.90554e+09 0
000 232 2 0 3.91264e+09 3.91293e+09 3.91395e+09 3.91504e+09 1
000 233 2 1 3.92315e+09 3.92341e+09 3.92442e+09 3.92496e+09 1
001 234 1 0 3.9448e+09 3.94505e+09 3.94607e+09 3.94752e+09 0
001 235 1 0 3.95107e+09 3.95132e+09 3.95234e+09 3.95488e+09 0
001 236 2 1 3.95756e+09 3.95782e+09 3.95884e+09 3.95949e+09 0
001 237 2 0 3.97636e+09 3.97662e+09 3.97764e+09 3.98004e+09 0
000 238 2 0 3.9933e+09 3.99355e+09 3.99457e+09 3.99529e+09 1
000 239 2 1 4.00405e+09 4.00432e+09 4.00533e+09 4.00864e+09 1
001 240 2 1 4.02041e+09 4.02067e+09 4.02169e+09 4.02231e+09 0
001 241 2 0 4.02988e+09 4.03013e+09 4.03115e+09 4.03147e+09 0
000 242 2 0 4.04205e+09 4.04231e+09 4.04333e+09 4.04538e+09 1
000 243 2 0 4.05277e+09 4.05302e+09 4.05404e+09 4.05411e+09 1
000 244 2 1 4.06774e+09 4.06799e+09 4.06901e+09 4.07122e+09 1
001 245 2 1 4.07409e+09 4.07435e+09 4.07537e+09 4.08555e+09 0
001 246 2 1 4.08796e+09 4.08823e+09 4.08924e+09 4.09099e+09 0
001 247 2 1 4.09533e+09 4.09559e+09 4.0966e+09 4.09695e+09 0
001 248 1 1 4.10116e+09 4.10142e+09 4.10244e+09 4.10959e+09 0
000 249 1 0 4.1176e+09 4.11786e+09 4.11888e+09 4.12949e+09 1
001 250 2 0 4.13694e+09 4.13721e+09 4.13823e+09 4.13878e+09 0
000 251 2 0 4.14719e+09 4.14744e+09 4.14846e+09 4.15202e+09 1
000 252 2 0 4.15934e+09 4.15959e+09 4.16061e+09 4.16473e+09 1
000 253 2 0 4.17237e+09 4.17264e+09 4.17366e+09 4.17676e+09 1
000 254 2 1 4.18746e+09 4.18772e+09 4.18873e+09 4.19188e+09 0
001 255 1 0 4.19504e+09 4.19529e+09 4.19631e+09 4.1971e+09 0
001 256 1 0 4.206e+09 4.20627e+09 4.20729e+09 4.20878e+09 0
001 257 1 1 4.21857e+09 4.21882e+09 4.21984e+09 4.2199e+09 0
000 258 1 0 4.22965e+09 4.22991e+09 4.23093e+09 4.23417e+09 1
001 259 1 0 4.23658e+09 4.23683e+09 4.23785e+09 4.24515e+09 0
001 260 1 1 4.24888e+09 4.24913e+09 4.25015e+09 4.254e+09 0
000 261 1 0 4.26717e+09 4.26743e+09 4.26845e+09 4.27065e+09 1
001 262 1 0 4.27516e+09 4.27541e+09 4.27643e+09 4.29071e+09 0
001 263 1 1 1.26158e+06 1.52032e+06 2.53926e+06 3.53218e+06 0
000 264 1 0 1.08216e+07 1.10716e+07 1.20905e+07 1.4735e+07 1
001 265 1 0 1.75616e+07 1.78222e+07 1.88411e+07 2.20696e+07 0
001 266 2 0 2.7689e+07 2.79408e+07 2.89598e+07 3.21292e+07 0
000 267 2 0 4.13573e+07 4.16166e+07 4.26355e+07 4.51142e+07 1
000 268 2 1 5.34395e+07 5.3703e+07 5.47219e+07 5.48965e+07 1
001 269 1 0 5.75181e+07 5.77804e+07 5.87993e+07 6.5597e+07 0
001 270 2 0 6.89296e+07 6.91848e+07 7.02038e+07 7.13669e+07 0
000 271 2 1 8.20214e+07 8.22842e+07 8.33032e+07 8.43261e+07 1
001 272 2 0 8.67349e+07 8.69855e+07 8.80045e+07 9.17005e+07 0
000 273 2 0 1.00123e+08 1.00376e+08 1.01395e+08 1.02253e+08 1
000 274 2 0 1.11166e+08 1.11421e+08 1.1244e+08 1.16235e+08 1
000 275 2 1 1.23342e+08 1.23601e+08 1.2462e+08 1.25388e+08 1
001 276 2 1 1.30202e+08 1.30456e+08 1.31475e+08 1.32213e+08 0
001 277 2 0 1.35114e+08 1.35367e+08 1.36386e+08 1.39119e+08 0
000 278 2 1 1.46345e+08 1.46595e+08 1.47614e+08 1.48681e+08 1
001 279 2 0 1.51175e+08 1.51436e+08 1.52454e+08 1.55384e+08 0
000 280 2 1 1.63073e+08 1.63328e+08 1.64347e+08 1.70274e+08 1
001 281 1 0 1.74281e+08 1.74535e+08 1.75554e+08 1.77052e+08 0
001 282 1 1 1.81765e+08 1.82032e+08 1.8305e+08 1.85018e+08 0
000 283 1 1 1.94078e+08 1.94327e+08 1.95346e+08 1.96689e+08 1
000 284 1 1 2.04017e+08 2.04274e+08 2.05293e+08 2.10953e+08 1
000 285 1 1 2.19323e+08 2.19589e+08 2.20608e+08 2.2145e+08 1
000 286 2 0 2.29056e+08 2.29318e+08 2.30337e+08 2.30764e+08 0
000 287 2 0 2.38091e+08 2.3835e+08 2.39369e+08 2.40495e+08 0
000 288 1 0 2.59315e+08 2.59571e+08 2.60589e+08 2.63802e+08 0
001 289 1 0 2.67522e+08 2.67771e+08 2.6879e+08 2.83498e+08 0
001 290 2 1 2.87258e+08 2.87516e+08 2.88535e+08 2.90108e+08 0
001 291 2 1 2.92725e+08 2.92983e+08 2.94002e+08 3.01131e+08 0
001 292 1 0 3.04671e+08 3.04935e+08 3.05954e+08 3.12341e+08 0
001 293 2 0 3.16263e+08 3.16509e+08 3.17528e+08 3.25228e+08 0
000 294 2 0 3.34422e+08 3.34676e+08 3.35695e+08 3.36606e+08 1
000 295 2 0 3.44088e+08 3.44352e+08 3.45371e+08 3.47867e+08 1
000 296 2 0 3.55012e+08 3.55272e+08 3.56291e+08 3.6057e+08 1
000 297 2 0 3.67929e+08 3.68185e+08 3.69204e+08 3.7039e+08 0
000 298 1 0 3.84806e+08 3.85056e+08 3.86074e+08 3.86183e+08 0
001 299 2 0 3.93729e+08 3.93987e+08 3.95006e+08 4.05941e+08 0
000 300 2 0 4.13663e+08 4.13927e+08 4.14946e+08 4.19833e+08 1
000 301 2 0 4.26914e+08 4.27174e+08 4.28193e+08 4.32227e+08 1
000 302 2 1 4.41591e+08 4.41851e+08 4.4287e+08 4.74322e+08 1
001 303 2 0 4.77352e+08 4.77603e+08 4.78622e+08 4.88558e+08 0
000 304 2 0 4.95949e+08 4.96199e+08 4.97218e+08 5.68422e+08 1
000 305 2 0 5.77792e+08 5.7805e+08 5.79069e+08 5.80461e+08 1
000 306 2 0 5.87937e+08 5.8819e+08 5.89209e+08 5.92816e+08 1
000 307 1 0 6.01924e+08 6.02184e+08 6.03203e+08 6.07665e+08 0
001 308 1 1 6.225e+08 6.22757e+08 6.23776e+08 6.26582e+08 0
000 309 1 0 6.37286e+08 6.37555e+08 6.38574e+08 6.40662e+08 1
001 310 1 0 6.44393e+08 6.44644e+08 6.45662e+08 6.47501e+08 0
001 311 2 1 6.58611e+08 6.58867e+08 6.59886e+08 6.60539e+08 0
001 312 2 0 6.6414e+08 6.64403e+08 6.65422e+08 6.65689e+08 0
000 313 2 1 6.76236e+08 6.76491e+08 6.7751e+08 6.78343e+08 1
001 314 1 0 6.81519e+08 6.81779e+08 6.82797e+08 6.89076e+08 0
001 315 2 0 6.98122e+08 6.98384e+08 6.99403e+08 7.0048e+08 0
000 316 2 0 7.08029e+08 7.0829e+08 7.09308e+08 7.10978e+08 1
000 317 2 1 7.1881e+08 7.1906e+08 7.20079e+08 7.23843e+08 1
001 318 1 0 7.26568e+08 7.26826e+08 7.27845e+08 7.31927e+08 0
001 319 1 0 7.53398e+08 7.53648e+08 7.54667e+08 7.55365e+08 0
001 320 1 1 7.58778e+08 7.59038e+08 7.60057e+08 7.67009e+08 0
000 321 1 0 7.74349e+08 7.74602e+08 7.75621e+08 7.77586e+08 1
001 322 1 0 7.84155e+08 7.84415e+08 7.85434e+08 7.88096e+08 0
001 323 2 0 7.92188e+08 7.92451e+08 7.9347e+08 8.11429e+08 0
000 324 2 0 8.19289e+08 8.19546e+08 8.20565e+08 8.23253e+08 1
000 325 2 0 8.30503e+08 8.30763e+08 8.31781e+08 8.3245e+08 1
000 326 2 0 8.39742e+08 8.39996e+08 8.41015e+08 8.80663e+08 1
000 327 1 0 8.89634e+08 8.8989e+08 8.90909e+08 8.94364e+08 0
001 328 1 1 8.96963e+08 8.9722e+08 8.98239e+08 9.07282e+08 0
000 329 1 1 9.14354e+08 9.14608e+08 9.15627e+08 9.31081e+08 1
000 330 1 0 9.38203e+08 9.38466e+08 9.39485e+08 9.46412e+08 1
001 331 2 0 9.49081e+08 9.49341e+08 9.5036e+08 9.50969e+08 0
000 332 2 0 9.58611e+08 9.58865e+08 9.59884e+08 9.61916e+08 1
000 333 2 1 9.69735e+08 9.69998e+08 9.71017e+08 9.72631e+08 1
001 334 1 1 9.78092e+08 9.78357e+08 9.79376e+08 9.79691e+08 0
000 335 1 0 9.95601e+08 9.95865e+08 9.96884e+08 1.01206e+09 1
001 336 1 1 1.01524e+09 1.0155e+09 1.01652e+09 1.01962e+09 0
000 337 1 0 1.02875e+09 1.02901e+09 1.03003e+09 1.03697e+09 1
001 338 2 0 1.04082e+09 1.04108e+09 1.0421e+09 1.04235e+09 0
000 339 2 0 1.05727e+09 1.05753e+09 1.05855e+09 1.06537e+09 1
000 340 2 0 1.07286e+09 1.07312e+09 1.07414e+09 1.07869e+09 1
000 341 2 0 1.08775e+09 1.088e+09 1.08902e+09 1.11269e+09 1
000 342 2 0 1.12002e+09 1.12028e+09 1.1213e+09 1.12503e+09 0
000 343 2 0 1.13257e+09 1.13284e+09 1.13385e+09 1.14683e+09 0
000 344 1 0 1.1543e+09 1.15455e+09 1.15557e+09 1.1569e+09 0
001 345 1 0 1.15941e+09 1.15967e+09 1.16069e+09 1.16787e+09 0
001 346 2 0 1.1705e+09 1.17075e+09 1.17177e+09 1.17939e+09 0
000 347 2 0 1.18673e+09 1.18698e+09 1.188e+09 1.18809e+09 1
000 348 2 0 1.19554e+09 1.19579e+09 1.19681e+09 1.19714e+09 1
000 349 2 0 1.20426e+09 1.20451e+09 1.20553e+09 1.21369e+09 1
000 350 2 0 1.22483e+09 1.22508e+09 1.2261e+09 1.2315e+09 0
000 351 1 0 1.23894e+09 1.2392e+09 1.24022e+09 1.24444e+09 0
001 352 1 0 1.24701e+09 1.24727e+09 1.24829e+09 1.25317e+09 0
001 353 1 1 1.25566e+09 1.25592e+09 1.25693e+09 1.26455e+09 0
000 354 1 0 1.27371e+09 1.27398e+09 1.27499e+09 1.27583e+09 1
001 355 1 1 1.28061e+09 1.28086e+09 1.28187e+09 1.28513e+09 0
000 356 1 1 1.29967e+09 1.29992e+09 1.30094e+09 1.30095e+09 1
000 357 1 0 1.30857e+09 1.30883e+09 1.30984e+09 1.31299e+09 1
001 358 2 0 1.31548e+09 1.31573e+09 1.31675e+09 1.33015e+09 0
000 359 2 0 1.3374e+09 1.33765e+09 1.33867e+09 1.33889e+09 1
000 360 2 0 1.34594e+09 1.3462e+09 1.34722e+09 1.34799e+09 1
000 361 2 1 1.36476e+09 1.36501e+09 1.36603e+09 1.36687e+09 1
001 362 1 1 1.38988e+09 1.39014e+09 1.39116e+09 1.39146e+09 0
000 363 1 0 1.40343e+09 1.40368e+09 1.4047e+09 1.40474e+09 1
001 364 2 1 1.40792e+09 1.40817e+09 1.40919e+09 1.4144e+09 0
001 365 2 1 1.4444e+09 1.44466e+09 1.44568e+09 1.44578e+09 0
001 366 2 0 1.46468e+09 1.46493e+09 1.46595e+09 1.46819e+09 0
000 367 2 0 1.48662e+09 1.48687e+09 1.48789e+09 1.49017e+09 1
000 368 2 0 1.50038e+09 1.50064e+09 1.50166e+09 1.50207e+09 1
000 369 2 0 1.51008e+09 1.51033e+09 1.51135e+09 1.5128e+09 1
000 370 1 1 1.52664e+09 1.52689e+09 1.52791e+09 1.52889e+09 0
000 371 2 0 1.55296e+09 1.55323e+09 1.55424e+09 1.55642e+09 0
000 372 2 0 1.56616e+09 1.56642e+09 1.56744e+09 1.56895e+09 0
000 373 2 0 1.57849e+09 1.57875e+09 1.57977e+09 1.58007e+09 0
000 374 2 0 1.58754e+09 1.5878e+09 1.58882e+09 1.58887e+09 0
000 375 2 0 1.59868e+09 1.59894e+09 1.59996e+09 1.60092e+09 0
000 376 1 0 1.60848e+09 1.60873e+09 1.60975e+09 1.61138e+09 0
001 377 1 0 1.62297e+09 1.62323e+09 1.62425e+09 1.62499e+09 0
001 378 1 1 1.64988e+09 1.65014e+09 1.65116e+09 1.65119e+09 0
000 379 1 0 1.66099e+09 1.66124e+09 1.66226e+09 1.66543e+09 1
001 380 2 1 1.69087e+09 1.69113e+09 1.69215e+09 1.69229e+09 0
001 381 2 1 1.69605e+09 1.6963e+09 1.69732e+09 1.69773e+09 0
001 382 1 1 1.7156e+09 1.71587e+09 1.71689e+09 1.71692e+09 0
000 383 1 0 1.7475e+09 1.74775e+09 1.74877e+09 1.75041e+09 1
001 384 1 1 1.75323e+09 1.75348e+09 1.7545e+09 1.76081e+09 0
000 385 1 0 1.77411e+09 1.77437e+09 1.77538e+09 1.77845e+09 1
001 386 1 1 1.78411e+09 1.78436e+09 1.78538e+09 1.78799e+09 0
000 387 1 0 1.80255e+09 1.8028e+09 1.80382e+09 1.80528e+09 1
001 388 2 1 1.80876e+09 1.80901e+09 1.81003e+09 1.81409e+09 0
001 389 2 1 1.8169e+09 1.81715e+09 1.81817e+09 1.81882e+09 0
001 390 2 1 1.82125e+09 1.8215e+09 1.82252e+09 1.82264e+09 0
001 391 1 0 1.83027e+09 1.83053e+09 1.83155e+09 1.83165e+09 0
001 392 1 1 1.83438e+09 1.83465e+09 1.83567e+09 1.83637e+09 0
000 393 1 0 1.84341e+09 1.84365e+09 1.84467e+09 1.84478e+09 1
001 394 2 1 1.84735e+09 1.84761e+09 1.84863e+09 1.84868e+09 0
001 395 1 0 1.85212e+09 1.85238e+09 1.8534e+09 1.85361e+09 0
001 396 1 0 1.87116e+09 1.87142e+09 1.87243e+09 1.87293e+09 0
001 397 1 1 1.88458e+09 1.88484e+09 1.88586e+09 1.88698e+09 0
000 398 1 0 1.89439e+09 1.89464e+09 1.89566e+09 1.89853e+09 1
001 399 1 0 1.90912e+09 1.90938e+09 1.9104e+09 1.91082e+09 0
001 400 2 0 1.91422e+09 1.91448e+09 1.9155e+09 1.91662e+09 0
000 401 2 1 1.9241e+09 1.92436e+09 1.92538e+09 1.92842e+09 1
001 402 1 1 1.9314e+09 1.93166e+09 1.93268e+09 1.93453e+09 0
000 403 1 0 1.94592e+09 1.94617e+09 1.94719e+09 1.94832e+09 1
001 404 2 0 1.97873e+09 1.97898e+09 1.98e+09 1.98072e+09 0
000 405 2 0 1.98853e+09 1.98879e+09 1.98981e+09 1.99123e+09 1
000 406 2 0 2.02111e+09 2.02137e+09 2.02239e+09 2.02246e+09 1
000 407 2 0 2.0571e+09 2.05737e+09 2.05838e+09 2.0586e+09 1
000 408 2 1 2.07561e+09 2.07586e+09 2.07688e+09 2.08153e+09 0
001 409 2 1 2.08657e+09 2.08681e+09 2.08783e+09 2.08824e+09 0
001 410 2 0 2.1016e+09 2.10185e+09 2.10287e+09 2.10399e+09 0
000 411 2 0 2.11276e+09 2.11302e+09 2.11404e+09 2.11472e+09 1
000 412 2 0 2.12272e+09 2.12298e+09 2.12399e+09 2.12485e+09 1
000 413 2 1 2.13216e+09 2.13242e+09 2.13344e+09 2.14124e+09 1
001 414 1 1 2.15997e+09 2.16023e+09 2.16125e+09 2.16263e+09 0
000 415 1 1 2.17211e+09 2.17237e+09 2.17339e+09 2.17446e+09 1
000 416 1 0 2.18461e+09 2.18487e+09 2.18589e+09 2.18817e+09 1
001 417 1 1 2.20221e+09 2.20248e+09 2.2035e+09 2.20725e+09 0
000 418 1 1 2.21935e+09 2.2196e+09 2.22062e+09 2.22172e+09 1
000 419 1 0 2.23476e+09 2.23501e+09 2.23603e+09 2.23662e+09 1
001 420 2 1 2.24764e+09 2.24789e+09 2.24891e+09 2.25059e+09 0
001 421 1 0 2.26267e+09 2.26292e+09 2.26394e+09 2.26409e+09 0
001 422 1 0 2.27896e+09 2.27921e+09 2.28023e+09 2.28128e+09 0
001 423 2 1 2.29369e+09 2.29394e+09 2.29495e+09 2.29623e+09 0
001 424 1 0 2.32885e+09 2.3291e+09 2.33012e+09 2.33285e+09 0
001 425 2 1 2.33541e+09 2.33565e+09 2.33667e+09 2.33763e+09 0
001 426 1 0 2.35909e+09 2.35935e+09 2.36037e+09 2.36276e+09 0
001 427 1 1 2.38485e+09 2.3851e+09 2.38612e+09 2.38621e+09 0
000 428 1 0 2.40024e+09 2.40051e+09 2.40153e+09 2.40283e+09 1
001 429 2 0 2.40607e+09 2.40633e+09 2.40735e+09 2.40746e+09 0
000 430 2 0 2.41787e+09 2.41812e+09 2.41914e+09 2.41964e+09 1
000 431 2 0 2.44207e+09 2.44234e+09 2.44336e+09 2.44437e+09 1
000 432 2 0 2.45542e+09 2.45568e+09 2.4567e+09 2.46635e+09 1
000 433 2 0 2.48402e+09 2.48429e+09 2.48531e+09 2.48723e+09 0
000 434 1 0 2.49827e+09 2.49853e+09 2.49955e+09 2.50262e+09 0
001 435 2 0 2.51945e+09 2.5197e+09 2.52072e+09 2.52078e+09 0
000 436 2 0 2.5369e+09 2.53716e+09 2.53818e+09 2.54479e+09 1
000 437 2 0 2.55196e+09 2.55223e+09 2.55325e+09 2.55396e+09 1
000 438 2 0 2.56357e+09 2.56383e+09 2.56485e+09 2.56692e+09 1
000 439 2 1 2.57763e+09 2.5779e+09 2.57892e+09 2.58126e+09 0
001 440 1 0 2.60087e+09 2.60112e+09 2.60214e+09 2.60216e+09 0
001 441 1 0 2.60475e+09 2.605e+09 2.60602e+09 2.60624e+09 0
001 442 1 0 2.62762e+09 2.62788e+09 2.6289e+09 2.62963e+09 0
001 443 1 1 2.64973e+09 2.64998e+09 2.651e+09 2.65208e+09 0
000 444 1 0 2.65933e+09 2.65958e+09 2.6606e+09 2.66064e+09 1
001 445 2 1 2.66707e+09 2.66733e+09 2.66835e+09 2.66844e+09 0
001 446 1 0 2.67853e+09 2.67879e+09 2.67981e+09 2.68055e+09 0
001 447 2 0 2.70189e+09 2.70214e+09 2.70316e+09 2.70589e+09 0
000 448 2 0 2.71824e+09 2.71849e+09 2.71951e+09 2.72316e+09 1
000 449 2 1 2.73045e+09 2.73071e+09 2.73172e+09 2.75023e+09 1
001 450 1 0 2.76441e+09 2.76466e+09 2.76568e+09 2.77476e+09 0
001 451 2 0 2.79369e+09 2.79395e+09 2.79497e+09 2.79612e+09 0
000 452 2 0 2.80331e+09 2.80357e+09 2.80458e+09 2.81419e+09 1
000 453 2 0 2.83129e+09 2.83153e+09 2.83255e+09 2.83433e+09 1
000 454 2 0 2.84322e+09 2.84347e+09 2.84449e+09 2.84511e+09 1
000 455 1 0 2.85553e+09 2.85579e+09 2.85681e+09 2.85988e+09 0
001 456 1 0 2.86453e+09 2.86479e+09 2.86581e+09 2.86633e+09 0
001 457 1 1 2.86921e+09 2.86947e+09 2.87049e+09 2.87387e+09 0
000 458 1 0 2.89024e+09 2.89049e+09 2.89151e+09 2.89262e+09 1
001 459 1 1 2.89584e+09 2.89609e+09 2.8971e+09 2.90051e+09 0
000 460 1 0 2.90801e+09 2.90826e+09 2.90928e+09 2.90987e+09 1
001 461 1 0 2.92322e+09 2.92348e+09 2.9245e+09 2.92632e+09 0
001 462 1 1 2.93639e+09 2.93664e+09 2.93766e+09 2.93842e+09 0
000 463 1 0 2.94587e+09 2.94612e+09 2.94714e+09 2.96544e+09 1
001 464 2 0 2.96805e+09 2.96831e+09 2.96933e+09 2.97072e+09 0
000 465 2 0 2.9886e+09 2.98886e+09 2.98988e+09 2.99033e+09 1
000 466 2 0 2.9992e+09 2.99946e+09 3.00048e+09 3.00121e+09 1
000 467 2 1 3.00988e+09 3.01013e+09 3.01115e+09 3.01146e+09 1
001 468 2 0 3.031e+09 3.03125e+09 3.03227e+09 3.03424e+09 0
000 469 2 0 3.04961e+09 3.04987e+09 3.05089e+09 3.05093e+09 1
000 470 2 0 3.06068e+09 3.06093e+09 3.06195e+09 3.07361e+09 1
000 471 2 0 3.08084e+09 3.0811e+09 3.08212e+09 3.08596e+09 1
000 472 2 0 3.09524e+09 3.0955e+09 3.09652e+09 3.09687e+09 0
000 473 2 0 3.11292e+09 3.11317e+09 3.11419e+09 3.11509e+09 0
000 474 1 0 3.12309e+09 3.12335e+09 3.12437e+09 3.12692e+09 0
001 475 2 0 3.15431e+09 3.15457e+09 3.15558e+09 3.15569e+09 0
000 476 2 0 3.16407e+09 3.16433e+09 3.16534e+09 3.16892e+09 1
000 477 2 0 3.17981e+09 3.18006e+09 3.18108e+09 3.18176e+09 1
000 478 2 1 3.19105e+09 3.19131e+09 3.19233e+09 3.19364e+09 1
001 479 1 1 3.20545e+09 3.20571e+09 3.20673e+09 3.20676e+09 0
000 480 1 0 3.23301e+09 3.23327e+09 3.23428e+09 3.23472e+09 1
001 481 2 1 3.24005e+09 3.24031e+09 3.24133e+09 3.24252e+09 0
001 482 2 0 3.26048e+09 3.26074e+09 3.26176e+09 3.26207e+09 0
000 483 2 0 3.29528e+09 3.29553e+09 3.29655e+09 3.29698e+09 1
000 484 2 1 3.30729e+09 3.30755e+09 3.30857e+09 3.31019e+09 1
001 485 1 0 3.32887e+09 3.32912e+09 3.33014e+09 3.33307e+09 0
001 486 2 0 3.34197e+09 3.34223e+09 3.34325e+09 3.34741e+09 0
000 487 2 1 3.35461e+09 3.35487e+09 3.35589e+09 3.35622e+09 1
001 488 2 1 3.39567e+09 3.39594e+09 3.39696e+09 3.39735e+09 0
001 489 2 1 3.41005e+09 3.4103e+09 3.41132e+09 3.41177e+09 0
001 490 2 1 3.43426e+09 3.43452e+09 3.43554e+09 3.43568e+09 0
001 491 1 0 3.4515e+09 3.45176e+09 3.45278e+09 3.47876e+09 0
001 492 2 1 3.48127e+09 3.48153e+09 3.48254e+09 3.48468e+09 0
001 493 1 1 3.48732e+09 3.48759e+09 3.4886e+09 3.48901e+09 0
000 494 1 0 3.50335e+09 3.50361e+09 3.50463e+09 3.53294e+09 1
001 495 2 1 3.54302e+09 3.54328e+09 3.5443e+09 3.54434e+09 0
001 496 1 1 3.56843e+09 3.56868e+09 3.5697e+09 3.57147e+09 0
000 497 1 0 3.57886e+09 3.57911e+09 3.58013e+09 3.58405e+09 1
001 498 1 1 3.6091e+09 3.60936e+09 3.61038e+09 3.61098e+09 0
000 499 1 0 3.61821e+09 3.61847e+09 3.61949e+09 3.61989e+09 1
001 500 2 0 3.63387e+09 3.63412e+09 3.63514e+09 3.63853e+09 0
000 501 2 0 3.64771e+09 3.64795e+09 3.64897e+09 3.65174e+09 1
000 502 2 1 3.66054e+09 3.66079e+09 3.66181e+09 3.66236e+09 1
001 503 1 1 3.67323e+09 3.67349e+09 3.6745e+09 3.67463e+09 0
000 504 1 0 3.68206e+09 3.68231e+09 3.68333e+09 3.68338e+09 1
001 505 2 0 3.69629e+09 3.69654e+09 3.69756e+09 3.69815e+09 0
000 506 2 1 3.70808e+09 3.70833e+09 3.70934e+09 3.7094e+09 1
001 507 2 1 3.75528e+09 3.75553e+09 3.75655e+09 3.7581e+09 0
001 508 2 0 3.76523e+09 3.76548e+09 3.7665e+09 3.76744e+09 0
000 509 2 0 3.80212e+09 3.80238e+09 3.8034e+09 3.80834e+09 1
000 510 2 1 3.81606e+09 3.81632e+09 3.81734e+09 3.82049e+09 1
001 511 2 1 3.83627e+09 3.83652e+09 3.83754e+09 3.83759e+09 0
001 512 1 0 3.91632e+09 3.91658e+09 3.9176e+09 3.91782e+09 0
001 513 1 0 3.92036e+09 3.92061e+09 3.92163e+09 3.92217e+09 0
001 514 1 1 3.9428e+09 3.94305e+09 3.94407e+09 3.94465e+09 0
000 515 1 0 3.95255e+09 3.9528e+09 3.95381e+09 3.96427e+09 1
001 516 2 1 3.96675e+09 3.96699e+09 3.96801e+09 3.96828e+09 0
001 517 1 1 3.97146e+09 3.97171e+09 3.97273e+09 3.97447e+09 0
000 518 1 1 3.98222e+09 3.98247e+09 3.98349e+09 3.98509e+09 1
000 519 1 0 3.99707e+09 3.99731e+09 3.99833e+09 4.00476e+09 1
001 520 2 1 4.008e+09 4.00824e+09 4.00926e+09 4.0097e+09 0
001 521 1 1 4.01242e+09 4.01267e+09 4.01369e+09 4.01495e+09 0
000 522 1 0 4.02451e+09 4.02476e+09 4.02578e+09 4.02783e+09 1
001 523 2 1 4.05172e+09 4.05201e+09 4.05303e+09 4.05347e+09 0
001 524 1 1 4.05768e+09 4.05793e+09 4.05895e+09 4.05914e+09 0
000 525 1 0 4.06682e+09 4.06707e+09 4.06808e+09 4.06884e+09 1
001 526 1 1 4.07221e+09 4.07247e+09 4.07348e+09 4.07592e+09 0
000 527 1 0 4.08337e+09 4.08362e+09 4.08464e+09 4.08772e+09 1
001 528 1 1 4.09025e+09 4.09051e+09 4.09153e+09 4.09394e+09 0
000 529 1 0 4.10552e+09 4.10577e+09 4.10679e+09 4.10683e+09 1
001 530 2 1 4.10939e+09 4.10964e+09 4.11066e+09 4.11161e+09 0
001 531 2 1 4.11793e+09 4.11818e+09 4.1192e+09 4.12025e+09 0
001 532 1 0 4.13262e+09 4.13288e+09 4.1339e+09 4.14024e+09 0
001 533 1 0 4.14278e+09 4.14304e+09 4.14406e+09 4.14571e+09 0
001 534 1 1 4.14857e+09 4.14882e+09 4.14984e+09 4.14985e+09 0
000 535 1 0 4.15916e+09 4.15942e+09 4.16043e+09 4.17196e+09 1
001 536 2 1 4.17441e+09 4.17467e+09 4.17569e+09 4.18213e+09 0
001 537 1 0 4.19959e+09 4.19985e+09 4.20087e+09 4.20321e+09 0
001 538 2 0 4.2063e+09 4.20654e+09 4.20756e+09 4.20849e+09 0
000 539 2 0 4.22052e+09 4.22077e+09 4.22178e+09 4.2257e+09 1
000 540 2 0 4.23834e+09 4.23859e+09 4.23961e+09 4.2611e+09 1
000 541 2 1 4.26874e+09 4.26899e+09 4.27001e+09 4.27013e+09 1
001 542 2 0 4.27451e+09 4.27477e+09 4.27578e+09 6.76735e+06 0
000 543 2 1 1.40923e+07 1.434e+07 1.53589e+07 1.56126e+07 1
001 544 1 0 2.47562e+07 2.49986e+07 2.60175e+07 2.69789e+07 0
001 545 1 0 4.12129e+07 4.14704e+07 4.24893e+07 4.25457e+07 0
001 546 1 0 7.26057e+07 7.28476e+07 7.38666e+07 7.45918e+07 0
001 547 2 1 8.80005e+07 8.82494e+07 8.92683e+07 8.97575e+07 0
001 548 2 1 9.38363e+07 9.40945e+07 9.51135e+07 9.54025e+07 0
001 549 2 0 9.96926e+07 9.99387e+07 1.00958e+08 1.01541e+08 0
000 550 2 1 1.197e+08 1.19953e+08 1.20972e+08 1.23523e+08 1
001 551 1 0 1.42778e+08 1.43041e+08 1.4406e+08 1.44218e+08 0
001 552 2 0 1.65073e+08 1.65335e+08 1.66354e+08 1.66763e+08 0
000 553 2 0 1.84908e+08 1.85161e+08 1.8618e+08 1.87437e+08 1
000 554 2 0 2.06758e+08 2.07013e+08 2.08032e+08 2.09002e+08 1
000 555 2 0 2.16243e+08 2.16492e+08 2.17511e+08 2.21591e+08 1
000 556 2 0 2.28854e+08 2.29148e+08 2.30167e+08 2.31852e+08 0
000 