trial trialType response stillTime stimOnset stimOffset respTime correctionTrial correct
001 1 0 3.10376e+06 3.37824e+06 4.39715e+06 4.57616e+07 0
001 002 1 1 4.83687e+07 4.86198e+07 4.96387e+07 5.07166e+07 0
000 003 1 0 5.85411e+07 5.87962e+07 5.98151e+07 6.01412e+07 1
001 004 1 0 6.52309e+07 6.54904e+07 6.65093e+07 6.66978e+07 0
001 005 1 0 7.76254e+07 7.78767e+07 7.88956e+07 8.0082e+07 0
001 006 1 0 8.96522e+07 8.99097e+07 9.09286e+07 9.09359e+07 0
001 007 2 0 9.96659e+07 9.992e+07 1.00939e+08 1.01383e+08 0
000 008 2 0 1.09572e+08 1.09826e+08 1.10845e+08 1.10917e+08 1
000 009 2 0 1.31941e+08 1.32193e+08 1.33212e+08 1.38629e+08 1
000 010 2 1 1.45877e+08 1.46124e+08 1.47143e+08 1.50191e+08 1
001 011 1 0 1.57559e+08 1.57816e+08 1.58835e+08 1.69176e+08 0
001 012 1 0 1.74448e+08 1.74701e+08 1.7572e+08 1.83631e+08 0
001 013 1 0 1.89865e+08 1.90115e+08 1.91134e+08 1.95543e+08 0
001 014 1 0 2.04091e+08 2.04336e+08 2.05355e+08 2.249e+08 0
001 015 2 1 2.37487e+08 2.37749e+08 2.38768e+08 2.40773e+08 0
001 016 2 1 2.48063e+08 2.48312e+08 2.49331e+08 2.55834e+08 0
001 017 2 1 2.67221e+08 2.67474e+08 2.68493e+08 2.70992e+08 0
001 018 2 0 2.85146e+08 2.85396e+08 2.86414e+08 2.88083e+08 0
000 019 2 0 2.99052e+08 2.99314e+08 3.00333e+08 3.0093e+08 1
000 020 2 0 3.23971e+08 3.24225e+08 3.25244e+08 3.38906e+08 1
000 021 2 0 3.51268e+08 3.51534e+08 3.52553e+08 3.54715e+08 1
000 022 1 1 4.20851e+08 4.21098e+08 4.22117e+08 4.22705e+08 0
000 023 1 1 4.75695e+08 4.75961e+08 4.7698e+08 4.77031e+08 0
000 024 1 1 4.9643e+08 4.96671e+08 4.9769e+08 5.03619e+08 0
000 025 1 1 5.10773e+08 5.11022e+08 5.12041e+08 5.1537e+08 0
000 026 2 1 5.34193e+08 5.34446e+08 5.35465e+08 5.35726e+08 0
001 027 1 0 5.47811e+08 5.48065e+08 5.49084e+08 5.49338e+08 0
001 028 1 1 5.63129e+08 5.6338e+08 5.64399e+08 5.65473e+08 0
000 029 1 0 5.79071e+08 5.7932e+08 5.80339e+08 5.81431e+08 1
001 030 1 0 6.16043e+08 6.16294e+08 6.17313e+08 6.17433e+08 0
001 031 1 0 6.31213e+08 6.31472e+08 6.32491e+08 6.32945e+08 0
001 032 2 0 6.37763e+08 6.38013e+08 6.39032e+08 6.39163e+08 0
000 033 2 0 6.71315e+08 6.71562e+08 6.72581e+08 6.78432e+08 1
000 034 2 1 7.03438e+08 7.03692e+08 7.04711e+08 7.07377e+08 1
001 035 1 0 7.28035e+08 7.28292e+08 7.29311e+08 7.29932e+08 0
001 036 1 0 7.54098e+08 7.54353e+08 7.55372e+08 7.58109e+08 0
001 037 2 0 8.04196e+08 8.04461e+08 8.0548e+08 8.05694e+08 0
000 038 2 0 8.14038e+08 8.14296e+08 8.15315e+08 8.15485e+08 1
000 039 2 1 8.3032e+08 8.30566e+08 8.31584e+08 8.32748e+08 1
001 040 1 0 8.41722e+08 8.41974e+08 8.42993e+08 8.46745e+08 0
001 041 2 0 9.07238e+08 9.07501e+08 9.0852e+08 9.08576e+08 0
000 042 2 1 9.15781e+08 9.1604e+08 9.17059e+08 9.17779e+08 1
001 043 2 1 9.75356e+08 9.75615e+08 9.76634e+08 9.76893e+08 0
001 044 1 1 1.00702e+09 1.00727e+09 1.00828e+09 1.00923e+09 0
000 045 1 0 1.0191e+09 1.01936e+09 1.02038e+09 1.02047e+09 1
001 046 2 0 1.04039e+09 1.04065e+09 1.04167e+09 1.04183e+09 0
000 047 2 0 1.0491e+09 1.04935e+09 1.05037e+09 1.05054e+09 1
000 048 2 1 1.05765e+09 1.05791e+09 1.05893e+09 1.06099e+09 1
001 049 2 0 1.11907e+09 1.11931e+09 1.12033e+09 1.12145e+09 0
000 050 2 0 1.14061e+09 1.14086e+09 1.14188e+09 1.14193e+09 1
000 051 2 1 1.15289e+09 1.15315e+09 1.15417e+09 1.15418e+09 1
001 052 1 0 1.17346e+09 1.17371e+09 1.17473e+09 1.17587e+09 0
001 053 2 1 1.182e+09 1.18226e+09 1.18328e+09 1.18543e+09 0
001 054 2 0 1.26501e+09 1.26527e+09 1.26629e+09 1.26653e+09 0
000 055 2 0 1.28157e+09 1.28183e+09 1.28285e+09 1.2829e+09 1
000 056 2 0 1.29177e+09 1.29203e+09 1.29305e+09 1.29387e+09 1
000 057 2 0 1.30719e+09 1.30744e+09 1.30846e+09 1.30988e+09 1
000 058 2 0 1.31777e+09 1.31801e+09 1.31903e+09 1.31986e+09 0
000 059 2 1 1.32948e+09 1.32974e+09 1.33076e+09 1.33079e+09 0
001 060 2 0 1.36435e+09 1.3646e+09 1.36562e+09 1.36713e+09 0
000 061 2 0 1.37439e+09 1.37464e+09 1.37565e+09 1.37569e+09 1
000 062 2 0 1.3847e+09 1.38495e+09 1.38597e+09 1.38708e+09 1
000 063 2 0 1.39507e+09 1.39533e+09 1.39635e+09 1.40082e+09 1
000 064 1 0 1.40793e+09 1.40817e+09 1.40919e+09 1.41137e+09 0
001 065 2 0 1.41726e+09 1.41752e+09 1.41854e+09 1.41901e+09 0
000 066 2 1 1.43138e+09 1.43162e+09 1.43264e+09 1.43296e+09 1
001 067 1 0 1.47453e+09 1.47477e+09 1.47579e+09 1.4759e+09 0
001 068 1 0 1.50807e+09 1.50832e+09 1.50934e+09 1.50984e+09 0
001 069 1 0 1.53015e+09 1.5304e+09 1.53142e+09 1.53236e+09 0
001 070 2 1 1.53732e+09 1.53758e+09 1.53859e+09 1.53864e+09 0
001 071 2 0 1.56649e+09 1.56674e+09 1.56776e+09 1.568e+09 0
000 072 2 1 1.58625e+09 1.5865e+09 1.58752e+09 1.58822e+09 1
001 073 2 0 1.59589e+09 1.59615e+09 1.59717e+09 1.59785e+09 0
000 074 2 1 1.60628e+09 1.60655e+09 1.60757e+09 1.61278e+09 1
001 075 1 0 1.63211e+09 1.63237e+09 1.63339e+09 1.63419e+09 0
001 076 1 1 1.63821e+09 1.63848e+09 1.63949e+09 1.63997e+09 0
000 077 1 1 1.65205e+09 1.6523e+09 1.65332e+09 1.6534e+09 1
000 078 1 1 1.6861e+09 1.68635e+09 1.68737e+09 1.68739e+09 1
000 079 1 1 1.7087e+09 1.70895e+09 1.70997e+09 1.71073e+09 1
000 080 2 1 1.71895e+09 1.71919e+09 1.72021e+09 1.72054e+09 0
001 081 1 0 1.74036e+09 1.74061e+09 1.74163e+09 1.74257e+09 0
001 082 1 0 1.75803e+09 1.75827e+09 1.75929e+09 1.75947e+09 0
001 083 1 0 1.76546e+09 1.76571e+09 1.76673e+09 1.76715e+09 0
001 084 2 0 1.79337e+09 1.79362e+09 1.79464e+09 1.79473e+09 0
000 085 2 0 1.81485e+09 1.81511e+09 1.81613e+09 1.81702e+09 1
000 086 2 1 1.82617e+09 1.82642e+09 1.82744e+09 1.82778e+09 1
001 087 2 1 1.84397e+09 1.84422e+09 1.84524e+09 1.84536e+09 0
001 088 1 0 1.85748e+09 1.85773e+09 1.85875e+09 1.85916e+09 0
001 089 2 1 1.92034e+09 1.92059e+09 1.92161e+09 1.92169e+09 0
001 090 2 0 1.95561e+09 1.95586e+09 1.95688e+09 1.95709e+09 0
000 091 2 0 1.96561e+09 1.96588e+09 1.9669e+09 1.97036e+09 1
000 092 2 1 1.97788e+09 1.97813e+09 1.97915e+09 1.98065e+09 1
001 093 1 0 1.98579e+09 1.98605e+09 1.98707e+09 1.98748e+09 0
001 094 1 1 2.03017e+09 2.03043e+09 2.03145e+09 2.03166e+09 0
000 095 1 1 2.03921e+09 2.03947e+09 2.04049e+09 2.04072e+09 1
000 096 1 0 2.0479e+09 2.04815e+09 2.04917e+09 2.04958e+09 1
001 097 2 0 2.06885e+09 2.06911e+09 2.07013e+09 2.07153e+09 0
000 098 2 0 2.10556e+09 2.10581e+09 2.10683e+09 2.10921e+09 1
000 099 2 0 2.11667e+09 2.11692e+09 2.11794e+09 2.11813e+09 1
000 100 2 1 2.12689e+09 2.12715e+09 2.12817e+09 2.13073e+09 1
001 101 2 1 2.14369e+09 2.14394e+09 2.14496e+09 2.14527e+09 0
001 102 1 0 2.15771e+09 2.15797e+09 2.15899e+09 2.15929e+09 0
001 103 1 1 2.1688e+09 2.16904e+09 2.17006e+09 2.17053e+09 0
000 104 1 1 2.19858e+09 2.19883e+09 2.19985e+09 2.20015e+09 1
000 105 1 1 2.22508e+09 2.22533e+09 2.22635e+09 2.22638e+09 1
000 106 1 0 2.2552e+09 2.25546e+09 2.25647e+09 2.25661e+09 1
001 107 2 1 2.2824e+09 2.28265e+09 2.28367e+09 2.28374e+09 0
001 108 2 0 2.29417e+09 2.29443e+09 2.29545e+09 2.29618e+09 0
000 109 2 1 2.30402e+09 2.30427e+09 2.30529e+09 2.30594e+09 1
001 110 2 0 2.34e+09 2.34025e+09 2.34127e+09 2.34172e+09 0
000 111 2 1 2.35075e+09 2.35099e+09 2.35201e+09 2.35222e+09 1
001 112 1 1 2.35663e+09 2.35687e+09 2.35789e+09 2.35846e+09 0
000 113 1 0 2.36743e+09 2.36767e+09 2.36869e+09 2.3692e+09 1
001 114 1 1 2.38071e+09 2.38096e+09 2.38198e+09 2.38214e+09 0
000 115 1 0 2.39091e+09 2.39117e+09 2.39219e+09 2.39232e+09 1
001 116 2 0 2.41355e+09 2.4138e+09 2.41482e+09 2.41567e+09 0
000 117 2 0 2.42433e+09 2.42458e+09 2.4256e+09 2.43249e+09 1
000 118 2 0 2.44281e+09 2.44307e+09 2.44409e+09 2.44908e+09 1
000 119 2 1 2.46575e+09 2.466e+09 2.46702e+09 2.46705e+09 1
001 120 2 1 2.47022e+09 2.47047e+09 2.47149e+09 2.47165e+09 0
001 121 2 0 2.48188e+09 2.48214e+09 2.48316e+09 2.48497e+09 0
000 122 2 1 2.49243e+09 2.49268e+09 2.4937e+09 2.49432e+09 1
001 123 1 1 2.4981e+09 2.49834e+09 2.49936e+09 2.4999e+09 0
000 124 1 1 2.5111e+09 2.51135e+09 2.51237e+09 2.51249e+09 1
000 125 1 0 2.5268e+09 2.52705e+09 2.52807e+09 2.52839e+09 1
001 126 2 0 2.54204e+09 2.54229e+09 2.54331e+09 2.54364e+09 0
000 127 2 0 2.55114e+09 2.5514e+09 2.55242e+09 2.55355e+09 1
000 128 2 0 2.56309e+09 2.56334e+09 2.56436e+09 2.56474e+09 1
000 129 2 1 2.57513e+09 2.57538e+09 2.5764e+09 2.57642e+09 1
001 130 2 1 2.61947e+09 2.61973e+09 2.62075e+09 2.62092e+09 0
001 131 1 0 2.64456e+09 2.64482e+09 2.64584e+09 2.64638e+09 0
001 132 2 0 2.64953e+09 2.64978e+09 2.6508e+09 2.65115e+09 0
000 133 2 1 2.65826e+09 2.65851e+09 2.65953e+09 2.65963e+09 1
001 134 2 0 2.69999e+09 2.70025e+09 2.70127e+09 2.70145e+09 0
000 135 2 0 2.71582e+09 2.71606e+09 2.71708e+09 2.71808e+09 1
000 136 2 1 2.75036e+09 2.75061e+09 2.75163e+09 2.75199e+09 1
001 137 2 1 2.77627e+09 2.77651e+09 2.77753e+09 2.77906e+09 0
001 138 1 1 2.78642e+09 2.78667e+09 2.78769e+09 2.78811e+09 0
000 139 1 0 2.82767e+09 2.82792e+09 2.82894e+09 2.83043e+09 1
001 140 1 0 2.88738e+09 2.88762e+09 2.88864e+09 2.88938e+09 0
001 141 2 1 2.90988e+09 2.91013e+09 2.91114e+09 2.91141e+09 0
001 142 2 0 2.92239e+09 2.92264e+09 2.92366e+09 2.92369e+09 0
000 143 2 0 2.93701e+09 2.93726e+09 2.93828e+09 2.93891e+09 1
000 144 2 0 2.95259e+09 2.95284e+09 2.95386e+09 2.95407e+09 1
000 145 2 1 2.96833e+09 2.96858e+09 2.9696e+09 2.97304e+09 1
001 146 2 0 2.9899e+09 2.99015e+09 2.99117e+09 2.99134e+09 0
000 147 2 0 3.00008e+09 3.00034e+09 3.00136e+09 3.00179e+09 1
000 148 2 0 3.01157e+09 3.01183e+09 3.01285e+09 3.01296e+09 1
000 149 2 1 3.0314e+09 3.03166e+09 3.03268e+09 3.0389e+09 1
001 150 2 1 3.04327e+09 3.04353e+09 3.04454e+09 3.04457e+09 0
001 151 1 0 3.11399e+09 3.11424e+09 3.11526e+09 3.11537e+09 0
001 152 2 0 3.15294e+09 3.15319e+09 3.15421e+09 3.1553e+09 0
000 153 2 0 3.1683e+09 3.16856e+09 3.16957e+09 3.16972e+09 1
000 154 2 1 3.18176e+09 3.182e+09 3.18302e+09 3.18346e+09 1
001 155 1 0 3.21753e+09 3.21778e+09 3.2188e+09 3.21926e+09 0
001 156 2 0 3.24065e+09 3.2409e+09 3.24192e+09 3.24313e+09 0
000 157 2 0 3.25079e+09 3.25105e+09 3.25207e+09 3.25212e+09 1
000 158 2 1 3.26062e+09 3.26087e+09 3.26189e+09 3.26198e+09 1
001 159 1 1 3.27046e+09 3.27071e+09 3.27173e+09 3.27244e+09 0
000 160 1 0 3.2796e+09 3.27985e+09 3.28086e+09 3.28123e+09 1
001 161 1 1 3.28707e+09 3.28734e+09 3.28836e+09 3.28852e+09 0
000 162 1 0 3.31601e+09 3.31629e+09 3.31731e+09 3.32455e+09 1
001 163 1 1 3.3375e+09 3.33776e+09 3.33878e+09 3.33912e+09 0
000 164 1 0 3.37786e+09 3.37812e+09 3.37914e+09 3.37957e+09 1
001 165 2 1 3.38357e+09 3.38383e+09 3.38485e+09 3.38502e+09 0
001 166 2 1 3.40681e+09 3.40707e+09 3.40809e+09 3.40825e+09 0
001 167 2 1 3.41283e+09 3.41309e+09 3.41411e+09 3.41441e+09 0
001 168 1 0 3.42536e+09 3.42562e+09 3.42664e+09 3.42667e+09 0
001 169 1 0 3.43878e+09 3.43905e+09 3.44007e+09 3.44125e+09 0
001 170 2 0 3.44665e+09 3.4469e+09 3.44792e+09 3.44852e+09 0
000 171 2 0 3.46854e+09 3.46879e+09 3.46981e+09 3.47164e+09 1
000 172 2 0 3.47906e+09 3.47931e+09 3.48033e+09 3.48082e+09 1
000 173 2 1 3.51745e+09 3.51771e+09 3.51873e+09 3.51993e+09 1
001 174 1 1 3.53407e+09 3.53432e+09 3.53534e+09 3.53553e+09 0
000 175 1 1 3.54984e+09 3.55009e+09 3.55111e+09 3.55156e+09 1
000 176 1 0 3.57307e+09 3.57331e+09 3.57433e+09 3.57524e+09 1
001 177 2 0 3.59455e+09 3.59481e+09 3.59583e+09 3.59591e+09 0
000 178 2 0 3.60777e+09 3.60802e+09 3.60903e+09 3.60918e+09 1
000 179 2 0 3.61984e+09 3.62008e+09 3.6211e+09 3.62143e+09 1
000 180 2 1 3.63926e+09 3.63951e+09 3.64053e+09 3.64067e+09 1
001 181 1 1 3.66463e+09 3.66487e+09 3.66589e+09 3.66614e+09 0
000 182 1 1 3.68762e+09 3.68787e+09 3.68889e+09 3.6895e+09 1
000 183 1 0 3.70588e+09 3.70614e+09 3.70716e+09 3.70718e+09 1
001 184 2 0 3.71133e+09 3.71158e+09 3.7126e+09 3.71273e+09 0
000 185 2 1 3.75352e+09 3.75377e+09 3.75479e+09 3.75485e+09 1
001 186 1 1 3.80559e+09 3.80584e+09 3.80686e+09 3.80727e+09 0
000 187 1 0 3.86279e+09 3.86305e+09 3.86406e+09 3.86533e+09 1
001 188 1 0 3.89091e+09 3.89115e+09 3.89217e+09 3.89225e+09 0
001 189 2 0 3.91646e+09 3.9167e+09 3.91772e+09 3.91775e+09 0
000 190 2 1 3.93353e+09 3.93378e+09 3.9348e+09 3.93526e+09 1
001 191 1 1 3.95414e+09 3.9544e+09 3.95542e+09 3.95545e+09 0
000 192 1 1 3.97376e+09 3.97401e+09 3.97503e+09 3.97533e+09 1
000 193 1 1 3.98313e+09 3.98339e+09 3.9844e+09 3.98479e+09 1
000 194 1 1 4.00142e+09 4.00167e+09 4.00268e+09 4.00357e+09 1
000 195 2 1 4.01591e+09 4.01616e+09 4.01718e+09 4.01878e+09 0
001 196 2 1 4.02815e+09 4.02848e+09 4.0295e+09 4.02996e+09 0
001 197 2 1 4.04776e+09 4.04801e+09 4.04903e+09 4.04958e+09 0
001 198 2 0 4.0633e+09 4.06356e+09 4.06458e+09 4.06525e+09 0
000 199 2 1 4.07536e+09 4.07562e+09 4.07664e+09 4.07696e+09 1
001 200 1 1 4.08097e+09 4.08121e+09 4.08223e+09 4.08238e+09 0
000 201 1 1 4.10205e+09 4.1023e+09 4.10332e+09 4.10387e+09 1
000 202 1 0 4.12422e+09 4.12447e+09 4.12549e+09 4.12551e+09 1
001 203 1 0 4.1623e+09 4.16256e+09 4.16358e+09 4.16372e+09 0
001 204 1 1 4.18751e+09 4.18776e+09 4.18878e+09 4.18886e+09 0
000 205 1 0 4.19927e+09 4.19953e+09 4.20055e+09 4.20129e+09 1
001 206 2 0 4.21385e+09 4.2141e+09 4.21512e+09 4.21571e+09 0
000 207 2 1 4.23006e+09 4.2303e+09 4.23132e+09 4.23139e+09 1
001 208 2 0 4.23699e+09 4.23724e+09 4.23825e+09 4.23841e+09 0
000 209 2 1 4.26096e+09 4.26121e+09 4.26223e+09 4.26243e+09 1
001 210 1 1 4.26681e+09 4.26705e+09 4.26807e+09 4.26849e+09 0
000 211 1 1 4.27567e+09 4.27591e+09 4.27693e+09 4.27696e+09 1
000 212 1 1 4.28843e+09 4.28869e+09 4.28971e+09 4.28976e+09 1
000 213 1 1 2.83904e+07 2.8651e+07 2.96699e+07 2.97547e+07 1
000 214 2 0 3.99073e+07 4.01569e+07 4.11758e+07 4.12423e+07 0
000 215 1 1 5.35327e+07 5.37813e+07 5.48002e+07 5.48356e+07 0
000 216 1 0 6.21445e+07 6.23956e+07 6.34145e+07 6.62409e+07 0
001 217 2 0 1.1358e+08 1.13827e+08 1.14846e+08 1.14925e+08 0
000 218 2 0 1.38379e+08 1.38638e+08 1.39657e+08 1.39845e+08 1
000 219 2 0 1.49591e+08 1.49832e+08 1.50851e+08 1.50993e+08 1
000 220 2 0 1.58154e+08 1.58398e+08 1.59417e+08 1.63666e+08 1
000 221 2 1 1.73302e+08 1.73542e+08 1.74561e+08 1.74621e+08 0
001 222 2 1 1.85947e+08 1.86204e+08 1.87223e+08 1.8726e+08 0
001 223 2 0 1.98774e+08 1.99015e+08 2.00034e+08 2.05408e+08 0
000 224 2 1 2.12722e+08 2.12968e+08 2.13987e+08 2.14081e+08 1
001 225 1 0 2.21651e+08 2.21909e+08 2.22928e+08 2.24034e+08 0
001 226 1 0 2.51193e+08 2.51448e+08 2.52467e+08 2.52793e+08 0
001 227 2 1 2.57119e+08 2.57376e+08 2.58395e+08 2.58425e+08 0
001 228 1 1 2.72658e+08 2.72926e+08 2.73945e+08 2.74305e+08 0
000 229 1 1 2.81389e+08 2.81648e+08 2.82667e+08 2.82795e+08 1
000 230 1 0 3.11357e+08 3.11605e+08 3.12624e+08 3.13055e+08 1
001 231 2 1 3.18097e+08 3.1835e+08 3.19369e+08 3.20048e+08 0
001 232 1 0 3.42617e+08 3.42867e+08 3.43886e+08 3.44014e+08 0
001 233 2 0 3.68747e+08 3.68988e+08 3.70007e+08 3.70047e+08 0
000 234 2 0 3.81924e+08 3.82182e+08 3.83201e+08 3.83514e+08 1
000 235 2 1 3.91767e+08 3.92008e+08 3.93027e+08 3.93188e+08 1
001 236 2 1 4.08692e+08 4.08949e+08 4.09968e+08 4.10342e+08 0
001 237 2 0 4.33906e+08 4.34161e+08 4.3518e+08 4.35481e+08 0
000 238 2 1 4.45705e+08 4.45958e+08 4.46976e+08 4.47046e+08 1
001 239 1 1 4.70852e+08 4.71099e+08 4.72118e+08 4.72136e+08 0
000 240 1 0 4.83763e+08 4.84021e+08 4.85039e+08 4.85429e+08 1
001 241 1 1 4.90412e+08 4.90666e+08 4.91685e+08 4.91885e+08 0
000 242 1 0 5.20692e+08 5.20948e+08 5.21967e+08 5.22267e+08 1
001 243 2 1 5.4461e+08 5.44861e+08 5.4588e+08 5.46609e+08 0
001 244 1 1 5.5661e+08 5.56866e+08 5.57885e+08 5.58201e+08 0
000 245 1 0 5.74164e+08 5.74419e+08 5.75437e+08 5.79102e+08 1
001 246 1 1 5.82415e+08 5.82668e+08 5.83687e+08 5.83888e+08 0
000 247 1 0 5.93882e+08 5.94139e+08 5.95158e+08 5.95295e+08 1
001 248 1 1 5.99117e+08 5.99374e+08 6.00393e+08 6.00904e+08 0
000 249 1 1 6.22657e+08 6.2291e+08 6.23929e+08 6.24145e+08 1
000 250 1 1 6.31629e+08 6.31893e+08 6.32912e+08 6.33246e+08 1
000 251 1 0 6.4854e+08 6.4879e+08 6.49809e+08 6.50348e+08 1
001 252 2 1 6.55378e+08 6.55621e+08 6.5664e+08 6.56956e+08 0
001 253 1 0 6.70879e+08 6.71121e+08 6.7214e+08 6.7221e+08 0
001 254 2 1 7.33391e+08 7.33642e+08 7.34661e+08 7.34713e+08 0
001 255 1 1 7.44649e+08 7.44903e+08 7.45922e+08 7.46024e+08 0
000 256 1 1 7.6687e+08 7.6713e+08 7.68149e+08 7.68215e+08 1
000 257 1 0 7.77161e+08 7.77423e+08 7.78442e+08 7.78636e+08 1
001 258 1 1 7.95593e+08 7.95895e+08 7.96914e+08 7.97318e+08 0
000 259 1 1 8.09105e+08 8.09354e+08 8.10373e+08 8.10474e+08 1
000 260 1 1 8.17527e+08 8.1777e+08 8.18789e+08 8.18796e+08 1
000 261 1 0 8.26252e+08 8.26494e+08 8.27513e+08 8.27718e+08 1
001 262 2 0 8.30952e+08 8.31213e+08 8.32231e+08 8.32674e+08 0
000 263 2 1 8.3972e+08 8.39986e+08 8.41005e+08 8.41253e+08 1
001 264 2 1 8.44931e+08 8.45181e+08 8.462e+08 8.46529e+08 0
001 265 1 1 8.58272e+08 8.58512e+08 8.59531e+08 8.59756e+08 0
000 266 1 0 8.71947e+08 8.7219e+08 8.73209e+08 8.74099e+08 1
001 267 2 1 8.80713e+08 8.80971e+08 8.8199e+08 8.84055e+08 0
001 268 2 1 8.88261e+08 8.88507e+08 8.89526e+08 8.89626e+08 0
001 269 1 1 8.94959e+08 8.95217e+08 8.96236e+08 8.98706e+08 0
000 270 1 0 9.09213e+08 9.09467e+08 9.10486e+08 9.11036e+08 1
001 271 1 0 9.20092e+08 9.20391e+08 9.2141e+08 9.21454e+08 0
001 272 2 0 9.27421e+08 9.27668e+08 9.28687e+08 9.28933e+08 0
000 273 2 1 9.38655e+08 9.38914e+08 9.39933e+08 9.40987e+08 1
001 274 1 0 9.49184e+08 9.49442e+08 9.50461e+08 9.50476e+08 0
001 275 1 1 9.58306e+08 9.58549e+08 9.59568e+08 9.60057e+08 0
000 276 1 0 9.69214e+08 9.69462e+08 9.70481e+08 9.7061e+08 1
001 277 1 1 9.75981e+08 9.76238e+08 9.77257e+08 9.77649e+08 0
000 278 1 1 9.86595e+08 9.86844e+08 9.87863e+08 9.87873e+08 1
000 279 1 0 1.00226e+09 1.00251e+09 1.00353e+09 1.00397e+09 1
001 280 1 0 1.00863e+09 1.00889e+09 1.00991e+09 1.01007e+09 0
001 281 2 1 1.0143e+09 1.01455e+09 1.01557e+09 1.01596e+09 0
001 282 2 0 1.03651e+09 1.03678e+09 1.0378e+09 1.03782e+09 0
000 283 2 0 1.04682e+09 1.04708e+09 1.04809e+09 1.04814e+09 1
000 284 2 0 1.06349e+09 1.06374e+09 1.06476e+09 1.06524e+09 1
000 285 2 1 1.07467e+09 1.07491e+09 1.07593e+09 1.07629e+09 1
001 286 2 0 1.08031e+09 1.08057e+09 1.08159e+09 1.08192e+09 0
000 287 2 0 1.10305e+09 1.1033e+09 1.10432e+09 1.10472e+09 1
000 288 2 0 1.11645e+09 1.1167e+09 1.11772e+09 1.12588e+09 1
000 289 2 0 1.13329e+09 1.13354e+09 1.13456e+09 1.13879e+09 1
000 290 2 0 1.14609e+09 1.14634e+09 1.14736e+09 1.15039e+09 0
000 291 1 0 1.16078e+09 1.16103e+09 1.16205e+09 1.23426e+09 0
001 292 2 0 1.2373e+09 1.23754e+09 1.23856e+09 1.24037e+09 0
000 293 2 1 1.24745e+09 1.24771e+09 1.24873e+09 1.25346e+09 1
001 294 2 1 1.25697e+09 1.25723e+09 1.25825e+09 1.42318e+09 0
001 295 1 0 1.42936e+09 1.42962e+09 1.43064e+09 1.43233e+09 0
001 296 1 1 1.43565e+09 1.4359e+09 1.43692e+09 1.43834e+09 0
000 297 1 0 1.44565e+09 1.44591e+09 1.44693e+09 1.45121e+09 1
001 298 2 1 1.45392e+09 1.45417e+09 1.45519e+09 1.4555e+09 0
001 299 1 0 1.45866e+09 1.45891e+09 1.45993e+09 1.46838e+09 0
001 300 2 1 1.47277e+09 1.47304e+09 1.47405e+09 1.48647e+09 0
001 301 1 1 1.4891e+09 1.48935e+09 1.49037e+09 1.53123e+09 0
000 302 1 1 1.53849e+09 1.53875e+09 1.53977e+09 1.54347e+09 1
000 303 1 0 1.55091e+09 1.55116e+09 1.55218e+09 1.55479e+09 1
001 304 2 0 1.55886e+09 1.55911e+09 1.56013e+09 1.56302e+09 0
000 305 2 1 1.57044e+09 1.57069e+09 1.57171e+09 1.57675e+09 1
001 306 1 1 1.58092e+09 1.58118e+09 1.5822e+09 1.61339e+09 0
000 307 1 1 1.62184e+09 1.62209e+09 1.62311e+09 1.62788e+09 1
000 308 1 0 1.63521e+09 1.63546e+09 1.63648e+09 1.63666e+09 1
001 