trial trialType response stillTime stimOnset stimOffset respTime correctionTrial correct
001 2 1 3.07611e+06 3.34653e+06 4.36546e+06 1.4869e+07 0
001 002 1 0 1.74643e+07 1.77195e+07 1.87384e+07 2.11042e+08 0
001 003 1 1 2.13471e+08 2.13731e+08 2.1475e+08 2.1476e+08 0
000 004 1 0 2.79644e+08 2.79893e+08 2.80911e+08 2.84107e+08 1
001 005 2 0 2.96346e+08 2.96592e+08 2.97611e+08 2.98071e+08 0
000 006 2 0 3.07853e+08 3.08104e+08 3.09123e+08 3.10861e+08 1
000 007 2 0 3.36808e+08 3.37068e+08 3.38087e+08 3.4087e+08 1
000 008 2 0 3.74755e+08 3.75016e+08 3.76035e+08 3.77654e+08 1
000 009 1 0 3.85156e+08 3.85412e+08 3.86431e+08 3.87099e+08 0
001 010 2 0 4.19005e+08 4.19252e+08 4.20271e+08 4.22445e+08 0
000 011 2 1 4.42182e+08 4.4243e+08 4.43449e+08 4.44815e+08 1
001 012 1 0 4.58959e+08 4.59203e+08 4.60222e+08 4.60524e+08 0
001 013 2 0 4.92044e+08 4.92297e+08 4.93316e+08 4.94e+08 0
000 014 2 1 5.12556e+08 5.12815e+08 5.13834e+08 5.14357e+08 1
001 015 2 0 5.32315e+08 5.32564e+08 5.33583e+08 5.34365e+08 0
000 016 2 0 5.42042e+08 5.42283e+08 5.43302e+08 5.46048e+08 1
000 017 2 1 5.53469e+08 5.53725e+08 5.54744e+08 5.5506e+08 1
001 018 2 0 5.80926e+08 5.81177e+08 5.82196e+08 5.83241e+08 0
000 019 2 1 5.99073e+08 5.99315e+08 6.00334e+08 6.01521e+08 1
001 020 1 1 6.11793e+08 6.12044e+08 6.13063e+08 6.13853e+08 0
000 021 1 0 6.33582e+08 6.33833e+08 6.34852e+08 6.35578e+08 1
001 022 1 0 6.79497e+08 6.79744e+08 6.80763e+08 6.82448e+08 0
001 023 1 1 6.91376e+08 6.91624e+08 6.92643e+08 6.93081e+08 0
000 024 1 1 7.05221e+08 7.05478e+08 7.06497e+08 7.07116e+08 1
000 025 1 1 7.18772e+08 7.19014e+08 7.20033e+08 7.20956e+08 1
000 026 1 0 8.19577e+08 8.19839e+08 8.20858e+08 8.22089e+08 1
001 027 2 1 8.43568e+08 8.43817e+08 8.44836e+08 8.45454e+08 0
001 028 2 1 8.5779e+08 8.58047e+08 8.59066e+08 8.60497e+08 0
001 029 2 1 9.57189e+08 9.5745e+08 9.58469e+08 9.65716e+08 0
001 030 2 1 1.06096e+09 1.06121e+09 1.06223e+09 1.06267e+09 0
001 031 2 0 1.07258e+09 1.07283e+09 1.07385e+09 1.07452e+09 0
000 032 2 1 1.12699e+09 1.12726e+09 1.12827e+09 1.12873e+09 1
001 033 1 1 1.14291e+09 1.14316e+09 1.14418e+09 1.14772e+09 0
000 034 1 0 1.1881e+09 1.18835e+09 1.18937e+09 1.19025e+09 1
001 035 1 0 1.25575e+09 1.256e+09 1.25702e+09 1.25734e+09 0
001 036 2 1 1.26233e+09 1.26259e+09 1.26361e+09 1.2648e+09 0
001 037 2 0 1.27383e+09 1.27408e+09 1.2751e+09 1.27618e+09 0
000 038 2 0 1.28412e+09 1.28437e+09 1.28539e+09 1.28716e+09 1
000 039 2 1 1.29464e+09 1.2949e+09 1.29592e+09 1.30553e+09 1
001 040 1 1 1.319e+09 1.31925e+09 1.32027e+09 1.32566e+09 0
000 041 1 1 1.33513e+09 1.33538e+09 1.3364e+09 1.34946e+09 1
000 042 1 1 1.35821e+09 1.35846e+09 1.35948e+09 1.35985e+09 1
000 043 1 1 1.37176e+09 1.37201e+09 1.37303e+09 1.37305e+09 1
000 044 1 0 1.52027e+09 1.52052e+09 1.52154e+09 1.52222e+09 0
001 045 2 0 1.55447e+09 1.55472e+09 1.55574e+09 1.55585e+09 0
000 046 2 0 1.66463e+09 1.66489e+09 1.66591e+09 1.6664e+09 1
000 047 2 0 1.67546e+09 1.67571e+09 1.67673e+09 1.67691e+09 1
000 048 2 0 1.68479e+09 1.68503e+09 1.68605e+09 1.68686e+09 1
000 049 2 1 1.72002e+09 1.72028e+09 1.7213e+09 1.72346e+09 0
001 050 2 1 1.89552e+09 1.89576e+09 1.89678e+09 1.90021e+09 0
001 051 1 0 1.92977e+09 1.93002e+09 1.93104e+09 1.93326e+09 0
001 052 1 1 1.94537e+09 1.94563e+09 1.94665e+09 1.95111e+09 0
000 053 1 1 1.97119e+09 1.97144e+09 1.97246e+09 1.97256e+09 1
000 054 1 0 2.10192e+09 2.10217e+09 2.10319e+09 2.10356e+09 1
001 055 2 1 2.13616e+09 2.13641e+09 2.13743e+09 2.13798e+09 0
001 056 1 0 2.22742e+09 2.22768e+09 2.2287e+09 2.22876e+09 0
001 057 1 0 2.30312e+09 2.30337e+09 2.30439e+09 2.30578e+09 0
001 058 2 1 2.32511e+09 2.32536e+09 2.32638e+09 2.32987e+09 0
001 059 1 1 2.35493e+09 2.35519e+09 2.3562e+09 2.35654e+09 0
000 060 1 1 2.427e+09 2.42725e+09 2.42827e+09 2.42843e+09 1
000 061 1 0 2.46766e+09 2.46792e+09 2.46894e+09 2.4695e+09 1
001 062 1 0 2.47607e+09 2.47632e+09 2.47734e+09 2.47746e+09 0
001 063 1 0 2.48268e+09 2.48294e+09 2.48396e+09 2.48486e+09 0
001 064 2 0 2.50938e+09 2.50964e+09 2.51065e+09 2.51102e+09 0
000 065 2 1 2.53917e+09 2.53943e+09 2.54045e+09 2.54251e+09 1
001 066 2 0 2.58568e+09 2.58594e+09 2.58696e+09 2.58793e+09 0
000 067 2 1 2.59692e+09 2.59718e+09 2.5982e+09 2.59874e+09 1
001 068 1 1 2.61407e+09 2.61432e+09 2.61534e+09 2.61807e+09 0
000 069 1 0 2.6335e+09 2.63375e+09 2.63477e+09 2.63479e+09 1
001 070 2 0 2.65063e+09 2.65089e+09 2.65191e+09 2.6523e+09 0
000 071 2 1 2.76587e+09 2.76614e+09 2.76716e+09 2.76786e+09 1
001 072 1 1 2.77863e+09 2.7789e+09 2.77992e+09 2.78016e+09 0
000 073 1 1 2.78802e+09 2.78829e+09 2.7893e+09 2.79008e+09 1
000 074 1 1 2.79881e+09 2.79907e+09 2.80009e+09 2.80064e+09 1
000 075 1 1 2.80919e+09 2.80946e+09 2.81048e+09 2.81105e+09 1
000 076 2 1 2.82102e+09 2.82129e+09 2.82231e+09 2.8224e+09 0
001 077 2 1 2.82488e+09 2.82513e+09 2.82615e+09 2.82744e+09 0
001 078 1 0 2.83499e+09 2.83525e+09 2.83627e+09 2.83666e+09 0
001 079 2 1 2.85363e+09 2.85389e+09 2.85491e+09 2.86384e+09 0
001 080 1 1 2.87406e+09 2.87433e+09 2.87534e+09 2.88128e+09 0
000 081 1 1 2.88976e+09 2.89002e+09 2.89103e+09 2.89396e+09 1
000 082 1 1 2.90109e+09 2.90135e+09 2.90237e+09 2.90481e+09 1
000 083 1 1 2.91416e+09 2.91442e+09 2.91544e+09 2.91868e+09 1
000 084 2 1 2.93192e+09 2.93218e+09 2.93319e+09 2.93391e+09 0
001 085 2 0 2.95283e+09 2.9531e+09 2.95411e+09 2.95464e+09 0
000 086 2 1 2.96841e+09 2.96867e+09 2.96969e+09 2.96975e+09 1
001 087 1 0 2.98725e+09 2.9875e+09 2.98852e+09 2.98999e+09 0
001 088 2 0 2.99656e+09 2.99682e+09 2.99783e+09 2.99916e+09 0
000 089 2 1 3.09049e+09 3.09076e+09 3.09178e+09 3.09277e+09 1
001 090 1 1 3.10248e+09 3.10273e+09 3.10375e+09 3.10569e+09 0
000 091 1 0 3.13168e+09 3.13193e+09 3.13295e+09 3.13328e+09 1
001 092 2 1 3.2348e+09 3.23506e+09 3.23608e+09 3.23612e+09 0
001 093 1 0 3.24656e+09 3.24683e+09 3.24784e+09 3.2482e+09 0
001 094 1 0 3.29179e+09 3.29205e+09 3.29307e+09 3.29312e+09 0
001 095 1 1 3.29853e+09 3.29879e+09 3.2998e+09 3.30311e+09 0
000 096 1 0 3.31436e+09 3.31462e+09 3.31564e+09 3.31747e+09 1
001 097 1 1 3.32317e+09 3.32344e+09 3.32446e+09 3.32485e+09 0
000 098 1 1 3.33262e+09 3.33288e+09 3.3339e+09 3.33442e+09 1
000 099 1 1 3.34433e+09 3.3446e+09 3.34562e+09 3.34701e+09 1
000 100 1 1 3.35547e+09 3.35572e+09 3.35674e+09 3.35956e+09 1
000 101 1 0 3.36736e+09 3.36761e+09 3.36863e+09 3.37036e+09 0
001 102 2 0 3.38818e+09 3.38843e+09 3.38945e+09 3.38984e+09 0
000 103 2 1 3.40001e+09 3.40028e+09 3.40129e+09 3.40136e+09 1
001 104 2 0 3.40777e+09 3.40803e+09 3.40905e+09 3.40933e+09 0
000 105 2 0 3.42277e+09 3.42302e+09 3.42404e+09 3.42475e+09 1
000 106 2 1 3.43436e+09 3.43463e+09 3.43565e+09 3.43656e+09 1
001 107 1 0 3.44308e+09 3.44334e+09 3.44436e+09 3.44821e+09 0
001 108 1 0 3.4586e+09 3.45887e+09 3.45989e+09 3.46081e+09 0
001 109 2 1 3.47597e+09 3.47624e+09 3.47726e+09 3.48015e+09 0
001 110 2 1 3.48878e+09 3.48904e+09 3.49006e+09 3.49224e+09 0
001 111 1 1 3.50464e+09 3.50491e+09 3.50592e+09 3.51093e+09 0
000 112 1 1 3.51819e+09 3.51844e+09 3.51946e+09 3.52152e+09 1
000 113 1 0 3.53158e+09 3.53183e+09 3.53285e+09 3.53666e+09 1
001 114 1 1 3.54543e+09 3.54569e+09 3.54671e+09 3.5472e+09 0
000 115 1 0 3.56616e+09 3.56642e+09 3.56744e+09 3.56888e+09 1
001 116 2 1 3.57669e+09 3.57694e+09 3.57796e+09 3.58192e+09 0
001 117 2 1 3.58701e+09 3.58726e+09 3.58828e+09 3.59262e+09 0
001 118 2 1 3.596e+09 3.59626e+09 3.59728e+09 3.60889e+09 0
001 119 1 1 3.6121e+09 3.61236e+09 3.61338e+09 3.61664e+09 0
000 120 1 1 3.62409e+09 3.62435e+09 3.62536e+09 3.63046e+09 1
000 121 1 1 3.63861e+09 3.63887e+09 3.63989e+09 3.64847e+09 1
000 122 1 1 3.65566e+09 3.65592e+09 3.65694e+09 3.66063e+09 1
000 123 2 1 3.66779e+09 3.66804e+09 3.66906e+09 3.66927e+09 0
001 124 2 1 3.67341e+09 3.67367e+09 3.67469e+09 3.67924e+09 0
001 125 1 1 3.68738e+09 3.68763e+09 3.68865e+09 3.68941e+09 0
000 126 1 1 3.70433e+09 3.70459e+09 3.70561e+09 3.71133e+09 1
000 127 1 1 3.72052e+09 3.72077e+09 3.72179e+09 3.72243e+09 1
000 128 1 1 3.72948e+09 3.72975e+09 3.73077e+09 3.73155e+09 1
000 129 2 1 3.73988e+09 3.74013e+09 3.74115e+09 3.74148e+09 0
001 130 1 1 3.75187e+09 3.75212e+09 3.75314e+09 3.75671e+09 0
000 131 1 0 3.77413e+09 3.77439e+09 3.77541e+09 3.77635e+09 1
001 132 1 0 3.8079e+09 3.80816e+09 3.80918e+09 3.80976e+09 0
001 133 1 1 3.86482e+09 3.86508e+09 3.8661e+09 3.8673e+09 0
000 134 1 0 3.9115e+09 3.91181e+09 3.91283e+09 3.91284e+09 1
001 135 2 1 3.92177e+09 3.92204e+09 3.92306e+09 3.92309e+09 0
001 136 1 1 3.94159e+09 3.94184e+09 3.94286e+09 3.94408e+09 0
000 137 1 1 3.95147e+09 3.95173e+09 3.95275e+09 3.9532e+09 1
000 138 1 0 3.96236e+09 3.96263e+09 3.96365e+09 3.96377e+09 1
001 139 1 0 3.98785e+09 3.98811e+09 3.98913e+09 3.99047e+09 0
001 140 2 1 4.02026e+09 4.02051e+09 4.02153e+09 4.02169e+09 0
001 141 1 1 4.0363e+09 4.03656e+09 4.03757e+09 4.03761e+09 0
000 142 1 1 4.04821e+09 4.04851e+09 4.04953e+09 4.05082e+09 1
000 143 1 0 4.06133e+09 4.0616e+09 4.06261e+09 4.06695e+09 1
001 144 2 0 4.08988e+09 4.09013e+09 4.09115e+09 4.09294e+09 0
000 145 2 0 4.10372e+09 4.10397e+09 4.10499e+09 4.10585e+09 1
000 146 2 1 4.12343e+09 4.12369e+09 4.12471e+09 4.12481e+09 1
001 147 1 0 4.13522e+09 4.13548e+09 4.1365e+09 4.13705e+09 0
001 148 1 0 4.14422e+09 4.14448e+09 4.1455e+09 4.14686e+09 0
001 149 1 0 1.34339e+07 1.36923e+07 1.47113e+07 1.5509e+07 0
001 150 2 1 2.00039e+07 2.02522e+07 2.12711e+07 2.15454e+07 0
001 151 1 1 9.68551e+07 9.7105e+07 9.8124e+07 9.86235e+07 0
000 152 1 0 1.16089e+08 1.16345e+08 1.17364e+08 1.19146e+08 1
001 153 2 1 1.25414e+08 1.25678e+08 1.26697e+08 1.2899e+08 0
001 154 2 1 1.39654e+08 1.39903e+08 1.40922e+08 1.44297e+08 0
001 155 1 1 1.63782e+08 1.64043e+08 1.65062e+08 1.6747e+08 0
000 156 1 1 1.78267e+08 1.78523e+08 1.79542e+08 1.79751e+08 1
000 157 1 1 1.90217e+08 1.90482e+08 1.915e+08 1.9412e+08 1
000 158 1 1 2.01411e+08 2.01667e+08 2.02686e+08 2.08326e+08 1
000 159 2 0 2.24081e+08 2.24331e+08 2.2535e+08 2.27695e+08 0
000 160 2 1 2.35893e+08 2.36154e+08 2.37173e+08 2.37339e+08 0
001 161 1 1 2.42577e+08 2.42844e+08 2.43863e+08 2.44262e+08 0
000 162 1 0 2.67852e+08 2.68099e+08 2.69118e+08 2.70582e+08 1
001 163 1 1 2.75645e+08 2.75905e+08 2.76924e+08 2.77354e+08 0
000 164 1 1 2.92253e+08 2.92507e+08 2.93526e+08 2.93774e+08 1
000 165 1 0 3.08409e+08 3.0868e+08 3.09699e+08 3.09782e+08 1
001 166 2 0 3.37598e+08 3.37847e+08 3.38866e+08 3.41e+08 0
000 167 2 1 3.511e+08 3.51364e+08 3.52383e+08 3.53615e+08 1
001 168 1 0 3.7052e+08 3.70779e+08 3.71798e+08 3.71988e+08 0
001 169 2 1 3.9831e+08 3.98576e+08 3.99595e+08 4.01462e+08 0
001 170 1 1 4.16609e+08 4.16872e+08 4.1789e+08 4.19897e+08 0
000 171 1 1 4.55468e+08 4.55733e+08 4.56752e+08 4.57054e+08 1
000 172 1 0 4.6899e+08 4.6925e+08 4.70269e+08 4.72399e+08 1
001 173 2 1 4.75812e+08 4.76077e+08 4.77096e+08 4.77358e+08 0
001 174 2 0 5.40817e+08 5.4107e+08 5.42089e+08 5.42321e+08 0
000 175 2 0 5.71451e+08 5.71703e+08 5.72722e+08 5.73248e+08 1
000 176 2 0 5.81003e+08 5.81255e+08 5.82274e+08 5.85691e+08 1
000 177 2 1 6.15581e+08 6.15833e+08 6.16852e+08 6.17096e+08 1
001 178 1 1 6.39757e+08 6.40008e+08 6.41027e+08 6.41096e+08 0
000 179 1 1 6.62134e+08 6.62394e+08 6.63413e+08 6.64005e+08 1
000 180 1 0 6.90526e+08 6.90778e+08 6.91797e+08 6.91833e+08 1
001 181 1 0 7.26164e+08 7.26415e+08 7.27434e+08 7.27648e+08 0
001 182 1 1 7.73691e+08 7.73942e+08 7.74961e+08 7.75207e+08 0
000 183 1 0 8.04798e+08 8.05058e+08 8.06077e+08 8.06118e+08 1
001 184 1 1 8.21163e+08 8.21423e+08 8.22442e+08 8.22482e+08 0
000 185 1 1 8.38813e+08 8.39066e+08 8.40085e+08 8.40113e+08 1
000 186 1 1 8.67737e+08 8.68004e+08 8.69022e+08 8.69357e+08 1
000 187 1 1 9.07942e+08 9.08208e+08 9.09227e+08 9.09291e+08 1
000 188 1 0 9.24111e+08 9.24363e+08 9.25382e+08 9.26549e+08 0
001 189 2 1 9.74505e+08 9.7476e+08 9.75778e+08 9.78296e+08 0
001 190 2 0 1.02879e+09 1.02906e+09 1.03008e+09 1.03067e+09 0
000 191 2 0 1.07327e+09 1.07352e+09 1.07454e+09 1.08121e+09 1
000 192 2 1 1.09868e+09 1.09893e+09 1.09995e+09 1.10223e+09 1
001 193 2 0 1.14991e+09 1.15017e+09 1.15119e+09 1.15182e+09 0
000 194 2 1 1.16157e+09 1.16182e+09 1.16284e+09 1.16322e+09 1
001 195 1 1 1.17362e+09 1.17387e+09 1.17489e+09 1.17564e+09 0
000 196 1 1 1.18389e+09 1.18414e+09 1.18516e+09 1.18566e+09 1
000 197 1 1 1.19601e+09 1.19627e+09 1.19729e+09 1.19736e+09 1
000 198 1 1 1.21185e+09 1.21212e+09 1.21314e+09 1.21383e+09 1
000 199 2 0 1.22314e+09 1.22339e+09 1.22441e+09 1.22535e+09 0
000 200 1 0 1.25559e+09 1.25586e+09 1.25688e+09 1.25778e+09 0
001 201 2 1 1.27187e+09 1.27212e+09 1.27314e+09 1.27337e+09 0
001 202 1 1 1.2846e+09 1.28485e+09 1.28587e+09 1.2869e+09 0
000 203 1 0 1.29877e+09 1.29902e+09 1.30004e+09 1.30038e+09 1
001 204 1 1 1.3162e+09 1.31645e+09 1.31747e+09 1.31773e+09 0
000 205 1 1 1.32602e+09 1.32626e+09 1.32728e+09 1.32766e+09 1
000 206 1 1 1.39144e+09 1.3917e+09 1.39272e+09 1.39309e+09 1
000 207 1 0 1.40951e+09 1.40977e+09 1.41079e+09 1.41328e+09 1
001 208 1 0 1.42017e+09 1.42044e+09 1.42146e+09 1.42151e+09 0
001 209 2 1 1.44528e+09 1.44554e+09 1.44656e+09 1.44939e+09 0
001 210 2 1 1.4652e+09 1.46551e+09 1.46653e+09 1.4675e+09 0
001 211 1 1 1.48714e+09 1.48739e+09 1.48841e+09 1.49224e+09 0
000 212 1 0 1.51494e+09 1.5152e+09 1.51622e+09 1.51666e+09 1
001 213 2 0 1.55571e+09 1.55597e+09 1.55699e+09 1.55852e+09 0
000 214 2 0 1.56653e+09 1.56679e+09 1.56781e+09 1.56913e+09 1
000 215 2 1 1.58177e+09 1.58202e+09 1.58304e+09 1.5836e+09 1
001 216 1 0 1.60463e+09 1.60489e+09 1.60591e+09 1.60732e+09 0
001 217 1 1 1.64695e+09 1.6472e+09 1.64822e+09 1.64861e+09 0
000 218 1 1 1.67283e+09 1.67308e+09 1.6741e+09 1.67472e+09 1
000 219 1 1 1.6865e+09 1.68674e+09 1.68776e+09 1.68921e+09 1
000 220 1 0 1.70208e+09 1.70233e+09 1.70335e+09 1.70489e+09 1
001 221 1 0 1.73052e+09 1.73079e+09 1.7318e+09 1.73223e+09 0
001 222 2 1 1.75542e+09 1.75566e+09 1.75668e+09 1.7587e+09 0
001 223 1 1 1.78972e+09 1.78998e+09 1.791e+09 1.79106e+09 0
000 224 1 1 1.81966e+09 1.81991e+09 1.82093e+09 1.822e+09 1
000 225 1 0 1.83869e+09 1.83895e+09 1.83997e+09 1.84059e+09 1
001 226 2 1 1.87161e+09 1.87187e+09 1.87288e+09 1.87429e+09 0
001 227 1 0 1.92905e+09 1.92931e+09 1.93033e+09 1.93124e+09 0
001 228 2 0 1.93514e+09 1.9354e+09 1.93642e+09 1.94172e+09 0
000 229 2 0 1.9488e+09 1.94906e+09 1.95008e+09 1.95242e+09 1
000 230 2 1 1.96059e+09 1.96085e+09 1.96187e+09 1.9671e+09 1
001 231 2 1 2.01755e+09 2.01781e+09 2.01883e+09 2.01965e+09 0
001 232 1 1 2.03049e+09 2.03075e+09 2.03177e+09 2.0322e+09 0
000 233 1 1 2.03988e+09 2.04014e+09 2.04116e+09 2.04151e+09 1
000 234 1 0 2.08574e+09 2.086e+09 2.08702e+09 2.0878e+09 1
001 235 2 0 2.09429e+09 2.09455e+09 2.09556e+09 2.12724e+09 0
000 236 2 0 2.1368e+09 2.13705e+09 2.13807e+09 2.13856e+09 1
000 237 2 0 2.14757e+09 2.14783e+09 2.14885e+09 2.15057e+09 1
000 238 2 0 2.15762e+09 2.15789e+09 2.15891e+09 2.16916e+09 1
000 239 1 1 2.17787e+09 2.17813e+09 2.17915e+09 2.18777e+09 0
000 240 2 0 2.19751e+09 2.19778e+09 2.1988e+09 2.19971e+09 0
000 241 2 1 2.20696e+09 2.20722e+09 2.20823e+09 2.2118e+09 0
001 242 2 1 2.22113e+09 2.2214e+09 2.22242e+09 2.22299e+09 0
001 243 1 1 2.23793e+09 2.23818e+09 2.2392e+09 2.23946e+09 0
000 244 1 1 2.25094e+09 2.25119e+09 2.25221e+09 2.25325e+09 1
000 245 1 0 2.26076e+09 2.26102e+09 2.26204e+09 2.26277e+09 1
001 246 2 0 2.27294e+09 2.2732e+09 2.27422e+09 2.27729e+09 0
000 247 2 1 2.28466e+09 2.28491e+09 2.28592e+09 2.28895e+09 1
001 248 2 1 2.29667e+09 2.29692e+09 2.29794e+09 2.29827e+09 0
001 249 1 1 2.30958e+09 2.30985e+09 2.31087e+09 2.31188e+09 0
000 250 1 1 2.31949e+09 2.31974e+09 2.32076e+09 2.32087e+09 1
000 251 1 1 2.33938e+09 2.33964e+09 2.34065e+09 2.3407e+09 1
000 252 1 1 2.35052e+09 2.35077e+09 2.35179e+09 2.35296e+09 1
000 253 1 1 2.36775e+09 2.368e+09 2.36901e+09 2.36916e+09 0
000 254 1 0 2.38106e+09 2.3813e+09 2.38232e+09 2.38273e+09 0
001 255 2 0 2.40624e+09 2.40649e+09 2.40751e+09 2.40901e+09 0
000 256 2 0 2.42033e+09 2.42058e+09 2.4216e+09 2.42255e+09 1
000 257 2 0 2.44939e+09 2.44964e+09 2.45066e+09 2.45438e+09 1
000 258 2 1 2.46337e+09 2.46362e+09 2.46464e+09 2.46621e+09 1
001 259 1 1 2.47273e+09 2.47298e+09 2.474e+09 2.47528e+09 0
000 260 1 0 2.48955e+09 2.4898e+09 2.49082e+09 2.49126e+09 1
001 261 1 0 2.4948e+09 2.49506e+09 2.49608e+09 2.49693e+09 0
001 262 1 1 2.50145e+09 2.50172e+09 2.50273e+09 2.50309e+09 0
000 263 1 1 2.51141e+09 2.51168e+09 2.5127e+09 2.51343e+09 1
000 264 1 0 2.52435e+09 2.52462e+09 2.52564e+09 2.52633e+09 1
001 265 1 0 2.53248e+09 2.53273e+09 2.53375e+09 2.53391e+09 0
001 266 2 1 2.54144e+09 2.54171e+09 2.54273e+09 2.54293e+09 0
001 267 2 0 2.54984e+09 2.5501e+09 2.55112e+09 2.55432e+09 0
000 268 2 1 2.56286e+09 2.56313e+09 2.56415e+09 2.5651e+09 1
001 269 1 1 2.57409e+09 2.57434e+09 2.57536e+09 2.57688e+09 0
000 270 1 1 2.58479e+09 2.58507e+09 2.58609e+09 2.5889e+09 1
000 271 1 0 2.60361e+09 2.60387e+09 2.60489e+09 2.60951e+09 1
001 272 2 0 2.62584e+09 2.6261e+09 2.62712e+09 2.62733e+09 0
000 273 2 1 2.64739e+09 2.64766e+09 2.64868e+09 2.64937e+09 1
001 274 1 0 2.65889e+09 2.65914e+09 2.66016e+09 2.6602e+09 0
001 275 1 0 2.6761e+09 2.67637e+09 2.67739e+09 2.6775e+09 0
001 276 1 0 2.68195e+09 2.6822e+09 2.68322e+09 2.68329e+09 0
001 277 2 0 2.69415e+09 2.6944e+09 2.69542e+09 2.69611e+09 0
000 278 2 1 2.71919e+09 2.71945e+09 2.72046e+09 2.72082e+09 1
001 279 1 1 2.73824e+09 2.73849e+09 2.73951e+09 2.7415e+09 0
000 280 1 1 2.74992e+09 2.75018e+09 2.7512e+09 2.75136e+09 1
000 281 1 0 2.76074e+09 2.761e+09 2.76201e+09 2.76257e+09 1
001 282 2 1 2.80837e+09 2.80863e+09 2.80965e+09 2.81371e+09 0
001 283 2 0 2.82129e+09 2.82155e+09 2.82257e+09 2.82293e+09 0
000 284 2 0 2.83025e+09 2.83051e+09 2.83153e+09 2.83564e+09 1
000 285 2 1 2.84645e+09 2.8467e+09 2.84772e+09 2.84787e+09 1
001 286 2 0 2.88533e+09 2.88558e+09 2.8866e+09 2.88793e+09 0
000 287 2 0 2.90538e+09 2.90563e+09 2.90665e+09 2.90683e+09 1
000 288 2 1 2.91595e+09 2.91622e+09 2.91724e+09 2.91916e+09 1
001 289 1 0 2.95644e+09 2.9567e+09 2.95772e+09 2.96133e+09 0
001 290 2 1 2.96765e+09 2.96791e+09 2.96893e+09 2.96956e+09 0
001 291 1 1 3.00117e+09 3.00143e+09 3.00245e+09 3.00249e+09 0
000 292 1 1 3.01195e+09 3.0122e+09 3.01322e+09 3.01625e+09 1
000 293 1 1 3.02774e+09 3.028e+09 3.02902e+09 3.02963e+09 1
000 294 1 1 3.03952e+09 3.03977e+09 3.04079e+09 3.0411e+09 1
000 295 2 1 3.05054e+09 3.0508e+09 3.05182e+09 3.05189e+09 0
001 296 2 1 3.0597e+09 3.05995e+09 3.06097e+09 3.06194e+09 0
001 297 1 0 3.07582e+09 3.07607e+09 3.07709e+09 3.07751e+09 0
001 298 2 1 3.0999e+09 3.10015e+09 3.10117e+09 3.10236e+09 0
001 299 2 1 3.11818e+09 3.11844e+09 3.11946e+09 3.12136e+09 0
001 300 1 1 3.13254e+09 3.1328e+09 3.13382e+09 3.13455e+09 0
000 301 1 1 3.14165e+09 3.14191e+09 3.14293e+09 3.14306e+09 1
000 302 1 1 3.1517e+09 3.15197e+09 3.15299e+09 3.15316e+09 1
000 303 1 0 3.16093e+09 3.16118e+09 3.1622e+09 3.16508e+09 1
001 304 1 0 3.18331e+09 3.18357e+09 3.18459e+09 3.18466e+09 0
001 305 2 1 3.1931e+09 3.19335e+09 3.19437e+09 3.19593e+09 0
001 306 1 1 3.21955e+09 3.21981e+09 3.22083e+09 3.22094e+09 0
000 307 1 0 3.23597e+09 3.23623e+09 3.23725e+09 3.23942e+09 1
001 308 2 1 3.2505e+09 3.25075e+09 3.25177e+09 3.25271e+09 0
001 309 2 1 3.26134e+09 3.2616e+09 3.26262e+09 3.26359e+09 0
001 310 1 0 3.27782e+09 3.27807e+09 3.27909e+09 3.27916e+09 0
001 311 1 1 3.28916e+09 3.28941e+09 3.29043e+09 3.29417e+09 0
000 312 1 1 3.3116e+09 3.31185e+09 3.31287e+09 3.31307e+09 1
000 313 1 1 3.32015e+09 3.32041e+09 3.32142e+09 3.32144e+09 1
000 314 1 0 3.32956e+09 3.32982e+09 3.33084e+09 3.33278e+09 1
001 315 1 1 3.33737e+09 3.33763e+09 3.33865e+09 3.34059e+09 0
000 316 1 1 3.34948e+09 3.34973e+09 3.35075e+09 3.35251e+09 1
000 317 1 1 3.35991e+09 3.36016e+09 3.36118e+09 3.36263e+09 1
000 318 1 1 3.37143e+09 3.37169e+09 3.37271e+09 3.37316e+09 1
000 319 2 0 3.38423e+09 3.3845e+09 3.38552e+09 3.38594e+09 0
000 320 2 0 3.39312e+09 3.39338e+09 3.3944e+09 3.39689e+09 0
000 321 2 1 3.40428e+09 3.40453e+09 3.40555e+09 3.41519e+09 0
001 322 1 0 3.4191e+09 3.41935e+09 3.42037e+09 3.42814e+09 0
001 323 2 0 3.43801e+09 3.43826e+09 3.43928e+09 3.44511e+09 0
000 324 2 0 3.45883e+09 3.45909e+09 3.4601e+09 3.46196e+09 1
000 325 2 0 3.4741e+09 3.47436e+09 3.47538e+09 3.53681e+09 1
000 326 2 0 3.54411e+09 3.54437e+09 3.54539e+09 3.59269e+09 1
000 327 1 0 3.59991e+09 3.60017e+09 3.60119e+09 3.60714e+09 0
001 328 1 1 3.62309e+09 3.62335e+09 3.62437e+09 3.62508e+09 0
000 329 1 0 3.63516e+09 3.63542e+09 3.63644e+09 3.67185e+09 1
001 330 2 1 3.67864e+09 3.67891e+09 3.67993e+09 3.67993e+09 0
001 331 2 1 3.68392e+09 3.68418e+09 3.6852e+09 3.69379e+09 0
001 332 2 1 3.69973e+09 3.69998e+09 3.701e+09 3.75309e+09 0
001 333 1 1 3.75861e+09 3.75886e+09 3.75988e+09 3.76618e+09 0
000 334 1 1 3.77859e+09 3.77885e+09 3.77987e+09 3.78715e+09 1
000 335 1 1 3.79701e+09 3.79726e+09 3.79828e+09 3.80485e+09 1
000 336 1 1 3.81234e+09 3.8126e+09 3.81362e+09 3.81371e+09 1
000 337 2 1 3.82103e+09 3.82128e+09 3.8223e+09 3.86468e+09 0
001 338 2 1 3.86802e+09 3.86828e+09 3.8693e+09 3.95846e+09 0
001 339 2 1 3.96299e+09 3.96325e+09 3.96426e+09 4.00645e+09 0
001 340 2 1 4.01325e+09 4.01351e+09 4.01453e+09 4.07236e+09 0
001 341 2 1 4.08004e+09 4.08029e+09 4.08131e+09 4.09136e+09 0
001 342 2 1 4.09693e+09 4.09719e+09 4.09821e+09 4.11564e+09 0
001 343 1 1 4.12042e+09 4.12067e+09 4.12169e+09 4.14018e+09 0
000 344 1 1 4.1495e+09 4.14976e+09 4.15078e+09 4.15331e+09 1
000 345 1 0 4.16046e+09 4.16071e+09 4.16173e+09 4.1888e+09 1
001 346 2 0 4.19509e+09 4.19535e+09 4.19637e+09 4.21275e+09 0
000 347 2 1 4.21978e+09 4.22004e+09 4.22106e+09 4.22679e+09 1
001 348 1 1 4.23294e+09 4.23319e+09 4.23421e+09 4.24265e+09 0
000 349 1 0 4.25014e+09 4.2504e+09 4.25142e+09 4.27756e+09 1
001 350 1 0 4.28032e+09 4.28059e+09 4.28161e+09 5.63483e+06 0
001 351 1 1 9.31227e+06 9.58602e+06 1.0605e+07 1.17006e+07 0
000 352 1 1 1.88549e+07 1.91064e+07 2.01253e+07 2.24005e+07 1
000 353 1 1 3.43143e+07 3.45721e+07 3.55911e+07 4.72287e+08 1
000 354 1 1 4.7969e+08 4.7994e+08 4.80959e+08 4.83126e+08 1
000 355 2 1 4.94054e+08 4.94305e+08 4.95324e+08 5.0076e+08 0
001 356 1 1 5.05394e+08 5.05654e+08 5.06673e+08 5.13418e+08 0
000 357 1 1 5.20805e+08 5.21063e+08 5.22082e+08 5.26151e+08 1
000 358 1 1 5.35527e+08 5.35779e+08 5.36798e+08 5.39775e+08 1
000 359 1 1 5.47033e+08 5.47281e+08 5.483e+08 5.57742e+08 1
000 360 2 1 5.64983e+08 5.6524e+08 5.66259e+08 6.60793e+08 0
001 361 1 1 6.64482e+08 6.64738e+08 6.65757e+08 6.71327e+08 0
000 362 1 1 6.8152e+08 6.81773e+08 6.82792e+08 6.8953e+08 1
000 363 1 1 6.96977e+08 6.97236e+08 6.98255e+08 7.00155e+08 1
000 364 1 1 7.07344e+08 7.07603e+08 7.08622e+08 7.10272e+08 1
000 365 1 1 7.17773e+08 7.18036e+08 7.19055e+08 7.56189e+08 0
000 366 2 1 7.68273e+08 7.6853e+08 7.69549e+08 7.749e+08 0
001 367 1 1 7.77557e+08 7.77826e+08 7.78845e+08 7.8019e+08 0
000 368 1 1 7.875e+08 7.87754e+08 7.88773e+08 7.91056e+08 1
000 369 1 1 7.9848e+08 7.98736e+08 7.99755e+08 8.20595e+08 1
000 370 1 1 8.27932e+08 8.28193e+08 8.29212e+08 8.31361e+08 1
000 371 2 1 8.38902e+08 8.39163e+08 8.40182e+08 8.57086e+08 0
001 372 2 0 8.62069e+08 8.62323e+08 8.63342e+08 8.94557e+08 0
000 373 2 0 9.01843e+08 9.02098e+08 9.03117e+08 9.19161e+08 1
000 374 2 0 9.26633e+08 9.26886e+08 9.27905e+08 9.5526e+08 1
000 375 2 0 9.62456e+08 9.62722e+08 9.63741e+08 9.69934e+08 1
000 376 2 1 9.77475e+08 9.77738e+08 9.78757e+08 9.81746e+08 0
001 377 1 1 9.88795e+08 9.89046e+08 9.90065e+08 1.02249e+09 0
000 378 1 1 1.02995e+09 1.0302e+09 1.03122e+09 1.21941e+09 1
000 379 1 1 1.22678e+09 1.22704e+09 1.22806e+09 1.22887e+09 1
000 380 1 0 1.23815e+09 1.2384e+09 1.23942e+09 1.2469e+09 1
001 381 2 1 1.2499e+09 1.25016e+09 1.25118e+09 1.27314e+09 0
001 382 2 1 1.27563e+09 1.27588e+09 1.27689e+09 1.28305e+09 0
001 383 1 1 1.28585e+09 1.28611e+09 1.28713e+09 1.28846e+09 0
000 384 1 0 1.2964e+09 1.29667e+09 1.29769e+09 1.43507e+09 1
001 385 1 1 1.44138e+09 1.44164e+09 1.44266e+09 1.44267e+09 0
000 386 1 1 1.45e+09 1.45029e+09 1.4513e+09 1.45175e+09 1
000 387 1 1 1.46188e+09 1.46215e+09 1.46317e+09 1.47432e+09 1
000 388 1 1 1.48154e+09 1.4818e+09 1.48281e+09 1.55407e+09 1
000 389 2 1 1.56264e+09 1.56289e+09 1.56391e+09 1.56612e+09 0
001 390 1 0 1.57068e+09 1.57093e+09 1.57195e+09 1.6571e+09 0
001 391 2 0 1.65984e+09 1.66009e+09 1.66111e+09 1.71696e+09 0
000 392 2 1 1.72426e+09 1.72452e+09 1.72554e+09 1.76617e+09 1
001 393 1 1 1.76878e+09 1.76906e+09 1.77007e+09 1.77463e+09 0
000 394 1 1 1.78342e+09 1.78368e+09 1.7847e+09 1.78733e+09 1
000 395 1 1 1.79483e+09 1.79509e+09 1.79611e+09 1.79802e+09 1
000 396 1 0 1.80549e+09 1.80574e+09 1.80676e+09 1.96262e+09 1
001 397 2 1 1.96703e+09 1.96728e+09 1.9683e+09 1.97259e+09 0
001 398 1 1 1.98273e+09 1.98299e+09 1.98401e+09 2.03195e+09 0
000 399 1 1 2.03932e+09 2.03957e+09 2.04059e+09 2.04191e+09 1
000 400 1 1 2.04902e+09 2.04928e+09 2.0503e+09 2.0509e+09 1
000 401 1 1 2.05799e+09 2.05825e+09 2.05927e+09 2.13615e+09 1
000 402 2 1 2.14489e+09 2.14515e+09 2.14617e+09 2.14961e+09 0
001 403 1 1 2.15655e+09 2.1568e+09 2.15782e+09 2.15968e+09 0
000 404 1 0 2.16949e+09 2.16975e+09 2.17077e+09 2.25417e+09 1
001 405 1 1 2.25689e+09 2.25716e+09 2.25818e+09 2.26415e+09 0
000 406 1 1 2.27156e+09 2.27183e+09 2.27285e+09 2.30014e+09 1
000 407 1 1 2.31121e+09 2.31146e+09 2.31248e+09 2.31561e+09 1
000 408 1 1 2.3248e+09 2.32506e+09 2.32608e+09 2.46943e+09 1
000 409 1 0 2.47653e+09 2.47679e+09 2.47781e+09 2.47946e+09 0
001 410 1 1 2.48209e+09 2.48235e+09 2.48337e+09 2.4874e+09 0
000 411 1 1 2.49458e+09 2.49483e+09 2.49585e+09 2.53944e+09 1
000 412 1 1 2.55283e+09 2.55308e+09 2.5541e+09 2.55457e+09 1
000 413 1 1 2.56182e+09 2.56209e+09 2.56311e+09 2.612e+09 1
000 414 1 0 2.6235e+09 2.62377e+09 2.62479e+09 2.68294e+09 0
001 415 2 1 2.68689e+09 2.68715e+09 2.68817e+09 2.69092e+09 0
001 416 2 1 2.69535e+09 2.69561e+09 2.69663e+09 2.7034e+09 0
001 417 2 1 2.7074e+09 2.70766e+09 2.70868e+09 2.73539e+09 0
001 418 2 1 2.73883e+09 2.73909e+09 2.74011e+09 2.74353e+09 0
001 419 2 1 2.74621e+09 2.74648e+09 2.74749e+09 2.75412e+09 0
001 420 1 1 2.7601e+09 2.76036e+09 2.76138e+09 2.81455e+09 0
000 421 1 1 2.82184e+09 2.82209e+09 2.82311e+09 2.91e+09 1
000 422 1 1 2.91836e+09 2.91862e+09 2.91964e+09 2.92761e+09 1
000 423 1 1 2.93484e+09 2.93511e+09 2.93613e+09 2.9385e+09 1
000 424 2 1 2.94784e+09 2.9481e+09 2.94912e+09 3.00319e+09 0
001 425 2 1 3.01127e+09 3.01152e+09 3.01254e+09 3.09321e+09 0
001 426 1 1 3.09794e+09 3.0982e+09 3.09922e+09 3.12001e+09 0
000 427 1 1 3.12715e+09 3.1274e+09 3.12842e+09 3.14457e+09 1
000 428 1 1 3.15186e+09 3.15212e+09 3.15314e+09 3.23633e+09 1
000 429 1 1 3.24379e+09 3.24405e+09 3.24507e+09 3.25181e+09 1
000 430 2 0 3.25889e+09 3.25916e+09 3.26017e+09 3.30522e+09 0
000 431 2 1 3.31235e+09 3.3126e+09 3.31362e+09 3.32051e+09 0
001 432 2 0 3.32322e+09 3.32349e+09 3.32451e+09 3.33503e+09 0
000 433 2 1 3.34269e+09 3.34294e+09 3.34396e+09 3.38807e+09 1
001 434 2 0 3.39082e+09 3.39108e+09 3.3921e+09 3.39263e+09 0
000 435 2 1 3.40172e+09 3.40198e+09 3.403e+09 3.403e+09 1
001 436 2 1 3.40699e+09 3.4073e+09 3.40831e+09 3.4111e+09 0
001 437 2 1 3.41366e+09 3.41392e+09 3.41494e+09 3.4172e+09 0
001 438 1 1 3.42002e+09 3.42029e+09 3.42131e+09 3.42131e+09 0
000 439 1 1 3.42866e+09 3.42892e+09 3.42994e+09 3.45977e+09 1
000 440 1 1 3.46684e+09 3.4671e+09 3.46812e+09 3.48908e+09 1
000 441 1 1 3.49613e+09 3.49638e+09 3.4974e+09 3.53262e+09 1
000 442 1 1 3.53998e+09 3.54024e+09 3.54126e+09 3.59215e+09 0
000 443 1 1 3.59952e+09 3.59977e+09 3.60079e+09 3.60301e+09 0
000 444 1 1 3.61022e+09 3.61048e+09 3.6115e+09 3.62929e+09 0
000 445 1 1 3.63639e+09 3.63665e+09 3.63766e+09 3.69146e+09 0
000 